participant,date,expName,psychopyVersion,OS,frameRate,browser,xResolution,yResolution,key_resp.keys,key_resp.rt,training_resp.keys,training_resp.rt,points_trial,points_cumul,trainBlock,training.thisRepN,training.thisTrialN,training.thisN,training.thisIndex,training.ran,LTriangleOpac,LCircleOpac,LHexagonOpac,LStarOpac,RTriangleOpac,RCircleOpac,RHexagonOpac,RStarOpac,LShape_ID,RShape_ID,curr_topStim,curr_bottStim,curr_shape,acc,E1,target_resp_prac1.keys,pracBlock,task1_prac_trials.thisRepN,task1_prac_trials.thisTrialN,task1_prac_trials.thisN,task1_prac_trials.thisIndex,task1_prac_trials.ran,target_resp_prac1.rt,target_resp_prac2.keys,target_resp_prac2.rt,task2_praac_trials.thisRepN,task2_praac_trials.thisTrialN,task2_praac_trials.thisN,task2_praac_trials.thisIndex,task2_praac_trials.ran,alt,task,condition,target_resp.keys,target_resp.rt,rewCond,vts_practice_trials.thisRepN,vts_practice_trials.thisTrialN,vts_practice_trials.thisN,vts_practice_trials.thisIndex,vts_practice_trials.ran,blockNum,trials_norew.thisRepN,trials_norew.thisTrialN,trials_norew.thisN,trials_norew.thisIndex,trials_norew.ran,key_resp_2.keys,key_resp_2.rt,rewExpect,trials_rew.thisRepN,trials_rew.thisTrialN,trials_rew.thisN,trials_rew.thisIndex,trials_rew.ran,Q1,Q2,Q2_text,Q3,Q4,Q5_text,Q5,xRes,yRes
293068,2022-10-06_09h00.19.351,vts_reward_expectancy,2022.2.4,Win32,60.50338819,Chrome,1500,1000,,,,,,,,,,,,,,,,,,,,,,,,,,,,,,,,,,,,,,,,,,,,,,,,,,,,,,,,,,,,,,,,,,,,,,,,,,,,
293068,2022-10-06_09h00.19.351,vts_reward_expectancy,2022.2.4,Win32,60.50338819,Chrome,1500,1000,space,26.2468,,,,,,,,,,,,,,,,,,,,,,,,,,,,,,,,,,,,,,,,,,,,,,,,,,,,,,,,,,,,,,,,,,,,,,,,,,
293068,2022-10-06_09h00.19.351,vts_reward_expectancy,2022.2.4,Win32,60.50338819,Chrome,1500,1000,,,,,,,,,,,,,,,,,,,,,,,,,,,,,,,,,,,,,,,,,,,,,,,,,,,,,,,,,,,,,,,,,,,,,,,,,,,,
293068,2022-10-06_09h00.19.351,vts_reward_expectancy,2022.2.4,Win32,60.50338819,Chrome,1500,1000,,,a,1.6587,10,10,0,0,0,0,9,1,0,0,0,1,1,0,0,0,star,triangle,,,,,,,,,,,,,,,,,,,,,,,,,,,,,,,,,,,,,,,,,,,,,,,,,,,,,,
293068,2022-10-06_09h00.19.351,vts_reward_expectancy,2022.2.4,Win32,60.50338819,Chrome,1500,1000,,,a,1.2293,1,11,0,0,1,1,3,1,0,1,0,0,1,0,0,0,circle,triangle,,,,,,,,,,,,,,,,,,,,,,,,,,,,,,,,,,,,,,,,,,,,,,,,,,,,,,
293068,2022-10-06_09h00.19.351,vts_reward_expectancy,2022.2.4,Win32,60.50338819,Chrome,1500,1000,,,a,0.8041,1,12,0,0,2,2,6,1,0,0,1,0,1,0,0,0,hexagon,triangle,,,,,,,,,,,,,,,,,,,,,,,,,,,,,,,,,,,,,,,,,,,,,,,,,,,,,,
293068,2022-10-06_09h00.19.351,vts_reward_expectancy,2022.2.4,Win32,60.50338819,Chrome,1500,1000,,,a,2.016,1,13,0,0,3,3,7,1,0,0,1,0,0,1,0,0,hexagon,circle,,,,,,,,,,,,,,,,,,,,,,,,,,,,,,,,,,,,,,,,,,,,,,,,,,,,,,
293068,2022-10-06_09h00.19.351,vts_reward_expectancy,2022.2.4,Win32,60.50338819,Chrome,1500,1000,,,l,3.4344,10,23,0,0,4,4,0,1,1,0,0,0,0,1,0,0,triangle,circle,,,,,,,,,,,,,,,,,,,,,,,,,,,,,,,,,,,,,,,,,,,,,,,,,,,,,,
293068,2022-10-06_09h00.19.351,vts_reward_expectancy,2022.2.4,Win32,60.50338819,Chrome,1500,1000,,,l,1.8705,10,33,0,0,5,5,2,1,1,0,0,0,0,0,0,1,triangle,star,,,,,,,,,,,,,,,,,,,,,,,,,,,,,,,,,,,,,,,,,,,,,,,,,,,,,,
293068,2022-10-06_09h00.19.351,vts_reward_expectancy,2022.2.4,Win32,60.50338819,Chrome,1500,1000,,,a,1.2341,1,34,0,0,6,6,4,1,0,1,0,0,0,0,1,0,circle,hexagon,,,,,,,,,,,,,,,,,,,,,,,,,,,,,,,,,,,,,,,,,,,,,,,,,,,,,,
293068,2022-10-06_09h00.19.351,vts_reward_expectancy,2022.2.4,Win32,60.50338819,Chrome,1500,1000,,,l,1.7021,10,44,0,0,7,7,5,1,0,1,0,0,0,0,0,1,circle,star,,,,,,,,,,,,,,,,,,,,,,,,,,,,,,,,,,,,,,,,,,,,,,,,,,,,,,
293068,2022-10-06_09h00.19.351,vts_reward_expectancy,2022.2.4,Win32,60.50338819,Chrome,1500,1000,,,l,1.406,10,54,0,0,8,8,8,1,0,0,1,0,0,0,0,1,hexagon,star,,,,,,,,,,,,,,,,,,,,,,,,,,,,,,,,,,,,,,,,,,,,,,,,,,,,,,
293068,2022-10-06_09h00.19.351,vts_reward_expectancy,2022.2.4,Win32,60.50338819,Chrome,1500,1000,,,a,1.0735,10,64,0,0,9,9,11,1,0,0,0,1,0,0,1,0,star,hexagon,,,,,,,,,,,,,,,,,,,,,,,,,,,,,,,,,,,,,,,,,,,,,,,,,,,,,,
293068,2022-10-06_09h00.19.351,vts_reward_expectancy,2022.2.4,Win32,60.50338819,Chrome,1500,1000,,,a,1.4331,10,74,0,0,10,10,1,1,1,0,0,0,0,0,1,0,triangle,hexagon,,,,,,,,,,,,,,,,,,,,,,,,,,,,,,,,,,,,,,,,,,,,,,,,,,,,,,
293068,2022-10-06_09h00.19.351,vts_reward_expectancy,2022.2.4,Win32,60.50338819,Chrome,1500,1000,,,a,0.9515,10,84,0,0,11,11,10,1,0,0,0,1,0,1,0,0,star ,circle,,,,,,,,,,,,,,,,,,,,,,,,,,,,,,,,,,,,,,,,,,,,,,,,,,,,,,
293068,2022-10-06_09h00.19.351,vts_reward_expectancy,2022.2.4,Win32,60.50338819,Chrome,1500,1000,,,l,0.6863,10,94,0,1,0,12,9,1,0,0,0,1,1,0,0,0,star,triangle,,,,,,,,,,,,,,,,,,,,,,,,,,,,,,,,,,,,,,,,,,,,,,,,,,,,,,
293068,2022-10-06_09h00.19.351,vts_reward_expectancy,2022.2.4,Win32,60.50338819,Chrome,1500,1000,,,l,1.2879,10,104,0,1,1,13,8,1,0,0,1,0,0,0,0,1,hexagon,star,,,,,,,,,,,,,,,,,,,,,,,,,,,,,,,,,,,,,,,,,,,,,,,,,,,,,,
293068,2022-10-06_09h00.19.351,vts_reward_expectancy,2022.2.4,Win32,60.50338819,Chrome,1500,1000,,,a,1.2813,10,114,0,1,2,14,0,1,1,0,0,0,0,1,0,0,triangle,circle,,,,,,,,,,,,,,,,,,,,,,,,,,,,,,,,,,,,,,,,,,,,,,,,,,,,,,
293068,2022-10-06_09h00.19.351,vts_reward_expectancy,2022.2.4,Win32,60.50338819,Chrome,1500,1000,,,a,1.3226,1,115,0,1,3,15,7,1,0,0,1,0,0,1,0,0,hexagon,circle,,,,,,,,,,,,,,,,,,,,,,,,,,,,,,,,,,,,,,,,,,,,,,,,,,,,,,
293068,2022-10-06_09h00.19.351,vts_reward_expectancy,2022.2.4,Win32,60.50338819,Chrome,1500,1000,,,a,0.5836,10,125,0,1,4,16,1,1,1,0,0,0,0,0,1,0,triangle,hexagon,,,,,,,,,,,,,,,,,,,,,,,,,,,,,,,,,,,,,,,,,,,,,,,,,,,,,,
293068,2022-10-06_09h00.19.351,vts_reward_expectancy,2022.2.4,Win32,60.50338819,Chrome,1500,1000,,,l,1.1234,1,126,0,1,5,17,6,1,0,0,1,0,1,0,0,0,hexagon,triangle,,,,,,,,,,,,,,,,,,,,,,,,,,,,,,,,,,,,,,,,,,,,,,,,,,,,,,
293068,2022-10-06_09h00.19.351,vts_reward_expectancy,2022.2.4,Win32,60.50338819,Chrome,1500,1000,,,l,0.749,10,136,0,1,6,18,5,1,0,1,0,0,0,0,0,1,circle,star,,,,,,,,,,,,,,,,,,,,,,,,,,,,,,,,,,,,,,,,,,,,,,,,,,,,,,
293068,2022-10-06_09h00.19.351,vts_reward_expectancy,2022.2.4,Win32,60.50338819,Chrome,1500,1000,,,a,0.8677,10,146,0,1,7,19,10,1,0,0,0,1,0,1,0,0,star ,circle,,,,,,,,,,,,,,,,,,,,,,,,,,,,,,,,,,,,,,,,,,,,,,,,,,,,,,
293068,2022-10-06_09h00.19.351,vts_reward_expectancy,2022.2.4,Win32,60.50338819,Chrome,1500,1000,,,a,0.6184,10,156,0,1,8,20,11,1,0,0,0,1,0,0,1,0,star,hexagon,,,,,,,,,,,,,,,,,,,,,,,,,,,,,,,,,,,,,,,,,,,,,,,,,,,,,,
293068,2022-10-06_09h00.19.351,vts_reward_expectancy,2022.2.4,Win32,60.50338819,Chrome,1500,1000,,,l,0.6001,10,166,0,1,9,21,2,1,1,0,0,0,0,0,0,1,triangle,star,,,,,,,,,,,,,,,,,,,,,,,,,,,,,,,,,,,,,,,,,,,,,,,,,,,,,,
293068,2022-10-06_09h00.19.351,vts_reward_expectancy,2022.2.4,Win32,60.50338819,Chrome,1500,1000,,,l,0.867,1,167,0,1,10,22,3,1,0,1,0,0,1,0,0,0,circle,triangle,,,,,,,,,,,,,,,,,,,,,,,,,,,,,,,,,,,,,,,,,,,,,,,,,,,,,,
293068,2022-10-06_09h00.19.351,vts_reward_expectancy,2022.2.4,Win32,60.50338819,Chrome,1500,1000,,,a,0.9404,1,168,0,1,11,23,4,1,0,1,0,0,0,0,1,0,circle,hexagon,,,,,,,,,,,,,,,,,,,,,,,,,,,,,,,,,,,,,,,,,,,,,,,,,,,,,,
293068,2022-10-06_09h00.19.351,vts_reward_expectancy,2022.2.4,Win32,60.50338819,Chrome,1500,1000,,,l,0.9412,10,178,0,2,0,24,5,1,0,1,0,0,0,0,0,1,circle,star,,,,,,,,,,,,,,,,,,,,,,,,,,,,,,,,,,,,,,,,,,,,,,,,,,,,,,
293068,2022-10-06_09h00.19.351,vts_reward_expectancy,2022.2.4,Win32,60.50338819,Chrome,1500,1000,,,a,1.2667,1,179,0,2,1,25,7,1,0,0,1,0,0,1,0,0,hexagon,circle,,,,,,,,,,,,,,,,,,,,,,,,,,,,,,,,,,,,,,,,,,,,,,,,,,,,,,
293068,2022-10-06_09h00.19.351,vts_reward_expectancy,2022.2.4,Win32,60.50338819,Chrome,1500,1000,,,l,1.5398,10,189,0,2,2,26,0,1,1,0,0,0,0,1,0,0,triangle,circle,,,,,,,,,,,,,,,,,,,,,,,,,,,,,,,,,,,,,,,,,,,,,,,,,,,,,,
293068,2022-10-06_09h00.19.351,vts_reward_expectancy,2022.2.4,Win32,60.50338819,Chrome,1500,1000,,,a,0.7508,1,190,0,2,3,27,9,1,0,0,0,1,1,0,0,0,star,triangle,,,,,,,,,,,,,,,,,,,,,,,,,,,,,,,,,,,,,,,,,,,,,,,,,,,,,,
293068,2022-10-06_09h00.19.351,vts_reward_expectancy,2022.2.4,Win32,60.50338819,Chrome,1500,1000,,,l,1.9502,1,191,0,2,4,28,10,1,0,0,0,1,0,1,0,0,star ,circle,,,,,,,,,,,,,,,,,,,,,,,,,,,,,,,,,,,,,,,,,,,,,,,,,,,,,,
293068,2022-10-06_09h00.19.351,vts_reward_expectancy,2022.2.4,Win32,60.50338819,Chrome,1500,1000,,,a,1.6175,1,192,0,2,5,29,3,1,0,1,0,0,1,0,0,0,circle,triangle,,,,,,,,,,,,,,,,,,,,,,,,,,,,,,,,,,,,,,,,,,,,,,,,,,,,,,
293068,2022-10-06_09h00.19.351,vts_reward_expectancy,2022.2.4,Win32,60.50338819,Chrome,1500,1000,,,l,0.9578,1,193,0,2,6,30,4,1,0,1,0,0,0,0,1,0,circle,hexagon,,,,,,,,,,,,,,,,,,,,,,,,,,,,,,,,,,,,,,,,,,,,,,,,,,,,,,
293068,2022-10-06_09h00.19.351,vts_reward_expectancy,2022.2.4,Win32,60.50338819,Chrome,1500,1000,,,a,0.65,10,203,0,2,7,31,11,1,0,0,0,1,0,0,1,0,star,hexagon,,,,,,,,,,,,,,,,,,,,,,,,,,,,,,,,,,,,,,,,,,,,,,,,,,,,,,
293068,2022-10-06_09h00.19.351,vts_reward_expectancy,2022.2.4,Win32,60.50338819,Chrome,1500,1000,,,l,0.7169,10,213,0,2,8,32,8,1,0,0,1,0,0,0,0,1,hexagon,star,,,,,,,,,,,,,,,,,,,,,,,,,,,,,,,,,,,,,,,,,,,,,,,,,,,,,,
293068,2022-10-06_09h00.19.351,vts_reward_expectancy,2022.2.4,Win32,60.50338819,Chrome,1500,1000,,,l,2.1398,10,223,0,2,9,33,6,1,0,0,1,0,1,0,0,0,hexagon,triangle,,,,,,,,,,,,,,,,,,,,,,,,,,,,,,,,,,,,,,,,,,,,,,,,,,,,,,
293068,2022-10-06_09h00.19.351,vts_reward_expectancy,2022.2.4,Win32,60.50338819,Chrome,1500,1000,,,a,0.6885,10,233,0,2,10,34,2,1,1,0,0,0,0,0,0,1,triangle,star,,,,,,,,,,,,,,,,,,,,,,,,,,,,,,,,,,,,,,,,,,,,,,,,,,,,,,
293068,2022-10-06_09h00.19.351,vts_reward_expectancy,2022.2.4,Win32,60.50338819,Chrome,1500,1000,,,a,1.0664,10,243,0,2,11,35,1,1,1,0,0,0,0,0,1,0,triangle,hexagon,,,,,,,,,,,,,,,,,,,,,,,,,,,,,,,,,,,,,,,,,,,,,,,,,,,,,,
293068,2022-10-06_09h00.19.351,vts_reward_expectancy,2022.2.4,Win32,60.50338819,Chrome,1500,1000,,,a,1.1335,10,253,1,0,0,0,11,1,0,0,0,1,0,0,1,0,star,hexagon,,,,,,,,,,,,,,,,,,,,,,,,,,,,,,,,,,,,,,,,,,,,,,,,,,,,,,
293068,2022-10-06_09h00.19.351,vts_reward_expectancy,2022.2.4,Win32,60.50338819,Chrome,1500,1000,,,a,0.8669,10,263,1,0,1,1,0,1,1,0,0,0,0,1,0,0,triangle,circle,,,,,,,,,,,,,,,,,,,,,,,,,,,,,,,,,,,,,,,,,,,,,,,,,,,,,,
293068,2022-10-06_09h00.19.351,vts_reward_expectancy,2022.2.4,Win32,60.50338819,Chrome,1500,1000,,,l,0.7698,10,273,1,0,2,2,3,1,0,1,0,0,1,0,0,0,circle,triangle,,,,,,,,,,,,,,,,,,,,,,,,,,,,,,,,,,,,,,,,,,,,,,,,,,,,,,
293068,2022-10-06_09h00.19.351,vts_reward_expectancy,2022.2.4,Win32,60.50338819,Chrome,1500,1000,,,l,0.6676,10,283,1,0,3,3,6,1,0,0,1,0,1,0,0,0,hexagon,triangle,,,,,,,,,,,,,,,,,,,,,,,,,,,,,,,,,,,,,,,,,,,,,,,,,,,,,,
293068,2022-10-06_09h00.19.351,vts_reward_expectancy,2022.2.4,Win32,60.50338819,Chrome,1500,1000,,,l,0.7358,10,293,1,0,4,4,5,1,0,1,0,0,0,0,0,1,circle,star,,,,,,,,,,,,,,,,,,,,,,,,,,,,,,,,,,,,,,,,,,,,,,,,,,,,,,
293068,2022-10-06_09h00.19.351,vts_reward_expectancy,2022.2.4,Win32,60.50338819,Chrome,1500,1000,,,l,0.7173,10,303,1,0,5,5,8,1,0,0,1,0,0,0,0,1,hexagon,star,,,,,,,,,,,,,,,,,,,,,,,,,,,,,,,,,,,,,,,,,,,,,,,,,,,,,,
293068,2022-10-06_09h00.19.351,vts_reward_expectancy,2022.2.4,Win32,60.50338819,Chrome,1500,1000,,,l,1.8338,10,313,1,0,6,6,4,1,0,1,0,0,0,0,1,0,circle,hexagon,,,,,,,,,,,,,,,,,,,,,,,,,,,,,,,,,,,,,,,,,,,,,,,,,,,,,,
293068,2022-10-06_09h00.19.351,vts_reward_expectancy,2022.2.4,Win32,60.50338819,Chrome,1500,1000,,,a,0.8672,10,323,1,0,7,7,10,1,0,0,0,1,0,1,0,0,star ,circle,,,,,,,,,,,,,,,,,,,,,,,,,,,,,,,,,,,,,,,,,,,,,,,,,,,,,,
293068,2022-10-06_09h00.19.351,vts_reward_expectancy,2022.2.4,Win32,60.50338819,Chrome,1500,1000,,,l,0.6858,10,333,1,0,8,8,1,1,1,0,0,0,0,0,1,0,triangle,hexagon,,,,,,,,,,,,,,,,,,,,,,,,,,,,,,,,,,,,,,,,,,,,,,,,,,,,,,
293068,2022-10-06_09h00.19.351,vts_reward_expectancy,2022.2.4,Win32,60.50338819,Chrome,1500,1000,,,l,1.1502,10,343,1,0,9,9,2,1,1,0,0,0,0,0,0,1,triangle,star,,,,,,,,,,,,,,,,,,,,,,,,,,,,,,,,,,,,,,,,,,,,,,,,,,,,,,
293068,2022-10-06_09h00.19.351,vts_reward_expectancy,2022.2.4,Win32,60.50338819,Chrome,1500,1000,,,a,2.1175,10,353,1,0,10,10,9,1,0,0,0,1,1,0,0,0,star,triangle,,,,,,,,,,,,,,,,,,,,,,,,,,,,,,,,,,,,,,,,,,,,,,,,,,,,,,
293068,2022-10-06_09h00.19.351,vts_reward_expectancy,2022.2.4,Win32,60.50338819,Chrome,1500,1000,,,a,1.8849,10,363,1,0,11,11,7,1,0,0,1,0,0,1,0,0,hexagon,circle,,,,,,,,,,,,,,,,,,,,,,,,,,,,,,,,,,,,,,,,,,,,,,,,,,,,,,
293068,2022-10-06_09h00.19.351,vts_reward_expectancy,2022.2.4,Win32,60.50338819,Chrome,1500,1000,,,a,0.9342,10,373,1,1,0,12,7,1,0,0,1,0,0,1,0,0,hexagon,circle,,,,,,,,,,,,,,,,,,,,,,,,,,,,,,,,,,,,,,,,,,,,,,,,,,,,,,
293068,2022-10-06_09h00.19.351,vts_reward_expectancy,2022.2.4,Win32,60.50338819,Chrome,1500,1000,,,a,0.8338,10,383,1,1,1,13,11,1,0,0,0,1,0,0,1,0,star,hexagon,,,,,,,,,,,,,,,,,,,,,,,,,,,,,,,,,,,,,,,,,,,,,,,,,,,,,,
293068,2022-10-06_09h00.19.351,vts_reward_expectancy,2022.2.4,Win32,60.50338819,Chrome,1500,1000,,,l,1.324,10,393,1,1,2,14,3,1,0,1,0,0,1,0,0,0,circle,triangle,,,,,,,,,,,,,,,,,,,,,,,,,,,,,,,,,,,,,,,,,,,,,,,,,,,,,,
293068,2022-10-06_09h00.19.351,vts_reward_expectancy,2022.2.4,Win32,60.50338819,Chrome,1500,1000,,,l,1.2501,10,403,1,1,3,15,5,1,0,1,0,0,0,0,0,1,circle,star,,,,,,,,,,,,,,,,,,,,,,,,,,,,,,,,,,,,,,,,,,,,,,,,,,,,,,
293068,2022-10-06_09h00.19.351,vts_reward_expectancy,2022.2.4,Win32,60.50338819,Chrome,1500,1000,,,l,0.6343,10,413,1,1,4,16,2,1,1,0,0,0,0,0,0,1,triangle,star,,,,,,,,,,,,,,,,,,,,,,,,,,,,,,,,,,,,,,,,,,,,,,,,,,,,,,
293068,2022-10-06_09h00.19.351,vts_reward_expectancy,2022.2.4,Win32,60.50338819,Chrome,1500,1000,,,a,0.7002,10,423,1,1,5,17,10,1,0,0,0,1,0,1,0,0,star ,circle,,,,,,,,,,,,,,,,,,,,,,,,,,,,,,,,,,,,,,,,,,,,,,,,,,,,,,
293068,2022-10-06_09h00.19.351,vts_reward_expectancy,2022.2.4,Win32,60.50338819,Chrome,1500,1000,,,l,0.8179,10,433,1,1,6,18,6,1,0,0,1,0,1,0,0,0,hexagon,triangle,,,,,,,,,,,,,,,,,,,,,,,,,,,,,,,,,,,,,,,,,,,,,,,,,,,,,,
293068,2022-10-06_09h00.19.351,vts_reward_expectancy,2022.2.4,Win32,60.50338819,Chrome,1500,1000,,,a,1.4742,1,434,1,1,7,19,1,1,1,0,0,0,0,0,1,0,triangle,hexagon,,,,,,,,,,,,,,,,,,,,,,,,,,,,,,,,,,,,,,,,,,,,,,,,,,,,,,
293068,2022-10-06_09h00.19.351,vts_reward_expectancy,2022.2.4,Win32,60.50338819,Chrome,1500,1000,,,l,1.3507,1,435,1,1,8,20,4,1,0,1,0,0,0,0,1,0,circle,hexagon,,,,,,,,,,,,,,,,,,,,,,,,,,,,,,,,,,,,,,,,,,,,,,,,,,,,,,
293068,2022-10-06_09h00.19.351,vts_reward_expectancy,2022.2.4,Win32,60.50338819,Chrome,1500,1000,,,a,0.9024,10,445,1,1,9,21,9,1,0,0,0,1,1,0,0,0,star,triangle,,,,,,,,,,,,,,,,,,,,,,,,,,,,,,,,,,,,,,,,,,,,,,,,,,,,,,
293068,2022-10-06_09h00.19.351,vts_reward_expectancy,2022.2.4,Win32,60.50338819,Chrome,1500,1000,,,l,0.8025,1,446,1,1,10,22,8,1,0,0,1,0,0,0,0,1,hexagon,star,,,,,,,,,,,,,,,,,,,,,,,,,,,,,,,,,,,,,,,,,,,,,,,,,,,,,,
293068,2022-10-06_09h00.19.351,vts_reward_expectancy,2022.2.4,Win32,60.50338819,Chrome,1500,1000,,,l,0.817,1,447,1,1,11,23,0,1,1,0,0,0,0,1,0,0,triangle,circle,,,,,,,,,,,,,,,,,,,,,,,,,,,,,,,,,,,,,,,,,,,,,,,,,,,,,,
293068,2022-10-06_09h00.19.351,vts_reward_expectancy,2022.2.4,Win32,60.50338819,Chrome,1500,1000,,,l,1.4874,10,457,1,2,0,24,3,1,0,1,0,0,1,0,0,0,circle,triangle,,,,,,,,,,,,,,,,,,,,,,,,,,,,,,,,,,,,,,,,,,,,,,,,,,,,,,
293068,2022-10-06_09h00.19.351,vts_reward_expectancy,2022.2.4,Win32,60.50338819,Chrome,1500,1000,,,l,2.5188,10,467,1,2,1,25,9,1,0,0,0,1,1,0,0,0,star,triangle,,,,,,,,,,,,,,,,,,,,,,,,,,,,,,,,,,,,,,,,,,,,,,,,,,,,,,
293068,2022-10-06_09h00.19.351,vts_reward_expectancy,2022.2.4,Win32,60.50338819,Chrome,1500,1000,,,a,1.5208,1,468,1,2,2,26,4,1,0,1,0,0,0,0,1,0,circle,hexagon,,,,,,,,,,,,,,,,,,,,,,,,,,,,,,,,,,,,,,,,,,,,,,,,,,,,,,
293068,2022-10-06_09h00.19.351,vts_reward_expectancy,2022.2.4,Win32,60.50338819,Chrome,1500,1000,,,a,1.0165,1,469,1,2,3,27,10,1,0,0,0,1,0,1,0,0,star ,circle,,,,,,,,,,,,,,,,,,,,,,,,,,,,,,,,,,,,,,,,,,,,,,,,,,,,,,
293068,2022-10-06_09h00.19.351,vts_reward_expectancy,2022.2.4,Win32,60.50338819,Chrome,1500,1000,,,l,1.4011,10,479,1,2,4,28,6,1,0,0,1,0,1,0,0,0,hexagon,triangle,,,,,,,,,,,,,,,,,,,,,,,,,,,,,,,,,,,,,,,,,,,,,,,,,,,,,,
293068,2022-10-06_09h00.19.351,vts_reward_expectancy,2022.2.4,Win32,60.50338819,Chrome,1500,1000,,,a,1.1874,10,489,1,2,5,29,0,1,1,0,0,0,0,1,0,0,triangle,circle,,,,,,,,,,,,,,,,,,,,,,,,,,,,,,,,,,,,,,,,,,,,,,,,,,,,,,
293068,2022-10-06_09h00.19.351,vts_reward_expectancy,2022.2.4,Win32,60.50338819,Chrome,1500,1000,,,l,1.9014,1,490,1,2,6,30,7,1,0,0,1,0,0,1,0,0,hexagon,circle,,,,,,,,,,,,,,,,,,,,,,,,,,,,,,,,,,,,,,,,,,,,,,,,,,,,,,
293068,2022-10-06_09h00.19.351,vts_reward_expectancy,2022.2.4,Win32,60.50338819,Chrome,1500,1000,,,l,0.9835,1,491,1,2,7,31,2,1,1,0,0,0,0,0,0,1,triangle,star,,,,,,,,,,,,,,,,,,,,,,,,,,,,,,,,,,,,,,,,,,,,,,,,,,,,,,
293068,2022-10-06_09h00.19.351,vts_reward_expectancy,2022.2.4,Win32,60.50338819,Chrome,1500,1000,,,a,0.7178,1,492,1,2,8,32,1,1,1,0,0,0,0,0,1,0,triangle,hexagon,,,,,,,,,,,,,,,,,,,,,,,,,,,,,,,,,,,,,,,,,,,,,,,,,,,,,,
293068,2022-10-06_09h00.19.351,vts_reward_expectancy,2022.2.4,Win32,60.50338819,Chrome,1500,1000,,,a,0.8008,1,493,1,2,9,33,8,1,0,0,1,0,0,0,0,1,hexagon,star,,,,,,,,,,,,,,,,,,,,,,,,,,,,,,,,,,,,,,,,,,,,,,,,,,,,,,
293068,2022-10-06_09h00.19.351,vts_reward_expectancy,2022.2.4,Win32,60.50338819,Chrome,1500,1000,,,l,0.818,10,503,1,2,10,34,5,1,0,1,0,0,0,0,0,1,circle,star,,,,,,,,,,,,,,,,,,,,,,,,,,,,,,,,,,,,,,,,,,,,,,,,,,,,,,
293068,2022-10-06_09h00.19.351,vts_reward_expectancy,2022.2.4,Win32,60.50338819,Chrome,1500,1000,,,a,0.834,10,513,1,2,11,35,11,1,0,0,0,1,0,0,1,0,star,hexagon,,,,,,,,,,,,,,,,,,,,,,,,,,,,,,,,,,,,,,,,,,,,,,,,,,,,,,
293068,2022-10-06_09h00.19.351,vts_reward_expectancy,2022.2.4,Win32,60.50338819,Chrome,1500,1000,,,l,1.0466,10,523,2,0,0,0,8,1,0,0,1,0,0,0,0,1,hexagon,star,,,,,,,,,,,,,,,,,,,,,,,,,,,,,,,,,,,,,,,,,,,,,,,,,,,,,,
293068,2022-10-06_09h00.19.351,vts_reward_expectancy,2022.2.4,Win32,60.50338819,Chrome,1500,1000,,,l,0.9512,1,524,2,0,1,1,6,1,0,0,1,0,1,0,0,0,hexagon,triangle,,,,,,,,,,,,,,,,,,,,,,,,,,,,,,,,,,,,,,,,,,,,,,,,,,,,,,
293068,2022-10-06_09h00.19.351,vts_reward_expectancy,2022.2.4,Win32,60.50338819,Chrome,1500,1000,,,l,1.0837,1,525,2,0,2,2,4,1,0,1,0,0,0,0,1,0,circle,hexagon,,,,,,,,,,,,,,,,,,,,,,,,,,,,,,,,,,,,,,,,,,,,,,,,,,,,,,
293068,2022-10-06_09h00.19.351,vts_reward_expectancy,2022.2.4,Win32,60.50338819,Chrome,1500,1000,,,a,3.4351,1,526,2,0,3,3,3,1,0,1,0,0,1,0,0,0,circle,triangle,,,,,,,,,,,,,,,,,,,,,,,,,,,,,,,,,,,,,,,,,,,,,,,,,,,,,,
293068,2022-10-06_09h00.19.351,vts_reward_expectancy,2022.2.4,Win32,60.50338819,Chrome,1500,1000,,,a,0.6663,1,527,2,0,4,4,10,1,0,0,0,1,0,1,0,0,star ,circle,,,,,,,,,,,,,,,,,,,,,,,,,,,,,,,,,,,,,,,,,,,,,,,,,,,,,,
293068,2022-10-06_09h00.19.351,vts_reward_expectancy,2022.2.4,Win32,60.50338819,Chrome,1500,1000,,,l,0.7892,1,528,2,0,5,5,1,1,1,0,0,0,0,0,1,0,triangle,hexagon,,,,,,,,,,,,,,,,,,,,,,,,,,,,,,,,,,,,,,,,,,,,,,,,,,,,,,
293068,2022-10-06_09h00.19.351,vts_reward_expectancy,2022.2.4,Win32,60.50338819,Chrome,1500,1000,,,a,0.7578,10,538,2,0,6,6,0,1,1,0,0,0,0,1,0,0,triangle,circle,,,,,,,,,,,,,,,,,,,,,,,,,,,,,,,,,,,,,,,,,,,,,,,,,,,,,,
293068,2022-10-06_09h00.19.351,vts_reward_expectancy,2022.2.4,Win32,60.50338819,Chrome,1500,1000,,,l,0.7864,1,539,2,0,7,7,9,1,0,0,0,1,1,0,0,0,star,triangle,,,,,,,,,,,,,,,,,,,,,,,,,,,,,,,,,,,,,,,,,,,,,,,,,,,,,,
293068,2022-10-06_09h00.19.351,vts_reward_expectancy,2022.2.4,Win32,60.50338819,Chrome,1500,1000,,,l,1.3217,10,549,2,0,8,8,2,1,1,0,0,0,0,0,0,1,triangle,star,,,,,,,,,,,,,,,,,,,,,,,,,,,,,,,,,,,,,,,,,,,,,,,,,,,,,,
293068,2022-10-06_09h00.19.351,vts_reward_expectancy,2022.2.4,Win32,60.50338819,Chrome,1500,1000,,,l,1.2185,10,559,2,0,9,9,5,1,0,1,0,0,0,0,0,1,circle,star,,,,,,,,,,,,,,,,,,,,,,,,,,,,,,,,,,,,,,,,,,,,,,,,,,,,,,
293068,2022-10-06_09h00.19.351,vts_reward_expectancy,2022.2.4,Win32,60.50338819,Chrome,1500,1000,,,a,1.5504,10,569,2,0,10,10,7,1,0,0,1,0,0,1,0,0,hexagon,circle,,,,,,,,,,,,,,,,,,,,,,,,,,,,,,,,,,,,,,,,,,,,,,,,,,,,,,
293068,2022-10-06_09h00.19.351,vts_reward_expectancy,2022.2.4,Win32,60.50338819,Chrome,1500,1000,,,a,1.5016,10,579,2,0,11,11,11,1,0,0,0,1,0,0,1,0,star,hexagon,,,,,,,,,,,,,,,,,,,,,,,,,,,,,,,,,,,,,,,,,,,,,,,,,,,,,,
293068,2022-10-06_09h00.19.351,vts_reward_expectancy,2022.2.4,Win32,60.50338819,Chrome,1500,1000,,,a,1.3007,1,580,2,1,0,12,7,1,0,0,1,0,0,1,0,0,hexagon,circle,,,,,,,,,,,,,,,,,,,,,,,,,,,,,,,,,,,,,,,,,,,,,,,,,,,,,,
293068,2022-10-06_09h00.19.351,vts_reward_expectancy,2022.2.4,Win32,60.50338819,Chrome,1500,1000,,,a,0.8174,1,581,2,1,1,13,10,1,0,0,0,1,0,1,0,0,star ,circle,,,,,,,,,,,,,,,,,,,,,,,,,,,,,,,,,,,,,,,,,,,,,,,,,,,,,,
293068,2022-10-06_09h00.19.351,vts_reward_expectancy,2022.2.4,Win32,60.50338819,Chrome,1500,1000,,,a,1.5685,10,591,2,1,2,14,9,1,0,0,0,1,1,0,0,0,star,triangle,,,,,,,,,,,,,,,,,,,,,,,,,,,,,,,,,,,,,,,,,,,,,,,,,,,,,,
293068,2022-10-06_09h00.19.351,vts_reward_expectancy,2022.2.4,Win32,60.50338819,Chrome,1500,1000,,,l,1.4845,10,601,2,1,3,15,8,1,0,0,1,0,0,0,0,1,hexagon,star,,,,,,,,,,,,,,,,,,,,,,,,,,,,,,,,,,,,,,,,,,,,,,,,,,,,,,
293068,2022-10-06_09h00.19.351,vts_reward_expectancy,2022.2.4,Win32,60.50338819,Chrome,1500,1000,,,l,1.2011,10,611,2,1,4,16,4,1,0,1,0,0,0,0,1,0,circle,hexagon,,,,,,,,,,,,,,,,,,,,,,,,,,,,,,,,,,,,,,,,,,,,,,,,,,,,,,
293068,2022-10-06_09h00.19.351,vts_reward_expectancy,2022.2.4,Win32,60.50338819,Chrome,1500,1000,,,l,1.4546,10,621,2,1,5,17,5,1,0,1,0,0,0,0,0,1,circle,star,,,,,,,,,,,,,,,,,,,,,,,,,,,,,,,,,,,,,,,,,,,,,,,,,,,,,,
293068,2022-10-06_09h00.19.351,vts_reward_expectancy,2022.2.4,Win32,60.50338819,Chrome,1500,1000,,,l,1.1845,1,622,2,1,6,18,6,1,0,0,1,0,1,0,0,0,hexagon,triangle,,,,,,,,,,,,,,,,,,,,,,,,,,,,,,,,,,,,,,,,,,,,,,,,,,,,,,
293068,2022-10-06_09h00.19.351,vts_reward_expectancy,2022.2.4,Win32,60.50338819,Chrome,1500,1000,,,a,1.4182,10,632,2,1,7,19,0,1,1,0,0,0,0,1,0,0,triangle,circle,,,,,,,,,,,,,,,,,,,,,,,,,,,,,,,,,,,,,,,,,,,,,,,,,,,,,,
293068,2022-10-06_09h00.19.351,vts_reward_expectancy,2022.2.4,Win32,60.50338819,Chrome,1500,1000,,,l,0.8889,1,633,2,1,8,20,2,1,1,0,0,0,0,0,0,1,triangle,star,,,,,,,,,,,,,,,,,,,,,,,,,,,,,,,,,,,,,,,,,,,,,,,,,,,,,,
293068,2022-10-06_09h00.19.351,vts_reward_expectancy,2022.2.4,Win32,60.50338819,Chrome,1500,1000,,,a,4.8903,10,643,2,1,9,21,11,1,0,0,0,1,0,0,1,0,star,hexagon,,,,,,,,,,,,,,,,,,,,,,,,,,,,,,,,,,,,,,,,,,,,,,,,,,,,,,
293068,2022-10-06_09h00.19.351,vts_reward_expectancy,2022.2.4,Win32,60.50338819,Chrome,1500,1000,,,l,1.6524,1,644,2,1,10,22,3,1,0,1,0,0,1,0,0,0,circle,triangle,,,,,,,,,,,,,,,,,,,,,,,,,,,,,,,,,,,,,,,,,,,,,,,,,,,,,,
293068,2022-10-06_09h00.19.351,vts_reward_expectancy,2022.2.4,Win32,60.50338819,Chrome,1500,1000,,,l,0.7187,10,654,2,1,11,23,1,1,1,0,0,0,0,0,1,0,triangle,hexagon,,,,,,,,,,,,,,,,,,,,,,,,,,,,,,,,,,,,,,,,,,,,,,,,,,,,,,
293068,2022-10-06_09h00.19.351,vts_reward_expectancy,2022.2.4,Win32,60.50338819,Chrome,1500,1000,,,l,1.2011,1,655,2,2,0,24,7,1,0,0,1,0,0,1,0,0,hexagon,circle,,,,,,,,,,,,,,,,,,,,,,,,,,,,,,,,,,,,,,,,,,,,,,,,,,,,,,
293068,2022-10-06_09h00.19.351,vts_reward_expectancy,2022.2.4,Win32,60.50338819,Chrome,1500,1000,,,l,0.7665,10,665,2,2,1,25,4,1,0,1,0,0,0,0,1,0,circle,hexagon,,,,,,,,,,,,,,,,,,,,,,,,,,,,,,,,,,,,,,,,,,,,,,,,,,,,,,
293068,2022-10-06_09h00.19.351,vts_reward_expectancy,2022.2.4,Win32,60.50338819,Chrome,1500,1000,,,a,1.3006,10,675,2,2,2,26,11,1,0,0,0,1,0,0,1,0,star,hexagon,,,,,,,,,,,,,,,,,,,,,,,,,,,,,,,,,,,,,,,,,,,,,,,,,,,,,,
293068,2022-10-06_09h00.19.351,vts_reward_expectancy,2022.2.4,Win32,60.50338819,Chrome,1500,1000,,,l,0.9674,1,676,2,2,3,27,5,1,0,1,0,0,0,0,0,1,circle,star,,,,,,,,,,,,,,,,,,,,,,,,,,,,,,,,,,,,,,,,,,,,,,,,,,,,,,
293068,2022-10-06_09h00.19.351,vts_reward_expectancy,2022.2.4,Win32,60.50338819,Chrome,1500,1000,,,l,1.05,1,677,2,2,4,28,3,1,0,1,0,0,1,0,0,0,circle,triangle,,,,,,,,,,,,,,,,,,,,,,,,,,,,,,,,,,,,,,,,,,,,,,,,,,,,,,
293068,2022-10-06_09h00.19.351,vts_reward_expectancy,2022.2.4,Win32,60.50338819,Chrome,1500,1000,,,l,1.4503,1,678,2,2,5,29,1,1,1,0,0,0,0,0,1,0,triangle,hexagon,,,,,,,,,,,,,,,,,,,,,,,,,,,,,,,,,,,,,,,,,,,,,,,,,,,,,,
293068,2022-10-06_09h00.19.351,vts_reward_expectancy,2022.2.4,Win32,60.50338819,Chrome,1500,1000,,,l,0.8166,10,688,2,2,6,30,8,1,0,0,1,0,0,0,0,1,hexagon,star,,,,,,,,,,,,,,,,,,,,,,,,,,,,,,,,,,,,,,,,,,,,,,,,,,,,,,
293068,2022-10-06_09h00.19.351,vts_reward_expectancy,2022.2.4,Win32,60.50338819,Chrome,1500,1000,,,l,1.7508,1,689,2,2,7,31,6,1,0,0,1,0,1,0,0,0,hexagon,triangle,,,,,,,,,,,,,,,,,,,,,,,,,,,,,,,,,,,,,,,,,,,,,,,,,,,,,,
293068,2022-10-06_09h00.19.351,vts_reward_expectancy,2022.2.4,Win32,60.50338819,Chrome,1500,1000,,,l,0.8009,10,699,2,2,8,32,2,1,1,0,0,0,0,0,0,1,triangle,star,,,,,,,,,,,,,,,,,,,,,,,,,,,,,,,,,,,,,,,,,,,,,,,,,,,,,,
293068,2022-10-06_09h00.19.351,vts_reward_expectancy,2022.2.4,Win32,60.50338819,Chrome,1500,1000,,,a,0.9372,1,700,2,2,9,33,0,1,1,0,0,0,0,1,0,0,triangle,circle,,,,,,,,,,,,,,,,,,,,,,,,,,,,,,,,,,,,,,,,,,,,,,,,,,,,,,
293068,2022-10-06_09h00.19.351,vts_reward_expectancy,2022.2.4,Win32,60.50338819,Chrome,1500,1000,,,l,1.9368,10,710,2,2,10,34,9,1,0,0,0,1,1,0,0,0,star,triangle,,,,,,,,,,,,,,,,,,,,,,,,,,,,,,,,,,,,,,,,,,,,,,,,,,,,,,
293068,2022-10-06_09h00.19.351,vts_reward_expectancy,2022.2.4,Win32,60.50338819,Chrome,1500,1000,,,a,1.2211,10,720,2,2,11,35,10,1,0,0,0,1,0,1,0,0,star ,circle,,,,,,,,,,,,,,,,,,,,,,,,,,,,,,,,,,,,,,,,,,,,,,,,,,,,,,
293068,2022-10-06_09h00.19.351,vts_reward_expectancy,2022.2.4,Win32,60.50338819,Chrome,1500,1000,,,,,,,,,,,,,,,,,,,,,,,146,Y,star,0,0,,0,0,0,0,0,1,,,,,,,,,,,,,,,,,,,,,,,,,,,,,,,,,,,,,,,,,,
293068,2022-10-06_09h00.19.351,vts_reward_expectancy,2022.2.4,Win32,60.50338819,Chrome,1500,1000,,,,,,,,,,,,,,,,,,,,,,,167,H,triangle,0,1,d,0,1,0,1,0,1,2.1559,,,,,,,,,,,,,,,,,,,,,,,,,,,,,,,,,,,,,,,,,
293068,2022-10-06_09h00.19.351,vts_reward_expectancy,2022.2.4,Win32,60.50338819,Chrome,1500,1000,,,,,,,,,,,,,,,,,,,,,,,181,S,circle,0,1,,0,2,0,2,0,1,,,,,,,,,,,,,,,,,,,,,,,,,,,,,,,,,,,,,,,,,,
293068,2022-10-06_09h00.19.351,vts_reward_expectancy,2022.2.4,Win32,60.50338819,Chrome,1500,1000,,,,,,,,,,,,,,,,,,,,,,,125,B,hexagon,1,1,d,0,3,0,3,0,1,2.1172,,,,,,,,,,,,,,,,,,,,,,,,,,,,,,,,,,,,,,,,,
293068,2022-10-06_09h00.19.351,vts_reward_expectancy,2022.2.4,Win32,60.50338819,Chrome,1500,1000,,,,,,,,,,,,,,,,,,,,,,,160,D,star,1,0,f,0,4,0,4,0,1,2.2363,,,,,,,,,,,,,,,,,,,,,,,,,,,,,,,,,,,,,,,,,
293068,2022-10-06_09h00.19.351,vts_reward_expectancy,2022.2.4,Win32,60.50338819,Chrome,1500,1000,,,,,,,,,,,,,,,,,,,,,,,174,F,triangle,1,0,f,0,5,0,5,0,1,1.7486,,,,,,,,,,,,,,,,,,,,,,,,,,,,,,,,,,,,,,,,,
293068,2022-10-06_09h00.19.351,vts_reward_expectancy,2022.2.4,Win32,60.50338819,Chrome,1500,1000,,,,,,,,,,,,,,,,,,,,,,,139,U,circle,1,0,d,0,6,0,6,0,1,1.1321,,,,,,,,,,,,,,,,,,,,,,,,,,,,,,,,,,,,,,,,,
293068,2022-10-06_09h00.19.351,vts_reward_expectancy,2022.2.4,Win32,60.50338819,Chrome,1500,1000,,,,,,,,,,,,,,,,,,,,,,,132,W,hexagon,1,0,d,0,7,0,7,0,1,2.6481,,,,,,,,,,,,,,,,,,,,,,,,,,,,,,,,,,,,,,,,,
293068,2022-10-06_09h00.19.351,vts_reward_expectancy,2022.2.4,Win32,60.50338819,Chrome,1500,1000,,,,,,,,,,,,,,,,,,,,,,,146,Y,circle,1,0,d,0,8,0,8,0,1,2.5837,,,,,,,,,,,,,,,,,,,,,,,,,,,,,,,,,,,,,,,,,
293068,2022-10-06_09h00.19.351,vts_reward_expectancy,2022.2.4,Win32,60.50338819,Chrome,1500,1000,,,,,,,,,,,,,,,,,,,,,,,167,H,hexagon,1,0,f,0,9,0,9,0,1,1.0679,,,,,,,,,,,,,,,,,,,,,,,,,,,,,,,,,,,,,,,,,
293068,2022-10-06_09h00.19.351,vts_reward_expectancy,2022.2.4,Win32,60.50338819,Chrome,1500,1000,,,,,,,,,,,,,,,,,,,,,,,181,W,hexagon,1,0,f,1,0,0,0,0,1,1.4506,,,,,,,,,,,,,,,,,,,,,,,,,,,,,,,,,,,,,,,,,
293068,2022-10-06_09h00.19.351,vts_reward_expectancy,2022.2.4,Win32,60.50338819,Chrome,1500,1000,,,,,,,,,,,,,,,,,,,,,,,160,B,star,1,0,f,1,1,0,1,0,1,1.4172,,,,,,,,,,,,,,,,,,,,,,,,,,,,,,,,,,,,,,,,,
293068,2022-10-06_09h00.19.351,vts_reward_expectancy,2022.2.4,Win32,60.50338819,Chrome,1500,1000,,,,,,,,,,,,,,,,,,,,,,,146,U,circle,1,0,d,1,2,0,2,0,1,1.7366,,,,,,,,,,,,,,,,,,,,,,,,,,,,,,,,,,,,,,,,,
293068,2022-10-06_09h00.19.351,vts_reward_expectancy,2022.2.4,Win32,60.50338819,Chrome,1500,1000,,,,,,,,,,,,,,,,,,,,,,,167,S,triangle,1,0,f,1,3,0,3,0,1,0.9835,,,,,,,,,,,,,,,,,,,,,,,,,,,,,,,,,,,,,,,,,
293068,2022-10-06_09h00.19.351,vts_reward_expectancy,2022.2.4,Win32,60.50338819,Chrome,1500,1000,,,,,,,,,,,,,,,,,,,,,,,132,Y,hexagon,1,0,d,1,4,0,4,0,1,1.0002,,,,,,,,,,,,,,,,,,,,,,,,,,,,,,,,,,,,,,,,,
293068,2022-10-06_09h00.19.351,vts_reward_expectancy,2022.2.4,Win32,60.50338819,Chrome,1500,1000,,,,,,,,,,,,,,,,,,,,,,,174,H,star,1,0,f,1,5,0,5,0,1,1.2997,,,,,,,,,,,,,,,,,,,,,,,,,,,,,,,,,,,,,,,,,
293068,2022-10-06_09h00.19.351,vts_reward_expectancy,2022.2.4,Win32,60.50338819,Chrome,1500,1000,,,,,,,,,,,,,,,,,,,,,,,139,D,circle,1,0,d,1,6,0,6,0,1,1.0508,,,,,,,,,,,,,,,,,,,,,,,,,,,,,,,,,,,,,,,,,
293068,2022-10-06_09h00.19.351,vts_reward_expectancy,2022.2.4,Win32,60.50338819,Chrome,1500,1000,,,,,,,,,,,,,,,,,,,,,,,125,F,triangle,0,0,,1,7,0,7,0,1,,,,,,,,,,,,,,,,,,,,,,,,,,,,,,,,,,,,,,,,,,
293068,2022-10-06_09h00.19.351,vts_reward_expectancy,2022.2.4,Win32,60.50338819,Chrome,1500,1000,,,,,,,,,,,,,,,,,,,,,,,181,W,circle,1,1,f,1,8,0,8,0,1,1.7332,,,,,,,,,,,,,,,,,,,,,,,,,,,,,,,,,,,,,,,,,
293068,2022-10-06_09h00.19.351,vts_reward_expectancy,2022.2.4,Win32,60.50338819,Chrome,1500,1000,,,,,,,,,,,,,,,,,,,,,,,160,B,star,1,0,f,1,9,0,9,0,1,1.6012,,,,,,,,,,,,,,,,,,,,,,,,,,,,,,,,,,,,,,,,,
293068,2022-10-06_09h00.19.351,vts_reward_expectancy,2022.2.4,Win32,60.50338819,Chrome,1500,1000,,,,,,,,,,,,,,,,,,,,,,,125,Y,triangle,1,0,,2,,,,,,,k,1.4839,0,0,0,0,1,,,,,,,,,,,,,,,,,,,,,,,,,,,,,,,,,,
293068,2022-10-06_09h00.19.351,vts_reward_expectancy,2022.2.4,Win32,60.50338819,Chrome,1500,1000,,,,,,,,,,,,,,,,,,,,,,,139,B,circle,1,0,,2,,,,,,,j,0.89,1,0,1,0,1,,,,,,,,,,,,,,,,,,,,,,,,,,,,,,,,,,
293068,2022-10-06_09h00.19.351,vts_reward_expectancy,2022.2.4,Win32,60.50338819,Chrome,1500,1000,,,,,,,,,,,,,,,,,,,,,,,167,U,star,1,0,,2,,,,,,,k,0.9177,2,0,2,0,1,,,,,,,,,,,,,,,,,,,,,,,,,,,,,,,,,,
293068,2022-10-06_09h00.19.351,vts_reward_expectancy,2022.2.4,Win32,60.50338819,Chrome,1500,1000,,,,,,,,,,,,,,,,,,,,,,,160,F,hexagon,1,0,,2,,,,,,,j,1.0166,3,0,3,0,1,,,,,,,,,,,,,,,,,,,,,,,,,,,,,,,,,,
293068,2022-10-06_09h00.19.351,vts_reward_expectancy,2022.2.4,Win32,60.50338819,Chrome,1500,1000,,,,,,,,,,,,,,,,,,,,,,,181,D,triangle,1,0,,2,,,,,,,j,0.9149,4,0,4,0,1,,,,,,,,,,,,,,,,,,,,,,,,,,,,,,,,,,
293068,2022-10-06_09h00.19.351,vts_reward_expectancy,2022.2.4,Win32,60.50338819,Chrome,1500,1000,,,,,,,,,,,,,,,,,,,,,,,132,H,circle,1,0,,2,,,,,,,j,1.1644,5,0,5,0,1,,,,,,,,,,,,,,,,,,,,,,,,,,,,,,,,,,
293068,2022-10-06_09h00.19.351,vts_reward_expectancy,2022.2.4,Win32,60.50338819,Chrome,1500,1000,,,,,,,,,,,,,,,,,,,,,,,174,S,star,1,0,,2,,,,,,,k,0.9639,6,0,6,0,1,,,,,,,,,,,,,,,,,,,,,,,,,,,,,,,,,,
293068,2022-10-06_09h00.19.351,vts_reward_expectancy,2022.2.4,Win32,60.50338819,Chrome,1500,1000,,,,,,,,,,,,,,,,,,,,,,,146,W,hexagon,1,0,,2,,,,,,,k,0.9807,7,0,7,0,1,,,,,,,,,,,,,,,,,,,,,,,,,,,,,,,,,,
293068,2022-10-06_09h00.19.351,vts_reward_expectancy,2022.2.4,Win32,60.50338819,Chrome,1500,1000,,,,,,,,,,,,,,,,,,,,,,,125,Y,star,1,0,,2,,,,,,,k,0.7491,8,0,8,0,1,,,,,,,,,,,,,,,,,,,,,,,,,,,,,,,,,,
293068,2022-10-06_09h00.19.351,vts_reward_expectancy,2022.2.4,Win32,60.50338819,Chrome,1500,1000,,,,,,,,,,,,,,,,,,,,,,,139,B,hexagon,1,0,,2,,,,,,,j,0.715,9,0,9,0,1,,,,,,,,,,,,,,,,,,,,,,,,,,,,,,,,,,
293068,2022-10-06_09h00.19.351,vts_reward_expectancy,2022.2.4,Win32,60.50338819,Chrome,1500,1000,,,,,0,720,,,,,,,,,,,,,,,,,139,F,circle,1,0,,3,,,,,,,,,,,,,,-1,number,NA,d,1.9411,vtsPrac,0,0,0,0,1,,,,,,,,,,,,,,,,,,,,,,,
293068,2022-10-06_09h00.19.351,vts_reward_expectancy,2022.2.4,Win32,60.50338819,Chrome,1500,1000,,,,,0,720,,,,,,,,,,,,,,,,,132,B,star,1,0,,3,,,,,,,,,,,,,,repeat,number,numRpt,d,1.8082,vtsPrac,1,0,1,0,1,,,,,,,,,,,,,,,,,,,,,,,
293068,2022-10-06_09h00.19.351,vts_reward_expectancy,2022.2.4,Win32,60.50338819,Chrome,1500,1000,,,,,0,720,,,,,,,,,,,,,,,,,125,W,circle,1,0,,3,,,,,,,,,,,,,,switch,letter,lettSwt,k,1.3171,vtsPrac,2,0,2,0,1,,,,,,,,,,,,,,,,,,,,,,,
293068,2022-10-06_09h00.19.351,vts_reward_expectancy,2022.2.4,Win32,60.50338819,Chrome,1500,1000,,,,,0,720,,,,,,,,,,,,,,,,,160,Y,star,1,0,,3,,,,,,,,,,,,,,repeat,letter,lettRpt,k,1.1189,vtsPrac,3,0,3,0,1,,,,,,,,,,,,,,,,,,,,,,,
293068,2022-10-06_09h00.19.351,vts_reward_expectancy,2022.2.4,Win32,60.50338819,Chrome,1500,1000,,,,,0,720,,,,,,,,,,,,,,,,,139,F,star,1,0,,3,,,,,,,,,,,,,,switch,number,numSwt,d,1.2346,vtsPrac,4,0,4,0,1,,,,,,,,,,,,,,,,,,,,,,,
293068,2022-10-06_09h00.19.351,vts_reward_expectancy,2022.2.4,Win32,60.50338819,Chrome,1500,1000,,,,,0,720,,,,,,,,,,,,,,,,,132,B,triangle,1,0,,3,,,,,,,,,,,,,,repeat,number,numRpt,d,0.9838,vtsPrac,5,0,5,0,1,,,,,,,,,,,,,,,,,,,,,,,
293068,2022-10-06_09h00.19.351,vts_reward_expectancy,2022.2.4,Win32,60.50338819,Chrome,1500,1000,,,,,0,720,,,,,,,,,,,,,,,,,125,W,triangle,1,0,,3,,,,,,,,,,,,,,switch,letter,lettSwt,k,1.1252,vtsPrac,6,0,6,0,1,,,,,,,,,,,,,,,,,,,,,,,
293068,2022-10-06_09h00.19.351,vts_reward_expectancy,2022.2.4,Win32,60.50338819,Chrome,1500,1000,,,,,0,720,,,,,,,,,,,,,,,,,160,Y,star,1,0,,3,,,,,,,,,,,,,,repeat,letter,lettRpt,k,0.9063,vtsPrac,7,0,7,0,1,,,,,,,,,,,,,,,,,,,,,,,
293068,2022-10-06_09h00.19.351,vts_reward_expectancy,2022.2.4,Win32,60.50338819,Chrome,1500,1000,,,,,0,720,,,,,,,,,,,,,,,,,139,U,triangle,1,0,,3,,,,,,,,,,,,,,switch,number,numSwt,d,1.1008,vtsPrac,8,0,8,0,1,,,,,,,,,,,,,,,,,,,,,,,
293068,2022-10-06_09h00.19.351,vts_reward_expectancy,2022.2.4,Win32,60.50338819,Chrome,1500,1000,,,,,0,720,,,,,,,,,,,,,,,,,174,S,circle,1,0,,3,,,,,,,,,,,,,,switch,letter,lettSwt,k,0.9665,vtsPrac,9,0,9,0,1,,,,,,,,,,,,,,,,,,,,,,,
293068,2022-10-06_09h00.19.351,vts_reward_expectancy,2022.2.4,Win32,60.50338819,Chrome,1500,1000,,,,,0,720,,,,,,,,,,,,,,,,,160,F,circle,1,0,,3,,,,,,,,,,,,,,switch,number,numSwt,f,0.9165,vtsPrac,10,0,10,0,1,,,,,,,,,,,,,,,,,,,,,,,
293068,2022-10-06_09h00.19.351,vts_reward_expectancy,2022.2.4,Win32,60.50338819,Chrome,1500,1000,,,,,0,720,,,,,,,,,,,,,,,,,132,W,star,1,0,,3,,,,,,,,,,,,,,repeat,number,numRpt,d,1.3679,vtsPrac,11,0,11,0,1,,,,,,,,,,,,,,,,,,,,,,,
293068,2022-10-06_09h00.19.351,vts_reward_expectancy,2022.2.4,Win32,60.50338819,Chrome,1500,1000,,,,,0,720,,,,,,,,,,,,,,,,,174,H,triangle,1,0,,3,,,,,,,,,,,,,,repeat,number,numRpt,f,1.0335,vtsPrac,12,0,12,0,1,,,,,,,,,,,,,,,,,,,,,,,
293068,2022-10-06_09h00.19.351,vts_reward_expectancy,2022.2.4,Win32,60.50338819,Chrome,1500,1000,,,,,0,720,,,,,,,,,,,,,,,,,139,F,hexagon,1,0,,3,,,,,,,,,,,,,,switch,letter,lettSwt,j,1.1328,vtsPrac,13,0,13,0,1,,,,,,,,,,,,,,,,,,,,,,,
293068,2022-10-06_09h00.19.351,vts_reward_expectancy,2022.2.4,Win32,60.50338819,Chrome,1500,1000,,,,,0,720,,,,,,,,,,,,,,,,,167,B,star,1,0,,3,,,,,,,,,,,,,,repeat,letter,lettRpt,j,1.1299,vtsPrac,14,0,14,0,1,,,,,,,,,,,,,,,,,,,,,,,
293068,2022-10-06_09h00.19.351,vts_reward_expectancy,2022.2.4,Win32,60.50338819,Chrome,1500,1000,,,,,0,720,,,,,,,,,,,,,,,,,125,S,circle,1,0,,3,,,,,,,,,,,,,,switch,number,numSwt,d,0.9303,vtsPrac,15,0,15,0,1,,,,,,,,,,,,,,,,,,,,,,,
293068,2022-10-06_09h00.19.351,vts_reward_expectancy,2022.2.4,Win32,60.50338819,Chrome,1500,1000,,,,,,,,,,,,,,,,,,,,,,,,,,,,,,,,,,,,,,,,,,,,,,,,,,,,,,,,,,,,,,,,,,,,,,,,,,,,
293068,2022-10-06_09h00.19.351,vts_reward_expectancy,2022.2.4,Win32,60.50338819,Chrome,1500,1000,,,,,,,,,,,,,,,,,,,,,,,,,,,,,,,,,,,,,,,,,,,,,,,,,,,,,,,,,,,,,,,,,,,,,,,,,,,,
293068,2022-10-06_09h00.19.351,vts_reward_expectancy,2022.2.4,Win32,60.50338819,Chrome,1500,1000,,,,,0,720,,,,,,,,,,,,,,,,,181,F,hexagon,1,0,,,,,,,,,,,,,,,,switch,letter,lettSwt,j,0.8458,noRew,,,,,,0,0,0,0,0,1,,,,,,,,,,,,,,,,,
293068,2022-10-06_09h00.19.351,vts_reward_expectancy,2022.2.4,Win32,60.50338819,Chrome,1500,1000,,,,,0,720,,,,,,,,,,,,,,,,,125,S,star,1,0,,,,,,,,,,,,,,,,repeat,letter,lettRpt,k,0.8134,noRew,,,,,,0,1,0,1,0,1,,,,,,,,,,,,,,,,,
293068,2022-10-06_09h00.19.351,vts_reward_expectancy,2022.2.4,Win32,60.50338819,Chrome,1500,1000,,,,,0,720,,,,,,,,,,,,,,,,,167,H,hexagon,1,0,,,,,,,,,,,,,,,,switch,number,numSwt,f,0.7485,noRew,,,,,,0,2,0,2,0,1,,,,,,,,,,,,,,,,,
293068,2022-10-06_09h00.19.351,vts_reward_expectancy,2022.2.4,Win32,60.50338819,Chrome,1500,1000,,,,,0,720,,,,,,,,,,,,,,,,,174,B,star,1,0,,,,,,,,,,,,,,,,switch,letter,lettSwt,j,0.9485,noRew,,,,,,0,3,0,3,0,1,,,,,,,,,,,,,,,,,
293068,2022-10-06_09h00.19.351,vts_reward_expectancy,2022.2.4,Win32,60.50338819,Chrome,1500,1000,,,,,0,720,,,,,,,,,,,,,,,,,181,F,triangle,1,0,,,,,,,,,,,,,,,,repeat,letter,lettRpt,j,0.681,noRew,,,,,,0,4,0,4,0,1,,,,,,,,,,,,,,,,,
293068,2022-10-06_09h00.19.351,vts_reward_expectancy,2022.2.4,Win32,60.50338819,Chrome,1500,1000,,,,,0,720,,,,,,,,,,,,,,,,,125,S,circle,1,0,,,,,,,,,,,,,,,,switch,number,numSwt,d,1.1302,noRew,,,,,,0,5,0,5,0,1,,,,,,,,,,,,,,,,,
293068,2022-10-06_09h00.19.351,vts_reward_expectancy,2022.2.4,Win32,60.50338819,Chrome,1500,1000,,,,,0,720,,,,,,,,,,,,,,,,,167,H,triangle,1,0,,,,,,,,,,,,,,,,repeat,number,numRpt,f,0.6179,noRew,,,,,,0,6,0,6,0,1,,,,,,,,,,,,,,,,,
293068,2022-10-06_09h00.19.351,vts_reward_expectancy,2022.2.4,Win32,60.50338819,Chrome,1500,1000,,,,,0,720,,,,,,,,,,,,,,,,,174,B,circle,1,0,,,,,,,,,,,,,,,,repeat,number,numRpt,f,0.7647,noRew,,,,,,0,7,0,7,0,1,,,,,,,,,,,,,,,,,
293068,2022-10-06_09h00.19.351,vts_reward_expectancy,2022.2.4,Win32,60.50338819,Chrome,1500,1000,,,,,0,720,,,,,,,,,,,,,,,,,139,U,hexagon,1,0,,,,,,,,,,,,,,,,switch,letter,lettSwt,k,1.4139,noRew,,,,,,0,8,0,8,0,1,,,,,,,,,,,,,,,,,
293068,2022-10-06_09h00.19.351,vts_reward_expectancy,2022.2.4,Win32,60.50338819,Chrome,1500,1000,,,,,0,720,,,,,,,,,,,,,,,,,146,B,star,0,0,,,,,,,,,,,,,,,,switch,number,NA,f,1.4375,noRew,,,,,,0,9,0,9,0,1,,,,,,,,,,,,,,,,,
293068,2022-10-06_09h00.19.351,vts_reward_expectancy,2022.2.4,Win32,60.50338819,Chrome,1500,1000,,,,,0,720,,,,,,,,,,,,,,,,,125,D,star,1,1,,,,,,,,,,,,,,,,repeat,number,numRpt,d,0.8318,noRew,,,,,,0,10,0,10,0,1,,,,,,,,,,,,,,,,,
293068,2022-10-06_09h00.19.351,vts_reward_expectancy,2022.2.4,Win32,60.50338819,Chrome,1500,1000,,,,,0,720,,,,,,,,,,,,,,,,,167,W,triangle,1,0,,,,,,,,,,,,,,,,switch,letter,lettSwt,k,0.8309,noRew,,,,,,0,11,0,11,0,1,,,,,,,,,,,,,,,,,
293068,2022-10-06_09h00.19.351,vts_reward_expectancy,2022.2.4,Win32,60.50338819,Chrome,1500,1000,,,,,0,720,,,,,,,,,,,,,,,,,132,F,star,1,0,,,,,,,,,,,,,,,,switch,number,numSwt,d,1.0807,noRew,,,,,,0,12,0,12,0,1,,,,,,,,,,,,,,,,,
293068,2022-10-06_09h00.19.351,vts_reward_expectancy,2022.2.4,Win32,60.50338819,Chrome,1500,1000,,,,,0,720,,,,,,,,,,,,,,,,,160,S,hexagon,1,0,,,,,,,,,,,,,,,,switch,letter,lettSwt,k,0.8811,noRew,,,,,,0,13,0,13,0,1,,,,,,,,,,,,,,,,,
293068,2022-10-06_09h00.19.351,vts_reward_expectancy,2022.2.4,Win32,60.50338819,Chrome,1500,1000,,,,,0,720,,,,,,,,,,,,,,,,,174,U,triangle,1,0,,,,,,,,,,,,,,,,repeat,letter,lettRpt,k,1.1802,noRew,,,,,,0,14,0,14,0,1,,,,,,,,,,,,,,,,,
293068,2022-10-06_09h00.19.351,vts_reward_expectancy,2022.2.4,Win32,60.50338819,Chrome,1500,1000,,,,,0,720,,,,,,,,,,,,,,,,,146,D,star,1,0,,,,,,,,,,,,,,,,switch,number,numSwt,d,1.7144,noRew,,,,,,0,15,0,15,0,1,,,,,,,,,,,,,,,,,
293068,2022-10-06_09h00.19.351,vts_reward_expectancy,2022.2.4,Win32,60.50338819,Chrome,1500,1000,,,,,0,720,,,,,,,,,,,,,,,,,146,Y,triangle,1,0,,,,,,,,,,,,,,,,repeat,number,numRpt,d,0.787,noRew,,,,,,0,16,0,16,0,1,,,,,,,,,,,,,,,,,
293068,2022-10-06_09h00.19.351,vts_reward_expectancy,2022.2.4,Win32,60.50338819,Chrome,1500,1000,,,,,0,720,,,,,,,,,,,,,,,,,160,D,hexagon,1,0,,,,,,,,,,,,,,,,switch,letter,lettSwt,j,1.1189,noRew,,,,,,0,17,0,17,0,1,,,,,,,,,,,,,,,,,
293068,2022-10-06_09h00.19.351,vts_reward_expectancy,2022.2.4,Win32,60.50338819,Chrome,1500,1000,,,,,0,720,,,,,,,,,,,,,,,,,132,W,star,1,0,,,,,,,,,,,,,,,,repeat,letter,lettRpt,k,0.8666,noRew,,,,,,0,18,0,18,0,1,,,,,,,,,,,,,,,,,
293068,2022-10-06_09h00.19.351,vts_reward_expectancy,2022.2.4,Win32,60.50338819,Chrome,1500,1000,,,,,0,720,,,,,,,,,,,,,,,,,139,H,circle,1,0,,,,,,,,,,,,,,,,switch,number,numSwt,d,1.2643,noRew,,,,,,0,19,0,19,0,1,,,,,,,,,,,,,,,,,
293068,2022-10-06_09h00.19.351,vts_reward_expectancy,2022.2.4,Win32,60.50338819,Chrome,1500,1000,,,,,0,720,,,,,,,,,,,,,,,,,181,H,triangle,1,0,,,,,,,,,,,,,,,,repeat,number,numRpt,f,0.7162,noRew,,,,,,0,20,0,20,0,1,,,,,,,,,,,,,,,,,
293068,2022-10-06_09h00.19.351,vts_reward_expectancy,2022.2.4,Win32,60.50338819,Chrome,1500,1000,,,,,0,720,,,,,,,,,,,,,,,,,139,S,circle,1,0,,,,,,,,,,,,,,,,repeat,number,numRpt,d,1.3327,noRew,,,,,,0,21,0,21,0,1,,,,,,,,,,,,,,,,,
293068,2022-10-06_09h00.19.351,vts_reward_expectancy,2022.2.4,Win32,60.50338819,Chrome,1500,1000,,,,,0,720,,,,,,,,,,,,,,,,,167,D,star,1,0,,,,,,,,,,,,,,,,switch,letter,lettSwt,j,0.7981,noRew,,,,,,0,22,0,22,0,1,,,,,,,,,,,,,,,,,
293068,2022-10-06_09h00.19.351,vts_reward_expectancy,2022.2.4,Win32,60.50338819,Chrome,1500,1000,,,,,0,720,,,,,,,,,,,,,,,,,146,U,hexagon,1,0,,,,,,,,,,,,,,,,switch,number,numSwt,d,1.0651,noRew,,,,,,0,23,0,23,0,1,,,,,,,,,,,,,,,,,
293068,2022-10-06_09h00.19.351,vts_reward_expectancy,2022.2.4,Win32,60.50338819,Chrome,1500,1000,,,,,0,720,,,,,,,,,,,,,,,,,160,U,hexagon,1,0,,,,,,,,,,,,,,,,switch,letter,lettSwt,k,1.0497,noRew,,,,,,0,24,0,24,0,1,,,,,,,,,,,,,,,,,
293068,2022-10-06_09h00.19.351,vts_reward_expectancy,2022.2.4,Win32,60.50338819,Chrome,1500,1000,,,,,0,720,,,,,,,,,,,,,,,,,125,W,triangle,1,0,,,,,,,,,,,,,,,,repeat,letter,lettRpt,k,0.7973,noRew,,,,,,0,25,0,25,0,1,,,,,,,,,,,,,,,,,
293068,2022-10-06_09h00.19.351,vts_reward_expectancy,2022.2.4,Win32,60.50338819,Chrome,1500,1000,,,,,0,720,,,,,,,,,,,,,,,,,174,B,triangle,1,0,,,,,,,,,,,,,,,,switch,number,numSwt,f,0.9989,noRew,,,,,,0,26,0,26,0,1,,,,,,,,,,,,,,,,,
293068,2022-10-06_09h00.19.351,vts_reward_expectancy,2022.2.4,Win32,60.50338819,Chrome,1500,1000,,,,,0,720,,,,,,,,,,,,,,,,,146,S,circle,1,0,,,,,,,,,,,,,,,,repeat,number,numRpt,d,1.4558,noRew,,,,,,0,27,0,27,0,1,,,,,,,,,,,,,,,,,
293068,2022-10-06_09h00.19.351,vts_reward_expectancy,2022.2.4,Win32,60.50338819,Chrome,1500,1000,,,,,0,720,,,,,,,,,,,,,,,,,132,F,star,1,0,,,,,,,,,,,,,,,,switch,letter,lettSwt,j,0.8142,noRew,,,,,,0,28,0,28,0,1,,,,,,,,,,,,,,,,,
293068,2022-10-06_09h00.19.351,vts_reward_expectancy,2022.2.4,Win32,60.50338819,Chrome,1500,1000,,,,,0,720,,,,,,,,,,,,,,,,,146,D,triangle,1,0,,,,,,,,,,,,,,,,switch,number,numSwt,d,0.7216,noRew,,,,,,0,29,0,29,0,1,,,,,,,,,,,,,,,,,
293068,2022-10-06_09h00.19.351,vts_reward_expectancy,2022.2.4,Win32,60.50338819,Chrome,1500,1000,,,,,0,720,,,,,,,,,,,,,,,,,167,S,triangle,1,0,,,,,,,,,,,,,,,,repeat,number,numRpt,f,0.8184,noRew,,,,,,0,30,0,30,0,1,,,,,,,,,,,,,,,,,
293068,2022-10-06_09h00.19.351,vts_reward_expectancy,2022.2.4,Win32,60.50338819,Chrome,1500,1000,,,,,0,720,,,,,,,,,,,,,,,,,174,B,circle,1,0,,,,,,,,,,,,,,,,switch,letter,lettSwt,j,0.7976,noRew,,,,,,0,31,0,31,0,1,,,,,,,,,,,,,,,,,
293068,2022-10-06_09h00.19.351,vts_reward_expectancy,2022.2.4,Win32,60.50338819,Chrome,1500,1000,,,,,0,720,,,,,,,,,,,,,,,,,125,W,circle,1,0,,,,,,,,,,,,,,,,repeat,letter,lettRpt,k,0.7178,noRew,,,,,,0,32,0,32,0,1,,,,,,,,,,,,,,,,,
293068,2022-10-06_09h00.19.351,vts_reward_expectancy,2022.2.4,Win32,60.50338819,Chrome,1500,1000,,,,,0,720,,,,,,,,,,,,,,,,,160,H,hexagon,1,0,,,,,,,,,,,,,,,,repeat,letter,lettRpt,j,0.9312,noRew,,,,,,0,33,0,33,0,1,,,,,,,,,,,,,,,,,
293068,2022-10-06_09h00.19.351,vts_reward_expectancy,2022.2.4,Win32,60.50338819,Chrome,1500,1000,,,,,0,720,,,,,,,,,,,,,,,,,181,B,triangle,1,0,,,,,,,,,,,,,,,,repeat,letter,lettRpt,j,0.7311,noRew,,,,,,0,34,0,34,0,1,,,,,,,,,,,,,,,,,
293068,2022-10-06_09h00.19.351,vts_reward_expectancy,2022.2.4,Win32,60.50338819,Chrome,1500,1000,,,,,0,720,,,,,,,,,,,,,,,,,174,S,hexagon,1,0,,,,,,,,,,,,,,,,switch,number,numSwt,f,0.8121,noRew,,,,,,0,35,0,35,0,1,,,,,,,,,,,,,,,,,
293068,2022-10-06_09h00.19.351,vts_reward_expectancy,2022.2.4,Win32,60.50338819,Chrome,1500,1000,,,,,0,720,,,,,,,,,,,,,,,,,160,F,circle,1,0,,,,,,,,,,,,,,,,repeat,number,numRpt,f,1.3969,noRew,,,,,,0,36,0,36,0,1,,,,,,,,,,,,,,,,,
293068,2022-10-06_09h00.19.351,vts_reward_expectancy,2022.2.4,Win32,60.50338819,Chrome,1500,1000,,,,,0,720,,,,,,,,,,,,,,,,,125,U,hexagon,1,0,,,,,,,,,,,,,,,,switch,letter,lettSwt,k,1.1972,noRew,,,,,,0,37,0,37,0,1,,,,,,,,,,,,,,,,,
293068,2022-10-06_09h00.19.351,vts_reward_expectancy,2022.2.4,Win32,60.50338819,Chrome,1500,1000,,,,,0,720,,,,,,,,,,,,,,,,,181,H,triangle,1,0,,,,,,,,,,,,,,,,switch,number,numSwt,f,0.8138,noRew,,,,,,0,38,0,38,0,1,,,,,,,,,,,,,,,,,
293068,2022-10-06_09h00.19.351,vts_reward_expectancy,2022.2.4,Win32,60.50338819,Chrome,1500,1000,,,,,0,720,,,,,,,,,,,,,,,,,146,W,circle,1,0,,,,,,,,,,,,,,,,switch,letter,lettSwt,k,0.7312,noRew,,,,,,0,39,0,39,0,1,,,,,,,,,,,,,,,,,
293068,2022-10-06_09h00.19.351,vts_reward_expectancy,2022.2.4,Win32,60.50338819,Chrome,1500,1000,,,,,0,720,,,,,,,,,,,,,,,,,139,H,triangle,1,0,,,,,,,,,,,,,,,,repeat,letter,lettRpt,j,1.4143,noRew,,,,,,0,40,0,40,0,1,,,,,,,,,,,,,,,,,
293068,2022-10-06_09h00.19.351,vts_reward_expectancy,2022.2.4,Win32,60.50338819,Chrome,1500,1000,,,,,0,720,,,,,,,,,,,,,,,,,146,Y,star,1,0,,,,,,,,,,,,,,,,switch,number,numSwt,d,1.298,noRew,,,,,,0,41,0,41,0,1,,,,,,,,,,,,,,,,,
293068,2022-10-06_09h00.19.351,vts_reward_expectancy,2022.2.4,Win32,60.50338819,Chrome,1500,1000,,,,,0,720,,,,,,,,,,,,,,,,,160,F,triangle,1,0,,,,,,,,,,,,,,,,repeat,number,numRpt,f,0.9472,noRew,,,,,,0,42,0,42,0,1,,,,,,,,,,,,,,,,,
293068,2022-10-06_09h00.19.351,vts_reward_expectancy,2022.2.4,Win32,60.50338819,Chrome,1500,1000,,,,,0,720,,,,,,,,,,,,,,,,,181,B,circle,1,0,,,,,,,,,,,,,,,,switch,letter,lettSwt,j,0.7492,noRew,,,,,,0,43,0,43,0,1,,,,,,,,,,,,,,,,,
293068,2022-10-06_09h00.19.351,vts_reward_expectancy,2022.2.4,Win32,60.50338819,Chrome,1500,1000,,,,,0,720,,,,,,,,,,,,,,,,,146,B,circle,1,0,,,,,,,,,,,,,,,,repeat,letter,lettRpt,j,0.6192,noRew,,,,,,0,44,0,44,0,1,,,,,,,,,,,,,,,,,
293068,2022-10-06_09h00.19.351,vts_reward_expectancy,2022.2.4,Win32,60.50338819,Chrome,1500,1000,,,,,0,720,,,,,,,,,,,,,,,,,132,W,triangle,1,0,,,,,,,,,,,,,,,,repeat,letter,lettRpt,k,1.198,noRew,,,,,,0,45,0,45,0,1,,,,,,,,,,,,,,,,,
293068,2022-10-06_09h00.19.351,vts_reward_expectancy,2022.2.4,Win32,60.50338819,Chrome,1500,1000,,,,,0,720,,,,,,,,,,,,,,,,,139,U,star,1,0,,,,,,,,,,,,,,,,switch,number,numSwt,d,1.149,noRew,,,,,,0,46,0,46,0,1,,,,,,,,,,,,,,,,,
293068,2022-10-06_09h00.19.351,vts_reward_expectancy,2022.2.4,Win32,60.50338819,Chrome,1500,1000,,,,,0,720,,,,,,,,,,,,,,,,,125,S,hexagon,1,0,,,,,,,,,,,,,,,,repeat,number,numRpt,d,0.7678,noRew,,,,,,0,47,0,47,0,1,,,,,,,,,,,,,,,,,
293068,2022-10-06_09h00.19.351,vts_reward_expectancy,2022.2.4,Win32,60.50338819,Chrome,1500,1000,,,,,0,720,,,,,,,,,,,,,,,,,139,Y,triangle,1,0,,,,,,,,,,,,,,,,switch,letter,lettSwt,k,0.864,noRew,,,,,,0,48,0,48,0,1,,,,,,,,,,,,,,,,,
293068,2022-10-06_09h00.19.351,vts_reward_expectancy,2022.2.4,Win32,60.50338819,Chrome,1500,1000,,,,,0,720,,,,,,,,,,,,,,,,,125,S,hexagon,1,0,,,,,,,,,,,,,,,,repeat,letter,lettRpt,k,1.115,noRew,,,,,,0,49,0,49,0,1,,,,,,,,,,,,,,,,,
293068,2022-10-06_09h00.19.351,vts_reward_expectancy,2022.2.4,Win32,60.50338819,Chrome,1500,1000,,,,,0,720,,,,,,,,,,,,,,,,,132,B,star,1,0,,,,,,,,,,,,,,,,switch,number,numSwt,d,1.3187,noRew,,,,,,0,50,0,50,0,1,,,,,,,,,,,,,,,,,
293068,2022-10-06_09h00.19.351,vts_reward_expectancy,2022.2.4,Win32,60.50338819,Chrome,1500,1000,,,,,0,720,,,,,,,,,,,,,,,,,146,U,hexagon,1,0,,,,,,,,,,,,,,,,repeat,number,numRpt,d,0.8495,noRew,,,,,,0,51,0,51,0,1,,,,,,,,,,,,,,,,,
293068,2022-10-06_09h00.19.351,vts_reward_expectancy,2022.2.4,Win32,60.50338819,Chrome,1500,1000,,,,,0,720,,,,,,,,,,,,,,,,,132,Y,triangle,1,0,,,,,,,,,,,,,,,,repeat,number,numRpt,d,0.881,noRew,,,,,,0,52,0,52,0,1,,,,,,,,,,,,,,,,,
293068,2022-10-06_09h00.19.351,vts_reward_expectancy,2022.2.4,Win32,60.50338819,Chrome,1500,1000,,,,,0,720,,,,,,,,,,,,,,,,,160,S,star,1,0,,,,,,,,,,,,,,,,switch,letter,lettSwt,k,0.8631,noRew,,,,,,0,53,0,53,0,1,,,,,,,,,,,,,,,,,
293068,2022-10-06_09h00.19.351,vts_reward_expectancy,2022.2.4,Win32,60.50338819,Chrome,1500,1000,,,,,0,720,,,,,,,,,,,,,,,,,181,D,circle,1,0,,,,,,,,,,,,,,,,switch,number,numSwt,f,1.0331,noRew,,,,,,0,54,0,54,0,1,,,,,,,,,,,,,,,,,
293068,2022-10-06_09h00.19.351,vts_reward_expectancy,2022.2.4,Win32,60.50338819,Chrome,1500,1000,,,,,0,720,,,,,,,,,,,,,,,,,174,F,star,1,0,,,,,,,,,,,,,,,,switch,letter,lettSwt,j,1.1657,noRew,,,,,,0,55,0,55,0,1,,,,,,,,,,,,,,,,,
293068,2022-10-06_09h00.19.351,vts_reward_expectancy,2022.2.4,Win32,60.50338819,Chrome,1500,1000,,,,,0,720,,,,,,,,,,,,,,,,,139,H,triangle,1,0,,,,,,,,,,,,,,,,repeat,letter,lettRpt,j,0.8482,noRew,,,,,,0,56,0,56,0,1,,,,,,,,,,,,,,,,,
293068,2022-10-06_09h00.19.351,vts_reward_expectancy,2022.2.4,Win32,60.50338819,Chrome,1500,1000,,,,,0,720,,,,,,,,,,,,,,,,,167,D,star,1,0,,,,,,,,,,,,,,,,repeat,letter,lettRpt,j,0.8502,noRew,,,,,,0,57,0,57,0,1,,,,,,,,,,,,,,,,,
293068,2022-10-06_09h00.19.351,vts_reward_expectancy,2022.2.4,Win32,60.50338819,Chrome,1500,1000,,,,,0,720,,,,,,,,,,,,,,,,,174,Y,hexagon,1,0,,,,,,,,,,,,,,,,switch,number,numSwt,f,0.971,noRew,,,,,,0,58,0,58,0,1,,,,,,,,,,,,,,,,,
293068,2022-10-06_09h00.19.351,vts_reward_expectancy,2022.2.4,Win32,60.50338819,Chrome,1500,1000,,,,,0,720,,,,,,,,,,,,,,,,,181,B,triangle,1,0,,,,,,,,,,,,,,,,repeat,number,numRpt,f,0.9643,noRew,,,,,,0,59,0,59,0,1,,,,,,,,,,,,,,,,,
293068,2022-10-06_09h00.19.351,vts_reward_expectancy,2022.2.4,Win32,60.50338819,Chrome,1500,1000,,,,,0,720,,,,,,,,,,,,,,,,,181,H,star,1,0,,,,,,,,,,,,,,,,switch,letter,lettSwt,j,0.6339,noRew,,,,,,0,60,0,60,0,1,,,,,,,,,,,,,,,,,
293068,2022-10-06_09h00.19.351,vts_reward_expectancy,2022.2.4,Win32,60.50338819,Chrome,1500,1000,,,,,0,720,,,,,,,,,,,,,,,,,146,S,circle,1,0,,,,,,,,,,,,,,,,repeat,letter,lettRpt,k,1.1483,noRew,,,,,,0,61,0,61,0,1,,,,,,,,,,,,,,,,,
293068,2022-10-06_09h00.19.351,vts_reward_expectancy,2022.2.4,Win32,60.50338819,Chrome,1500,1000,,,,,0,720,,,,,,,,,,,,,,,,,132,D,star,1,0,,,,,,,,,,,,,,,,repeat,letter,lettRpt,j,0.7483,noRew,,,,,,0,62,0,62,0,1,,,,,,,,,,,,,,,,,
293068,2022-10-06_09h00.19.351,vts_reward_expectancy,2022.2.4,Win32,60.50338819,Chrome,1500,1000,,,,,0,720,,,,,,,,,,,,,,,,,160,U,triangle,1,0,,,,,,,,,,,,,,,,switch,number,numSwt,f,0.6985,noRew,,,,,,0,63,0,63,0,1,,,,,,,,,,,,,,,,,
293068,2022-10-06_09h00.19.351,vts_reward_expectancy,2022.2.4,Win32,60.50338819,Chrome,1500,1000,,,,,,,,,,,,,,,,,,,,,,,,,,,,,,,,,,,,,,,,,,,,,,,,,,,,,,,,,,,,,,,,,,,,,,,,,,,,
293068,2022-10-06_09h00.19.351,vts_reward_expectancy,2022.2.4,Win32,60.50338819,Chrome,1500,1000,,,,,0,720,,,,,,,,,,,,,,,,,146,Y,triangle,1,0,,,,,,,,,,,,,,,,repeat,number,numRpt,d,1.5604,Hi,,,,,,0,,,,,,space,4.5566,low,0,0,0,0,1,,,,,,,,,
293068,2022-10-06_09h00.19.351,vts_reward_expectancy,2022.2.4,Win32,60.50338819,Chrome,1500,1000,,,,,10,730,,,,,,,,,,,,,,,,,167,B,hexagon,1,0,,,,,,,,,,,,,,,,repeat,number,numRpt,f,0.7442,Lo,,,,,,0,,,,,,,,low,1,0,1,0,1,,,,,,,,,
293068,2022-10-06_09h00.19.351,vts_reward_expectancy,2022.2.4,Win32,60.50338819,Chrome,1500,1000,,,,,0,730,,,,,,,,,,,,,,,,,125,S,triangle,1,0,,,,,,,,,,,,,,,,repeat,number,numRpt,d,0.7983,Hi,,,,,,0,,,,,,,,low,2,0,2,0,1,,,,,,,,,
293068,2022-10-06_09h00.19.351,vts_reward_expectancy,2022.2.4,Win32,60.50338819,Chrome,1500,1000,,,,,1,731,,,,,,,,,,,,,,,,,174,D,hexagon,1,0,,,,,,,,,,,,,,,,switch,letter,lettSwt,j,0.6943,Lo,,,,,,0,,,,,,,,low,3,0,3,0,1,,,,,,,,,
293068,2022-10-06_09h00.19.351,vts_reward_expectancy,2022.2.4,Win32,60.50338819,Chrome,1500,1000,,,,,10,741,,,,,,,,,,,,,,,,,132,F,triangle,1,0,,,,,,,,,,,,,,,,switch,number,numSwt,d,0.8013,Hi,,,,,,0,,,,,,,,low,4,0,4,0,1,,,,,,,,,
293068,2022-10-06_09h00.19.351,vts_reward_expectancy,2022.2.4,Win32,60.50338819,Chrome,1500,1000,,,,,10,751,,,,,,,,,,,,,,,,,139,H,hexagon,1,0,,,,,,,,,,,,,,,,switch,letter,lettSwt,j,0.5665,Lo,,,,,,0,,,,,,,,low,5,0,5,0,1,,,,,,,,,
293068,2022-10-06_09h00.19.351,vts_reward_expectancy,2022.2.4,Win32,60.50338819,Chrome,1500,1000,,,,,1,752,,,,,,,,,,,,,,,,,181,U,triangle,1,0,,,,,,,,,,,,,,,,repeat,letter,lettRpt,k,0.5032,Hi,,,,,,0,,,,,,,,low,6,0,6,0,1,,,,,,,,,
293068,2022-10-06_09h00.19.351,vts_reward_expectancy,2022.2.4,Win32,60.50338819,Chrome,1500,1000,,,,,1,753,,,,,,,,,,,,,,,,,160,W,hexagon,1,0,,,,,,,,,,,,,,,,repeat,letter,lettRpt,k,0.551,Lo,,,,,,0,,,,,,,,low,7,0,7,0,1,,,,,,,,,
293068,2022-10-06_09h00.19.351,vts_reward_expectancy,2022.2.4,Win32,60.50338819,Chrome,1500,1000,,,,,1,754,,,,,,,,,,,,,,,,,146,Y,hexagon,1,0,,,,,,,,,,,,,,,,switch,number,numSwt,d,1.024,Lo,,,,,,0,,,,,,,,low,8,0,8,0,1,,,,,,,,,
293068,2022-10-06_09h00.19.351,vts_reward_expectancy,2022.2.4,Win32,60.50338819,Chrome,1500,1000,,,,,10,764,,,,,,,,,,,,,,,,,167,B,triangle,1,0,,,,,,,,,,,,,,,,repeat,number,numRpt,f,0.5011,Hi,,,,,,0,,,,,,,,low,9,0,9,0,1,,,,,,,,,
293068,2022-10-06_09h00.19.351,vts_reward_expectancy,2022.2.4,Win32,60.50338819,Chrome,1500,1000,,,,,1,765,,,,,,,,,,,,,,,,,125,S,triangle,1,0,,,,,,,,,,,,,,,,repeat,number,numRpt,d,0.5908,Hi,,,,,,0,,,,,,,,low,10,0,10,0,1,,,,,,,,,
293068,2022-10-06_09h00.19.351,vts_reward_expectancy,2022.2.4,Win32,60.50338819,Chrome,1500,1000,,,,,1,766,,,,,,,,,,,,,,,,,174,D,hexagon,1,0,,,,,,,,,,,,,,,,switch,letter,lettSwt,j,0.4887,Lo,,,,,,0,,,,,,,,low,11,0,11,0,1,,,,,,,,,
293068,2022-10-06_09h00.19.351,vts_reward_expectancy,2022.2.4,Win32,60.50338819,Chrome,1500,1000,,,,,1,767,,,,,,,,,,,,,,,,,132,F,hexagon,1,0,,,,,,,,,,,,,,,,repeat,letter,lettRpt,j,0.7843,Lo,,,,,,0,,,,,,,,low,12,0,12,0,1,,,,,,,,,
293068,2022-10-06_09h00.19.351,vts_reward_expectancy,2022.2.4,Win32,60.50338819,Chrome,1500,1000,,,,,10,777,,,,,,,,,,,,,,,,,139,H,triangle,1,0,,,,,,,,,,,,,,,,switch,number,numSwt,d,0.5673,Hi,,,,,,0,,,,,,,,low,13,0,13,0,1,,,,,,,,,
293068,2022-10-06_09h00.19.351,vts_reward_expectancy,2022.2.4,Win32,60.50338819,Chrome,1500,1000,,,,,0,777,,,,,,,,,,,,,,,,,181,U,hexagon,0,0,,,,,,,,,,,,,,,,switch,letter,NA,j,0.6556,Hi,,,,,,0,,,,,,,,low,14,0,14,0,1,,,,,,,,,
293068,2022-10-06_09h00.19.351,vts_reward_expectancy,2022.2.4,Win32,60.50338819,Chrome,1500,1000,,,,,10,787,,,,,,,,,,,,,,,,,160,W,triangle,1,1,,,,,,,,,,,,,,,,switch,number,numSwt,f,0.5173,Hi,,,,,,0,,,,,,,,low,15,0,15,0,1,,,,,,,,,
293068,2022-10-06_09h00.19.351,vts_reward_expectancy,2022.2.4,Win32,60.50338819,Chrome,1500,1000,,,,,0,787,,,,,,,,,,,,,,,,,139,H,triangle,1,0,,,,,,,,,,,,,,,,repeat,number,numRpt,d,1.001,Hi,,,,,,0,,,,,,,,low,16,0,16,0,1,,,,,,,,,
293068,2022-10-06_09h00.19.351,vts_reward_expectancy,2022.2.4,Win32,60.50338819,Chrome,1500,1000,,,,,10,797,,,,,,,,,,,,,,,,,174,U,hexagon,1,0,,,,,,,,,,,,,,,,switch,letter,lettSwt,k,1.4552,Lo,,,,,,0,,,,,,,,low,17,0,17,0,1,,,,,,,,,
293068,2022-10-06_09h00.19.351,vts_reward_expectancy,2022.2.4,Win32,60.50338819,Chrome,1500,1000,,,,,1,798,,,,,,,,,,,,,,,,,146,B,hexagon,1,0,,,,,,,,,,,,,,,,repeat,letter,lettRpt,j,1.1839,Lo,,,,,,0,,,,,,,,low,18,0,18,0,1,,,,,,,,,
293068,2022-10-06_09h00.19.351,vts_reward_expectancy,2022.2.4,Win32,60.50338819,Chrome,1500,1000,,,,,1,799,,,,,,,,,,,,,,,,,132,S,triangle,1,0,,,,,,,,,,,,,,,,switch,number,numSwt,d,0.8674,Hi,,,,,,0,,,,,,,,low,19,0,19,0,1,,,,,,,,,
293068,2022-10-06_09h00.19.351,vts_reward_expectancy,2022.2.4,Win32,60.50338819,Chrome,1500,1000,,,,,0,799,,,,,,,,,,,,,,,,,167,Y,triangle,1,0,,,,,,,,,,,,,,,,switch,letter,lettSwt,k,1.3156,Hi,,,,,,0,,,,,,,,low,20,0,20,0,1,,,,,,,,,
293068,2022-10-06_09h00.19.351,vts_reward_expectancy,2022.2.4,Win32,60.50338819,Chrome,1500,1000,,,,,1,800,,,,,,,,,,,,,,,,,125,F,hexagon,1,0,,,,,,,,,,,,,,,,repeat,letter,lettRpt,j,0.9574,Lo,,,,,,0,,,,,,,,low,21,0,21,0,1,,,,,,,,,
293068,2022-10-06_09h00.19.351,vts_reward_expectancy,2022.2.4,Win32,60.50338819,Chrome,1500,1000,,,,,1,801,,,,,,,,,,,,,,,,,181,W,triangle,1,0,,,,,,,,,,,,,,,,switch,number,numSwt,f,0.8339,Hi,,,,,,0,,,,,,,,low,22,0,22,0,1,,,,,,,,,
293068,2022-10-06_09h00.19.351,vts_reward_expectancy,2022.2.4,Win32,60.50338819,Chrome,1500,1000,,,,,1,802,,,,,,,,,,,,,,,,,160,D,hexagon,1,0,,,,,,,,,,,,,,,,repeat,number,numRpt,f,0.6813,Lo,,,,,,0,,,,,,,,low,23,0,23,0,1,,,,,,,,,
293068,2022-10-06_09h00.19.351,vts_reward_expectancy,2022.2.4,Win32,60.50338819,Chrome,1500,1000,,,,,10,812,,,,,,,,,,,,,,,,,167,S,triangle,1,0,,,,,,,,,,,,,,,,switch,letter,lettSwt,k,0.5946,Hi,,,,,,0,,,,,,,,low,24,0,24,0,1,,,,,,,,,
293068,2022-10-06_09h00.19.351,vts_reward_expectancy,2022.2.4,Win32,60.50338819,Chrome,1500,1000,,,,,1,813,,,,,,,,,,,,,,,,,125,U,hexagon,1,0,,,,,,,,,,,,,,,,repeat,letter,lettRpt,k,0.6597,Lo,,,,,,0,,,,,,,,low,25,0,25,0,1,,,,,,,,,
293068,2022-10-06_09h00.19.351,vts_reward_expectancy,2022.2.4,Win32,60.50338819,Chrome,1500,1000,,,,,10,823,,,,,,,,,,,,,,,,,160,F,hexagon,1,0,,,,,,,,,,,,,,,,repeat,letter,lettRpt,j,0.7783,Lo,,,,,,0,,,,,,,,low,26,0,26,0,1,,,,,,,,,
293068,2022-10-06_09h00.19.351,vts_reward_expectancy,2022.2.4,Win32,60.50338819,Chrome,1500,1000,,,,,0,823,,,,,,,,,,,,,,,,,146,W,triangle,1,0,,,,,,,,,,,,,,,,repeat,letter,lettRpt,k,0.9348,Hi,,,,,,0,,,,,,,,low,27,0,27,0,1,,,,,,,,,
293068,2022-10-06_09h00.19.351,vts_reward_expectancy,2022.2.4,Win32,60.50338819,Chrome,1500,1000,,,,,1,824,,,,,,,,,,,,,,,,,174,B,triangle,1,0,,,,,,,,,,,,,,,,repeat,letter,lettRpt,j,0.5175,Hi,,,,,,0,,,,,,,,low,28,0,28,0,1,,,,,,,,,
293068,2022-10-06_09h00.19.351,vts_reward_expectancy,2022.2.4,Win32,60.50338819,Chrome,1500,1000,,,,,10,834,,,,,,,,,,,,,,,,,181,H,hexagon,1,0,,,,,,,,,,,,,,,,switch,number,numSwt,f,0.6865,Lo,,,,,,0,,,,,,,,low,29,0,29,0,1,,,,,,,,,
293068,2022-10-06_09h00.19.351,vts_reward_expectancy,2022.2.4,Win32,60.50338819,Chrome,1500,1000,,,,,10,844,,,,,,,,,,,,,,,,,139,Y,triangle,1,0,,,,,,,,,,,,,,,,repeat,number,numRpt,d,0.5176,Hi,,,,,,0,,,,,,,,low,30,0,30,0,1,,,,,,,,,
293068,2022-10-06_09h00.19.351,vts_reward_expectancy,2022.2.4,Win32,60.50338819,Chrome,1500,1000,,,,,1,845,,,,,,,,,,,,,,,,,132,D,hexagon,1,0,,,,,,,,,,,,,,,,switch,letter,lettSwt,j,0.5313,Lo,,,,,,0,,,,,,,,low,31,0,31,0,1,,,,,,,,,
293068,2022-10-06_09h00.19.351,vts_reward_expectancy,2022.2.4,Win32,60.50338819,Chrome,1500,1000,,,,,1,846,,,,,,,,,,,,,,,,,174,U,hexagon,1,0,,,,,,,,,,,,,,,,switch,number,numSwt,f,0.5507,Lo,,,,,,1,,,,,,space,1.9229,low,0,0,0,0,1,,,,,,,,,
293068,2022-10-06_09h00.19.351,vts_reward_expectancy,2022.2.4,Win32,60.50338819,Chrome,1500,1000,,,,,0,846,,,,,,,,,,,,,,,,,146,Y,triangle,1,0,,,,,,,,,,,,,,,,switch,letter,lettSwt,k,0.6169,Hi,,,,,,1,,,,,,,,low,1,0,1,0,1,,,,,,,,,
293068,2022-10-06_09h00.19.351,vts_reward_expectancy,2022.2.4,Win32,60.50338819,Chrome,1500,1000,,,,,1,847,,,,,,,,,,,,,,,,,160,H,hexagon,1,0,,,,,,,,,,,,,,,,repeat,letter,lettRpt,j,0.5337,Lo,,,,,,1,,,,,,,,low,2,0,2,0,1,,,,,,,,,
293068,2022-10-06_09h00.19.351,vts_reward_expectancy,2022.2.4,Win32,60.50338819,Chrome,1500,1000,,,,,10,857,,,,,,,,,,,,,,,,,132,B,triangle,1,0,,,,,,,,,,,,,,,,repeat,letter,lettRpt,j,0.4833,Hi,,,,,,1,,,,,,,,low,3,0,3,0,1,,,,,,,,,
293068,2022-10-06_09h00.19.351,vts_reward_expectancy,2022.2.4,Win32,60.50338819,Chrome,1500,1000,,,,,1,858,,,,,,,,,,,,,,,,,125,S,triangle,1,0,,,,,,,,,,,,,,,,repeat,letter,lettRpt,k,0.5842,Hi,,,,,,1,,,,,,,,low,4,0,4,0,1,,,,,,,,,
293068,2022-10-06_09h00.19.351,vts_reward_expectancy,2022.2.4,Win32,60.50338819,Chrome,1500,1000,,,,,1,859,,,,,,,,,,,,,,,,,167,W,hexagon,1,0,,,,,,,,,,,,,,,,switch,number,numSwt,f,0.7249,Lo,,,,,,1,,,,,,,,low,5,0,5,0,1,,,,,,,,,
293068,2022-10-06_09h00.19.351,vts_reward_expectancy,2022.2.4,Win32,60.50338819,Chrome,1500,1000,,,,,10,869,,,,,,,,,,,,,,,,,181,D,hexagon,1,0,,,,,,,,,,,,,,,,repeat,number,numRpt,f,0.6502,Lo,,,,,,1,,,,,,,,low,6,0,6,0,1,,,,,,,,,
293068,2022-10-06_09h00.19.351,vts_reward_expectancy,2022.2.4,Win32,60.50338819,Chrome,1500,1000,,,,,1,870,,,,,,,,,,,,,,,,,139,F,triangle,1,0,,,,,,,,,,,,,,,,repeat,number,numRpt,d,0.5852,Hi,,,,,,1,,,,,,,,low,7,0,7,0,1,,,,,,,,,
293068,2022-10-06_09h00.19.351,vts_reward_expectancy,2022.2.4,Win32,60.50338819,Chrome,1500,1000,,,,,0,870,,,,,,,,,,,,,,,,,174,U,triangle,1,0,,,,,,,,,,,,,,,,repeat,number,numRpt,f,0.667,Hi,,,,,,1,,,,,,,,low,8,0,8,0,1,,,,,,,,,
293068,2022-10-06_09h00.19.351,vts_reward_expectancy,2022.2.4,Win32,60.50338819,Chrome,1500,1000,,,,,10,880,,,,,,,,,,,,,,,,,146,Y,hexagon,1,0,,,,,,,,,,,,,,,,switch,letter,lettSwt,k,0.551,Lo,,,,,,1,,,,,,,,low,9,0,9,0,1,,,,,,,,,
293068,2022-10-06_09h00.19.351,vts_reward_expectancy,2022.2.4,Win32,60.50338819,Chrome,1500,1000,,,,,10,890,,,,,,,,,,,,,,,,,160,H,triangle,1,0,,,,,,,,,,,,,,,,repeat,letter,lettRpt,j,0.4872,Hi,,,,,,1,,,,,,,,low,10,0,10,0,1,,,,,,,,,
293068,2022-10-06_09h00.19.351,vts_reward_expectancy,2022.2.4,Win32,60.50338819,Chrome,1500,1000,,,,,1,891,,,,,,,,,,,,,,,,,132,B,hexagon,1,0,,,,,,,,,,,,,,,,repeat,letter,lettRpt,j,0.6849,Lo,,,,,,1,,,,,,,,low,11,0,11,0,1,,,,,,,,,
293068,2022-10-06_09h00.19.351,vts_reward_expectancy,2022.2.4,Win32,60.50338819,Chrome,1500,1000,,,,,10,901,,,,,,,,,,,,,,,,,125,S,hexagon,1,0,,,,,,,,,,,,,,,,switch,number,numSwt,d,0.5192,Lo,,,,,,1,,,,,,,,low,12,0,12,0,1,,,,,,,,,
293068,2022-10-06_09h00.19.351,vts_reward_expectancy,2022.2.4,Win32,60.50338819,Chrome,1500,1000,,,,,0,901,,,,,,,,,,,,,,,,,167,W,triangle,1,0,,,,,,,,,,,,,,,,repeat,number,numRpt,f,0.7506,Hi,,,,,,1,,,,,,,,low,13,0,13,0,1,,,,,,,,,
293068,2022-10-06_09h00.19.351,vts_reward_expectancy,2022.2.4,Win32,60.50338819,Chrome,1500,1000,,,,,1,902,,,,,,,,,,,,,,,,,181,D,hexagon,1,0,,,,,,,,,,,,,,,,repeat,number,numRpt,f,0.6936,Lo,,,,,,1,,,,,,,,low,14,0,14,0,1,,,,,,,,,
293068,2022-10-06_09h00.19.351,vts_reward_expectancy,2022.2.4,Win32,60.50338819,Chrome,1500,1000,,,,,0,902,,,,,,,,,,,,,,,,,139,F,triangle,1,0,,,,,,,,,,,,,,,,switch,letter,lettSwt,j,0.6149,Hi,,,,,,1,,,,,,,,low,15,0,15,0,1,,,,,,,,,
293068,2022-10-06_09h00.19.351,vts_reward_expectancy,2022.2.4,Win32,60.50338819,Chrome,1500,1000,,,,,1,903,,,,,,,,,,,,,,,,,181,B,hexagon,1,0,,,,,,,,,,,,,,,,repeat,letter,lettRpt,j,0.517,Lo,,,,,,1,,,,,,,,low,16,0,16,0,1,,,,,,,,,
293068,2022-10-06_09h00.19.351,vts_reward_expectancy,2022.2.4,Win32,60.50338819,Chrome,1500,1000,,,,,10,913,,,,,,,,,,,,,,,,,125,H,triangle,1,0,,,,,,,,,,,,,,,,repeat,letter,lettRpt,j,0.5839,Hi,,,,,,1,,,,,,,,low,17,0,17,0,1,,,,,,,,,
293068,2022-10-06_09h00.19.351,vts_reward_expectancy,2022.2.4,Win32,60.50338819,Chrome,1500,1000,,,,,0,913,,,,,,,,,,,,,,,,,146,F,triangle,1,0,,,,,,,,,,,,,,,,switch,number,numSwt,d,1.4564,Hi,,,,,,1,,,,,,,,low,18,0,18,0,1,,,,,,,,,
293068,2022-10-06_09h00.19.351,vts_reward_expectancy,2022.2.4,Win32,60.50338819,Chrome,1500,1000,,,,,1,914,,,,,,,,,,,,,,,,,132,S,hexagon,1,0,,,,,,,,,,,,,,,,repeat,number,numRpt,d,0.667,Lo,,,,,,1,,,,,,,,low,19,0,19,0,1,,,,,,,,,
293068,2022-10-06_09h00.19.351,vts_reward_expectancy,2022.2.4,Win32,60.50338819,Chrome,1500,1000,,,,,1,915,,,,,,,,,,,,,,,,,174,U,hexagon,1,0,,,,,,,,,,,,,,,,repeat,number,numRpt,f,0.4147,Lo,,,,,,1,,,,,,,,low,20,0,20,0,1,,,,,,,,,
293068,2022-10-06_09h00.19.351,vts_reward_expectancy,2022.2.4,Win32,60.50338819,Chrome,1500,1000,,,,,0,915,,,,,,,,,,,,,,,,,160,W,triangle,1,0,,,,,,,,,,,,,,,,repeat,number,numRpt,f,0.8009,Hi,,,,,,1,,,,,,,,low,21,0,21,0,1,,,,,,,,,
293068,2022-10-06_09h00.19.351,vts_reward_expectancy,2022.2.4,Win32,60.50338819,Chrome,1500,1000,,,,,0,915,,,,,,,,,,,,,,,,,139,D,hexagon,0,0,,,,,,,,,,,,,,,,repeat,number,NA,f,0.6358,Hi,,,,,,1,,,,,,,,low,22,0,22,0,1,,,,,,,,,
293068,2022-10-06_09h00.19.351,vts_reward_expectancy,2022.2.4,Win32,60.50338819,Chrome,1500,1000,,,,,0,915,,,,,,,,,,,,,,,,,167,Y,triangle,1,1,,,,,,,,,,,,,,,,switch,letter,lettSwt,k,0.6008,Hi,,,,,,1,,,,,,,,low,23,0,23,0,1,,,,,,,,,
293068,2022-10-06_09h00.19.351,vts_reward_expectancy,2022.2.4,Win32,60.50338819,Chrome,1500,1000,,,,,10,925,,,,,,,,,,,,,,,,,132,F,hexagon,1,0,,,,,,,,,,,,,,,,repeat,letter,lettRpt,j,0.8396,Lo,,,,,,1,,,,,,,,low,24,0,24,0,1,,,,,,,,,
293068,2022-10-06_09h00.19.351,vts_reward_expectancy,2022.2.4,Win32,60.50338819,Chrome,1500,1000,,,,,0,925,,,,,,,,,,,,,,,,,160,S,triangle,1,0,,,,,,,,,,,,,,,,switch,number,numSwt,f,1.1845,Hi,,,,,,1,,,,,,,,low,25,0,25,0,1,,,,,,,,,
293068,2022-10-06_09h00.19.351,vts_reward_expectancy,2022.2.4,Win32,60.50338819,Chrome,1500,1000,,,,,1,926,,,,,,,,,,,,,,,,,174,U,hexagon,1,0,,,,,,,,,,,,,,,,switch,letter,lettSwt,k,0.7016,Lo,,,,,,1,,,,,,,,low,26,0,26,0,1,,,,,,,,,
293068,2022-10-06_09h00.19.351,vts_reward_expectancy,2022.2.4,Win32,60.50338819,Chrome,1500,1000,,,,,0,926,,,,,,,,,,,,,,,,,167,Y,triangle,1,0,,,,,,,,,,,,,,,,switch,number,numSwt,f,1.3338,Hi,,,,,,1,,,,,,,,low,27,0,27,0,1,,,,,,,,,
293068,2022-10-06_09h00.19.351,vts_reward_expectancy,2022.2.4,Win32,60.50338819,Chrome,1500,1000,,,,,0,926,,,,,,,,,,,,,,,,,146,H,triangle,0,0,,,,,,,,,,,,,,,,repeat,number,NA,f,1.1514,Hi,,,,,,1,,,,,,,,low,28,0,28,0,1,,,,,,,,,
293068,2022-10-06_09h00.19.351,vts_reward_expectancy,2022.2.4,Win32,60.50338819,Chrome,1500,1000,,,,,10,936,,,,,,,,,,,,,,,,,139,D,hexagon,1,1,,,,,,,,,,,,,,,,switch,letter,lettSwt,j,0.7522,Lo,,,,,,1,,,,,,,,low,29,0,29,0,1,,,,,,,,,
293068,2022-10-06_09h00.19.351,vts_reward_expectancy,2022.2.4,Win32,60.50338819,Chrome,1500,1000,,,,,0,936,,,,,,,,,,,,,,,,,125,B,triangle,1,0,,,,,,,,,,,,,,,,repeat,letter,lettRpt,j,0.6502,Hi,,,,,,1,,,,,,,,low,30,0,30,0,1,,,,,,,,,
293068,2022-10-06_09h00.19.351,vts_reward_expectancy,2022.2.4,Win32,60.50338819,Chrome,1500,1000,,,,,10,946,,,,,,,,,,,,,,,,,181,W,hexagon,1,0,,,,,,,,,,,,,,,,repeat,letter,lettRpt,k,0.6333,Lo,,,,,,1,,,,,,,,low,31,0,31,0,1,,,,,,,,,
293068,2022-10-06_09h00.19.351,vts_reward_expectancy,2022.2.4,Win32,60.50338819,Chrome,1500,1000,,,,,0,946,,,,,,,,,,,,,,,,,132,H,triangle,1,0,,,,,,,,,,,,,,,,switch,number,numSwt,d,0.7998,Hi,,,,,,2,,,,,,space,0.9696,low,0,0,0,0,1,,,,,,,,,
293068,2022-10-06_09h00.19.351,vts_reward_expectancy,2022.2.4,Win32,60.50338819,Chrome,1500,1000,,,,,1,947,,,,,,,,,,,,,,,,,174,Y,hexagon,1,0,,,,,,,,,,,,,,,,switch,letter,lettSwt,k,0.5813,Lo,,,,,,2,,,,,,,,low,1,0,1,0,1,,,,,,,,,
293068,2022-10-06_09h00.19.351,vts_reward_expectancy,2022.2.4,Win32,60.50338819,Chrome,1500,1000,,,,,0,947,,,,,,,,,,,,,,,,,146,D,triangle,1,0,,,,,,,,,,,,,,,,repeat,letter,lettRpt,j,0.6116,Hi,,,,,,2,,,,,,,,low,2,0,2,0,1,,,,,,,,,
293068,2022-10-06_09h00.19.351,vts_reward_expectancy,2022.2.4,Win32,60.50338819,Chrome,1500,1000,,,,,10,957,,,,,,,,,,,,,,,,,167,W,hexagon,1,0,,,,,,,,,,,,,,,,repeat,letter,lettRpt,k,0.7139,Lo,,,,,,2,,,,,,,,low,3,0,3,0,1,,,,,,,,,
293068,2022-10-06_09h00.19.351,vts_reward_expectancy,2022.2.4,Win32,60.50338819,Chrome,1500,1000,,,,,10,967,,,,,,,,,,,,,,,,,139,S,hexagon,1,0,,,,,,,,,,,,,,,,repeat,letter,lettRpt,k,0.7194,Lo,,,,,,2,,,,,,,,low,4,0,4,0,1,,,,,,,,,
293068,2022-10-06_09h00.19.351,vts_reward_expectancy,2022.2.4,Win32,60.50338819,Chrome,1500,1000,,,,,0,967,,,,,,,,,,,,,,,,,160,F,triangle,1,0,,,,,,,,,,,,,,,,switch,number,numSwt,f,0.7035,Hi,,,,,,2,,,,,,,,low,5,0,5,0,1,,,,,,,,,
293068,2022-10-06_09h00.19.351,vts_reward_expectancy,2022.2.4,Win32,60.50338819,Chrome,1500,1000,,,,,10,977,,,,,,,,,,,,,,,,,125,B,triangle,1,0,,,,,,,,,,,,,,,,switch,letter,lettSwt,j,0.4344,Hi,,,,,,2,,,,,,,,low,6,0,6,0,1,,,,,,,,,
293068,2022-10-06_09h00.19.351,vts_reward_expectancy,2022.2.4,Win32,60.50338819,Chrome,1500,1000,,,,,1,978,,,,,,,,,,,,,,,,,181,U,hexagon,1,0,,,,,,,,,,,,,,,,switch,number,numSwt,f,0.6779,Lo,,,,,,2,,,,,,,,low,7,0,7,0,1,,,,,,,,,
293068,2022-10-06_09h00.19.351,vts_reward_expectancy,2022.2.4,Win32,60.50338819,Chrome,1500,1000,,,,,0,978,,,,,,,,,,,,,,,,,132,H,triangle,1,0,,,,,,,,,,,,,,,,switch,letter,lettSwt,j,0.6366,Hi,,,,,,2,,,,,,,,low,8,0,8,0,1,,,,,,,,,
293068,2022-10-06_09h00.19.351,vts_reward_expectancy,2022.2.4,Win32,60.50338819,Chrome,1500,1000,,,,,10,988,,,,,,,,,,,,,,,,,174,Y,hexagon,1,0,,,,,,,,,,,,,,,,repeat,letter,lettRpt,k,0.6155,Lo,,,,,,2,,,,,,,,low,9,0,9,0,1,,,,,,,,,
293068,2022-10-06_09h00.19.351,vts_reward_expectancy,2022.2.4,Win32,60.50338819,Chrome,1500,1000,,,,,0,988,,,,,,,,,,,,,,,,,146,D,triangle,1,0,,,,,,,,,,,,,,,,repeat,letter,lettRpt,j,0.634,Hi,,,,,,2,,,,,,,,low,10,0,10,0,1,,,,,,,,,
293068,2022-10-06_09h00.19.351,vts_reward_expectancy,2022.2.4,Win32,60.50338819,Chrome,1500,1000,,,,,1,989,,,,,,,,,,,,,,,,,167,W,hexagon,1,0,,,,,,,,,,,,,,,,repeat,letter,lettRpt,k,0.6674,Lo,,,,,,2,,,,,,,,low,11,0,11,0,1,,,,,,,,,
293068,2022-10-06_09h00.19.351,vts_reward_expectancy,2022.2.4,Win32,60.50338819,Chrome,1500,1000,,,,,1,990,,,,,,,,,,,,,,,,,139,S,triangle,1,0,,,,,,,,,,,,,,,,switch,number,numSwt,d,0.634,Hi,,,,,,2,,,,,,,,low,12,0,12,0,1,,,,,,,,,
293068,2022-10-06_09h00.19.351,vts_reward_expectancy,2022.2.4,Win32,60.50338819,Chrome,1500,1000,,,,,1,991,,,,,,,,,,,,,,,,,160,F,hexagon,1,0,,,,,,,,,,,,,,,,switch,letter,lettSwt,j,0.7025,Lo,,,,,,2,,,,,,,,low,13,0,13,0,1,,,,,,,,,
293068,2022-10-06_09h00.19.351,vts_reward_expectancy,2022.2.4,Win32,60.50338819,Chrome,1500,1000,,,,,10,1001,,,,,,,,,,,,,,,,,125,B,hexagon,1,0,,,,,,,,,,,,,,,,switch,number,numSwt,d,0.5196,Lo,,,,,,2,,,,,,,,low,14,0,14,0,1,,,,,,,,,
293068,2022-10-06_09h00.19.351,vts_reward_expectancy,2022.2.4,Win32,60.50338819,Chrome,1500,1000,,,,,10,1011,,,,,,,,,,,,,,,,,181,U,triangle,1,0,,,,,,,,,,,,,,,,repeat,number,numRpt,f,0.5475,Hi,,,,,,2,,,,,,,,low,15,0,15,0,1,,,,,,,,,
293068,2022-10-06_09h00.19.351,vts_reward_expectancy,2022.2.4,Win32,60.50338819,Chrome,1500,1000,,,,,1,1012,,,,,,,,,,,,,,,,,146,B,hexagon,1,0,,,,,,,,,,,,,,,,repeat,number,numRpt,d,0.5141,Lo,,,,,,2,,,,,,,,low,16,0,16,0,1,,,,,,,,,
293068,2022-10-06_09h00.19.351,vts_reward_expectancy,2022.2.4,Win32,60.50338819,Chrome,1500,1000,,,,,0,1012,,,,,,,,,,,,,,,,,174,U,triangle,1,0,,,,,,,,,,,,,,,,switch,letter,lettSwt,k,0.698,Hi,,,,,,2,,,,,,,,low,17,0,17,0,1,,,,,,,,,
293068,2022-10-06_09h00.19.351,vts_reward_expectancy,2022.2.4,Win32,60.50338819,Chrome,1500,1000,,,,,10,1022,,,,,,,,,,,,,,,,,125,H,hexagon,1,0,,,,,,,,,,,,,,,,repeat,letter,lettRpt,j,0.7309,Lo,,,,,,2,,,,,,,,low,18,0,18,0,1,,,,,,,,,
293068,2022-10-06_09h00.19.351,vts_reward_expectancy,2022.2.4,Win32,60.50338819,Chrome,1500,1000,,,,,10,1032,,,,,,,,,,,,,,,,,160,D,triangle,1,0,,,,,,,,,,,,,,,,repeat,letter,lettRpt,j,0.5138,Hi,,,,,,2,,,,,,,,low,19,0,19,0,1,,,,,,,,,
293068,2022-10-06_09h00.19.351,vts_reward_expectancy,2022.2.4,Win32,60.50338819,Chrome,1500,1000,,,,,1,1033,,,,,,,,,,,,,,,,,139,F,triangle,1,0,,,,,,,,,,,,,,,,switch,number,numSwt,d,0.4813,Hi,,,,,,2,,,,,,,,low,20,0,20,0,1,,,,,,,,,
293068,2022-10-06_09h00.19.351,vts_reward_expectancy,2022.2.4,Win32,60.50338819,Chrome,1500,1000,,,,,10,1043,,,,,,,,,,,,,,,,,132,S,hexagon,1,0,,,,,,,,,,,,,,,,repeat,number,numRpt,d,0.6511,Lo,,,,,,2,,,,,,,,low,21,0,21,0,1,,,,,,,,,
293068,2022-10-06_09h00.19.351,vts_reward_expectancy,2022.2.4,Win32,60.50338819,Chrome,1500,1000,,,,,1,1044,,,,,,,,,,,,,,,,,167,W,hexagon,1,0,,,,,,,,,,,,,,,,repeat,number,numRpt,f,0.4647,Lo,,,,,,2,,,,,,,,low,22,0,22,0,1,,,,,,,,,
293068,2022-10-06_09h00.19.351,vts_reward_expectancy,2022.2.4,Win32,60.50338819,Chrome,1500,1000,,,,,1,1045,,,,,,,,,,,,,,,,,181,Y,triangle,1,0,,,,,,,,,,,,,,,,switch,letter,lettSwt,k,0.5973,Hi,,,,,,2,,,,,,,,low,23,0,23,0,1,,,,,,,,,
293068,2022-10-06_09h00.19.351,vts_reward_expectancy,2022.2.4,Win32,60.50338819,Chrome,1500,1000,,,,,0,1045,,,,,,,,,,,,,,,,,160,B,triangle,1,0,,,,,,,,,,,,,,,,repeat,letter,lettRpt,j,0.5983,Hi,,,,,,2,,,,,,,,low,24,0,24,0,1,,,,,,,,,
293068,2022-10-06_09h00.19.351,vts_reward_expectancy,2022.2.4,Win32,60.50338819,Chrome,1500,1000,,,,,1,1046,,,,,,,,,,,,,,,,,146,S,hexagon,1,0,,,,,,,,,,,,,,,,repeat,letter,lettRpt,k,0.6304,Lo,,,,,,2,,,,,,,,low,25,0,25,0,1,,,,,,,,,
293068,2022-10-06_09h00.19.351,vts_reward_expectancy,2022.2.4,Win32,60.50338819,Chrome,1500,1000,,,,,1,1047,,,,,,,,,,,,,,,,,174,U,triangle,1,0,,,,,,,,,,,,,,,,switch,number,numSwt,f,0.515,Hi,,,,,,2,,,,,,,,low,26,0,26,0,1,,,,,,,,,
293068,2022-10-06_09h00.19.351,vts_reward_expectancy,2022.2.4,Win32,60.50338819,Chrome,1500,1000,,,,,1,1048,,,,,,,,,,,,,,,,,139,H,hexagon,1,0,,,,,,,,,,,,,,,,switch,letter,lettSwt,j,0.648,Lo,,,,,,2,,,,,,,,low,27,0,27,0,1,,,,,,,,,
293068,2022-10-06_09h00.19.351,vts_reward_expectancy,2022.2.4,Win32,60.50338819,Chrome,1500,1000,,,,,1,1049,,,,,,,,,,,,,,,,,181,D,hexagon,1,0,,,,,,,,,,,,,,,,switch,number,numSwt,f,0.6047,Lo,,,,,,2,,,,,,,,low,28,0,28,0,1,,,,,,,,,
293068,2022-10-06_09h00.19.351,vts_reward_expectancy,2022.2.4,Win32,60.50338819,Chrome,1500,1000,,,,,1,1050,,,,,,,,,,,,,,,,,167,W,triangle,1,0,,,,,,,,,,,,,,,,switch,letter,lettSwt,k,0.4987,Hi,,,,,,2,,,,,,,,low,29,0,29,0,1,,,,,,,,,
293068,2022-10-06_09h00.19.351,vts_reward_expectancy,2022.2.4,Win32,60.50338819,Chrome,1500,1000,,,,,10,1060,,,,,,,,,,,,,,,,,132,Y,triangle,1,0,,,,,,,,,,,,,,,,switch,number,numSwt,d,0.6152,Hi,,,,,,2,,,,,,,,low,30,0,30,0,1,,,,,,,,,
293068,2022-10-06_09h00.19.351,vts_reward_expectancy,2022.2.4,Win32,60.50338819,Chrome,1500,1000,,,,,10,1070,,,,,,,,,,,,,,,,,125,F,hexagon,1,0,,,,,,,,,,,,,,,,switch,letter,lettSwt,j,0.5642,Lo,,,,,,2,,,,,,,,low,31,0,31,0,1,,,,,,,,,
293068,2022-10-06_09h00.19.351,vts_reward_expectancy,2022.2.4,Win32,60.50338819,Chrome,1500,1000,,,,,0,1070,,,,,,,,,,,,,,,,,125,F,star,1,0,,,,,,,,,,,,,,,,switch,number,numSwt,d,0.7524,Hi,,,,,,3,,,,,,space,1.2684,high,0,0,0,0,1,,,,,,,,,
293068,2022-10-06_09h00.19.351,vts_reward_expectancy,2022.2.4,Win32,60.50338819,Chrome,1500,1000,,,,,1,1071,,,,,,,,,,,,,,,,,139,B,circle,1,0,,,,,,,,,,,,,,,,repeat,number,numRpt,d,0.6318,Lo,,,,,,3,,,,,,,,high,1,0,1,0,1,,,,,,,,,
293068,2022-10-06_09h00.19.351,vts_reward_expectancy,2022.2.4,Win32,60.50338819,Chrome,1500,1000,,,,,10,1081,,,,,,,,,,,,,,,,,181,D,star,1,0,,,,,,,,,,,,,,,,switch,letter,lettSwt,j,0.5148,Hi,,,,,,3,,,,,,,,high,2,0,2,0,1,,,,,,,,,
293068,2022-10-06_09h00.19.351,vts_reward_expectancy,2022.2.4,Win32,60.50338819,Chrome,1500,1000,,,,,1,1082,,,,,,,,,,,,,,,,,174,W,circle,1,0,,,,,,,,,,,,,,,,repeat,letter,lettRpt,k,0.6653,Lo,,,,,,3,,,,,,,,high,3,0,3,0,1,,,,,,,,,
293068,2022-10-06_09h00.19.351,vts_reward_expectancy,2022.2.4,Win32,60.50338819,Chrome,1500,1000,,,,,10,1092,,,,,,,,,,,,,,,,,132,H,star,1,0,,,,,,,,,,,,,,,,switch,number,numSwt,d,0.4982,Hi,,,,,,3,,,,,,,,high,4,0,4,0,1,,,,,,,,,
293068,2022-10-06_09h00.19.351,vts_reward_expectancy,2022.2.4,Win32,60.50338819,Chrome,1500,1000,,,,,10,1102,,,,,,,,,,,,,,,,,167,Y,circle,1,0,,,,,,,,,,,,,,,,repeat,number,numRpt,f,0.4476,Lo,,,,,,3,,,,,,,,high,5,0,5,0,1,,,,,,,,,
293068,2022-10-06_09h00.19.351,vts_reward_expectancy,2022.2.4,Win32,60.50338819,Chrome,1500,1000,,,,,1,1103,,,,,,,,,,,,,,,,,160,U,circle,1,0,,,,,,,,,,,,,,,,switch,letter,lettSwt,k,0.6505,Lo,,,,,,3,,,,,,,,high,6,0,6,0,1,,,,,,,,,
293068,2022-10-06_09h00.19.351,vts_reward_expectancy,2022.2.4,Win32,60.50338819,Chrome,1500,1000,,,,,10,1113,,,,,,,,,,,,,,,,,146,S,star,1,0,,,,,,,,,,,,,,,,repeat,letter,lettRpt,k,0.5533,Hi,,,,,,3,,,,,,,,high,7,0,7,0,1,,,,,,,,,
293068,2022-10-06_09h00.19.351,vts_reward_expectancy,2022.2.4,Win32,60.50338819,Chrome,1500,1000,,,,,1,1114,,,,,,,,,,,,,,,,,125,F,circle,1,0,,,,,,,,,,,,,,,,switch,number,numSwt,d,0.5133,Lo,,,,,,3,,,,,,,,high,8,0,8,0,1,,,,,,,,,
293068,2022-10-06_09h00.19.351,vts_reward_expectancy,2022.2.4,Win32,60.50338819,Chrome,1500,1000,,,,,0,1114,,,,,,,,,,,,,,,,,139,B,star,1,0,,,,,,,,,,,,,,,,repeat,number,numRpt,d,0.5814,Hi,,,,,,3,,,,,,,,high,9,0,9,0,1,,,,,,,,,
293068,2022-10-06_09h00.19.351,vts_reward_expectancy,2022.2.4,Win32,60.50338819,Chrome,1500,1000,,,,,0,1114,,,,,,,,,,,,,,,,,181,D,star,1,0,,,,,,,,,,,,,,,,repeat,number,numRpt,f,0.5651,Hi,,,,,,3,,,,,,,,high,10,0,10,0,1,,,,,,,,,
293068,2022-10-06_09h00.19.351,vts_reward_expectancy,2022.2.4,Win32,60.50338819,Chrome,1500,1000,,,,,1,1115,,,,,,,,,,,,,,,,,174,W,circle,1,0,,,,,,,,,,,,,,,,switch,letter,lettSwt,k,0.5134,Lo,,,,,,3,,,,,,,,high,11,0,11,0,1,,,,,,,,,
293068,2022-10-06_09h00.19.351,vts_reward_expectancy,2022.2.4,Win32,60.50338819,Chrome,1500,1000,,,,,0,1115,,,,,,,,,,,,,,,,,132,H,star,1,0,,,,,,,,,,,,,,,,repeat,letter,lettRpt,j,0.7977,Hi,,,,,,3,,,,,,,,high,12,0,12,0,1,,,,,,,,,
293068,2022-10-06_09h00.19.351,vts_reward_expectancy,2022.2.4,Win32,60.50338819,Chrome,1500,1000,,,,,1,1116,,,,,,,,,,,,,,,,,167,Y,circle,1,0,,,,,,,,,,,,,,,,switch,number,numSwt,f,0.9454,Lo,,,,,,3,,,,,,,,high,13,0,13,0,1,,,,,,,,,
293068,2022-10-06_09h00.19.351,vts_reward_expectancy,2022.2.4,Win32,60.50338819,Chrome,1500,1000,,,,,1,1117,,,,,,,,,,,,,,,,,160,U,circle,1,0,,,,,,,,,,,,,,,,repeat,number,numRpt,f,0.7978,Lo,,,,,,3,,,,,,,,high,14,0,14,0,1,,,,,,,,,
293068,2022-10-06_09h00.19.351,vts_reward_expectancy,2022.2.4,Win32,60.50338819,Chrome,1500,1000,,,,,0,1117,,,,,,,,,,,,,,,,,146,S,star,1,0,,,,,,,,,,,,,,,,repeat,number,numRpt,d,0.5638,Hi,,,,,,3,,,,,,,,high,15,0,15,0,1,,,,,,,,,
293068,2022-10-06_09h00.19.351,vts_reward_expectancy,2022.2.4,Win32,60.50338819,Chrome,1500,1000,,,,,1,1118,,,,,,,,,,,,,,,,,139,Y,circle,1,0,,,,,,,,,,,,,,,,switch,letter,lettSwt,k,0.7051,Lo,,,,,,3,,,,,,,,high,16,0,16,0,1,,,,,,,,,
293068,2022-10-06_09h00.19.351,vts_reward_expectancy,2022.2.4,Win32,60.50338819,Chrome,1500,1000,,,,,0,1118,,,,,,,,,,,,,,,,,132,S,star,0,0,,,,,,,,,,,,,,,,repeat,letter,NA,j,0.8321,Lo,,,,,,3,,,,,,,,high,17,0,17,0,1,,,,,,,,,
293068,2022-10-06_09h00.19.351,vts_reward_expectancy,2022.2.4,Win32,60.50338819,Chrome,1500,1000,,,,,10,1128,,,,,,,,,,,,,,,,,181,U,circle,1,1,,,,,,,,,,,,,,,,repeat,letter,lettRpt,k,0.6309,Lo,,,,,,3,,,,,,,,high,18,0,18,0,1,,,,,,,,,
293068,2022-10-06_09h00.19.351,vts_reward_expectancy,2022.2.4,Win32,60.50338819,Chrome,1500,1000,,,,,0,1128,,,,,,,,,,,,,,,,,160,D,star,1,0,,,,,,,,,,,,,,,,repeat,letter,lettRpt,j,0.6475,Hi,,,,,,3,,,,,,,,high,19,0,19,0,1,,,,,,,,,
293068,2022-10-06_09h00.19.351,vts_reward_expectancy,2022.2.4,Win32,60.50338819,Chrome,1500,1000,,,,,1,1129,,,,,,,,,,,,,,,,,125,H,circle,1,0,,,,,,,,,,,,,,,,switch,number,numSwt,d,0.8427,Lo,,,,,,3,,,,,,,,high,20,0,20,0,1,,,,,,,,,
293068,2022-10-06_09h00.19.351,vts_reward_expectancy,2022.2.4,Win32,60.50338819,Chrome,1500,1000,,,,,0,1129,,,,,,,,,,,,,,,,,146,W,star,1,0,,,,,,,,,,,,,,,,repeat,number,numRpt,d,1.1798,Hi,,,,,,3,,,,,,,,high,21,0,21,0,1,,,,,,,,,
293068,2022-10-06_09h00.19.351,vts_reward_expectancy,2022.2.4,Win32,60.50338819,Chrome,1500,1000,,,,,1,1130,,,,,,,,,,,,,,,,,174,F,circle,1,0,,,,,,,,,,,,,,,,repeat,number,numRpt,f,0.7491,Lo,,,,,,3,,,,,,,,high,22,0,22,0,1,,,,,,,,,
293068,2022-10-06_09h00.19.351,vts_reward_expectancy,2022.2.4,Win32,60.50338819,Chrome,1500,1000,,,,,0,1130,,,,,,,,,,,,,,,,,167,B,star,1,0,,,,,,,,,,,,,,,,repeat,number,numRpt,f,0.6311,Hi,,,,,,3,,,,,,,,high,23,0,23,0,1,,,,,,,,,
293068,2022-10-06_09h00.19.351,vts_reward_expectancy,2022.2.4,Win32,60.50338819,Chrome,1500,1000,,,,,1,1131,,,,,,,,,,,,,,,,,132,W,circle,1,0,,,,,,,,,,,,,,,,repeat,number,numRpt,d,0.5495,Lo,,,,,,3,,,,,,,,high,24,0,24,0,1,,,,,,,,,
293068,2022-10-06_09h00.19.351,vts_reward_expectancy,2022.2.4,Win32,60.50338819,Chrome,1500,1000,,,,,0,1131,,,,,,,,,,,,,,,,,125,Y,star,1,0,,,,,,,,,,,,,,,,switch,letter,lettSwt,k,0.6807,Hi,,,,,,3,,,,,,,,high,25,0,25,0,1,,,,,,,,,
293068,2022-10-06_09h00.19.351,vts_reward_expectancy,2022.2.4,Win32,60.50338819,Chrome,1500,1000,,,,,0,1131,,,,,,,,,,,,,,,,,174,F,star,1,0,,,,,,,,,,,,,,,,repeat,letter,lettRpt,j,0.6969,Hi,,,,,,3,,,,,,,,high,26,0,26,0,1,,,,,,,,,
293068,2022-10-06_09h00.19.351,vts_reward_expectancy,2022.2.4,Win32,60.50338819,Chrome,1500,1000,,,,,1,1132,,,,,,,,,,,,,,,,,181,S,circle,1,0,,,,,,,,,,,,,,,,repeat,letter,lettRpt,k,0.6302,Lo,,,,,,3,,,,,,,,high,27,0,27,0,1,,,,,,,,,
293068,2022-10-06_09h00.19.351,vts_reward_expectancy,2022.2.4,Win32,60.50338819,Chrome,1500,1000,,,,,1,1133,,,,,,,,,,,,,,,,,146,H,circle,1,0,,,,,,,,,,,,,,,,repeat,letter,lettRpt,j,0.5985,Lo,,,,,,3,,,,,,,,high,28,0,28,0,1,,,,,,,,,
293068,2022-10-06_09h00.19.351,vts_reward_expectancy,2022.2.4,Win32,60.50338819,Chrome,1500,1000,,,,,0,1133,,,,,,,,,,,,,,,,,160,B,star,1,0,,,,,,,,,,,,,,,,switch,number,numSwt,f,0.7317,Hi,,,,,,3,,,,,,,,high,29,0,29,0,1,,,,,,,,,
293068,2022-10-06_09h00.19.351,vts_reward_expectancy,2022.2.4,Win32,60.50338819,Chrome,1500,1000,,,,,1,1134,,,,,,,,,,,,,,,,,167,D,circle,1,0,,,,,,,,,,,,,,,,repeat,number,numRpt,f,0.5857,Lo,,,,,,3,,,,,,,,high,30,0,30,0,1,,,,,,,,,
293068,2022-10-06_09h00.19.351,vts_reward_expectancy,2022.2.4,Win32,60.50338819,Chrome,1500,1000,,,,,10,1144,,,,,,,,,,,,,,,,,139,U,star,1,0,,,,,,,,,,,,,,,,repeat,number,numRpt,d,0.4705,Hi,,,,,,3,,,,,,,,high,31,0,31,0,1,,,,,,,,,
293068,2022-10-06_09h00.19.351,vts_reward_expectancy,2022.2.4,Win32,60.50338819,Chrome,1500,1000,,,,,0,1144,,,,,,,,,,,,,,,,,146,Y,star,0,0,,,,,,,,,,,,,,,,repeat,number,NA,f,0.6008,Hi,,,,,,4,,,,,,space,0.9179,high,0,0,0,0,1,,,,,,,,,
293068,2022-10-06_09h00.19.351,vts_reward_expectancy,2022.2.4,Win32,60.50338819,Chrome,1500,1000,,,,,1,1145,,,,,,,,,,,,,,,,,167,B,circle,1,1,,,,,,,,,,,,,,,,repeat,number,numRpt,f,0.6142,Lo,,,,,,4,,,,,,,,high,1,0,1,0,1,,,,,,,,,
293068,2022-10-06_09h00.19.351,vts_reward_expectancy,2022.2.4,Win32,60.50338819,Chrome,1500,1000,,,,,0,1145,,,,,,,,,,,,,,,,,160,F,star,1,0,,,,,,,,,,,,,,,,switch,letter,lettSwt,j,0.6301,Hi,,,,,,4,,,,,,,,high,2,0,2,0,1,,,,,,,,,
293068,2022-10-06_09h00.19.351,vts_reward_expectancy,2022.2.4,Win32,60.50338819,Chrome,1500,1000,,,,,1,1146,,,,,,,,,,,,,,,,,132,H,circle,1,0,,,,,,,,,,,,,,,,repeat,letter,lettRpt,j,0.5981,Lo,,,,,,4,,,,,,,,high,3,0,3,0,1,,,,,,,,,
293068,2022-10-06_09h00.19.351,vts_reward_expectancy,2022.2.4,Win32,60.50338819,Chrome,1500,1000,,,,,10,1156,,,,,,,,,,,,,,,,,174,U,star,1,0,,,,,,,,,,,,,,,,repeat,letter,lettRpt,k,0.4654,Hi,,,,,,4,,,,,,,,high,4,0,4,0,1,,,,,,,,,
293068,2022-10-06_09h00.19.351,vts_reward_expectancy,2022.2.4,Win32,60.50338819,Chrome,1500,1000,,,,,10,1166,,,,,,,,,,,,,,,,,181,W,circle,1,0,,,,,,,,,,,,,,,,repeat,letter,lettRpt,k,0.5997,Lo,,,,,,4,,,,,,,,high,5,0,5,0,1,,,,,,,,,
293068,2022-10-06_09h00.19.351,vts_reward_expectancy,2022.2.4,Win32,60.50338819,Chrome,1500,1000,,,,,10,1176,,,,,,,,,,,,,,,,,139,S,star,1,0,,,,,,,,,,,,,,,,switch,number,numSwt,d,0.4685,Hi,,,,,,4,,,,,,,,high,6,0,6,0,1,,,,,,,,,
293068,2022-10-06_09h00.19.351,vts_reward_expectancy,2022.2.4,Win32,60.50338819,Chrome,1500,1000,,,,,10,1186,,,,,,,,,,,,,,,,,125,D,circle,1,0,,,,,,,,,,,,,,,,repeat,number,numRpt,d,0.5976,Lo,,,,,,4,,,,,,,,high,7,0,7,0,1,,,,,,,,,
293068,2022-10-06_09h00.19.351,vts_reward_expectancy,2022.2.4,Win32,60.50338819,Chrome,1500,1000,,,,,1,1187,,,,,,,,,,,,,,,,,146,Y,circle,1,0,,,,,,,,,,,,,,,,repeat,number,numRpt,d,0.5817,Lo,,,,,,4,,,,,,,,high,8,0,8,0,1,,,,,,,,,
293068,2022-10-06_09h00.19.351,vts_reward_expectancy,2022.2.4,Win32,60.50338819,Chrome,1500,1000,,,,,0,1187,,,,,,,,,,,,,,,,,167,B,star,1,0,,,,,,,,,,,,,,,,switch,letter,lettSwt,j,0.6147,Hi,,,,,,4,,,,,,,,high,9,0,9,0,1,,,,,,,,,
293068,2022-10-06_09h00.19.351,vts_reward_expectancy,2022.2.4,Win32,60.50338819,Chrome,1500,1000,,,,,0,1187,,,,,,,,,,,,,,,,,160,F,star,1,0,,,,,,,,,,,,,,,,repeat,letter,lettRpt,j,0.6316,Hi,,,,,,4,,,,,,,,high,10,0,10,0,1,,,,,,,,,
293068,2022-10-06_09h00.19.351,vts_reward_expectancy,2022.2.4,Win32,60.50338819,Chrome,1500,1000,,,,,1,1188,,,,,,,,,,,,,,,,,132,H,circle,1,0,,,,,,,,,,,,,,,,repeat,letter,lettRpt,j,0.5696,Lo,,,,,,4,,,,,,,,high,11,0,11,0,1,,,,,,,,,
293068,2022-10-06_09h00.19.351,vts_reward_expectancy,2022.2.4,Win32,60.50338819,Chrome,1500,1000,,,,,0,1188,,,,,,,,,,,,,,,,,174,U,star,1,0,,,,,,,,,,,,,,,,switch,number,numSwt,f,0.664,Hi,,,,,,4,,,,,,,,high,12,0,12,0,1,,,,,,,,,
293068,2022-10-06_09h00.19.351,vts_reward_expectancy,2022.2.4,Win32,60.50338819,Chrome,1500,1000,,,,,1,1189,,,,,,,,,,,,,,,,,181,W,circle,1,0,,,,,,,,,,,,,,,,repeat,number,numRpt,f,0.5313,Lo,,,,,,4,,,,,,,,high,13,0,13,0,1,,,,,,,,,
293068,2022-10-06_09h00.19.351,vts_reward_expectancy,2022.2.4,Win32,60.50338819,Chrome,1500,1000,,,,,10,1199,,,,,,,,,,,,,,,,,139,S,circle,1,0,,,,,,,,,,,,,,,,repeat,number,numRpt,d,0.5985,Lo,,,,,,4,,,,,,,,high,14,0,14,0,1,,,,,,,,,
293068,2022-10-06_09h00.19.351,vts_reward_expectancy,2022.2.4,Win32,60.50338819,Chrome,1500,1000,,,,,1,1200,,,,,,,,,,,,,,,,,125,D,star,1,0,,,,,,,,,,,,,,,,repeat,number,numRpt,d,0.5367,Hi,,,,,,4,,,,,,,,high,15,0,15,0,1,,,,,,,,,
293068,2022-10-06_09h00.19.351,vts_reward_expectancy,2022.2.4,Win32,60.50338819,Chrome,1500,1000,,,,,1,1201,,,,,,,,,,,,,,,,,132,B,circle,1,0,,,,,,,,,,,,,,,,switch,letter,lettSwt,j,0.5539,Lo,,,,,,4,,,,,,,,high,16,0,16,0,1,,,,,,,,,
293068,2022-10-06_09h00.19.351,vts_reward_expectancy,2022.2.4,Win32,60.50338819,Chrome,1500,1000,,,,,10,1211,,,,,,,,,,,,,,,,,139,Y,star,1,0,,,,,,,,,,,,,,,,repeat,letter,lettRpt,k,0.5854,Hi,,,,,,4,,,,,,,,high,17,0,17,0,1,,,,,,,,,
293068,2022-10-06_09h00.19.351,vts_reward_expectancy,2022.2.4,Win32,60.50338819,Chrome,1500,1000,,,,,10,1221,,,,,,,,,,,,,,,,,125,U,star,1,0,,,,,,,,,,,,,,,,switch,number,numSwt,d,0.5968,Hi,,,,,,4,,,,,,,,high,18,0,18,0,1,,,,,,,,,
293068,2022-10-06_09h00.19.351,vts_reward_expectancy,2022.2.4,Win32,60.50338819,Chrome,1500,1000,,,,,1,1222,,,,,,,,,,,,,,,,,167,H,circle,1,0,,,,,,,,,,,,,,,,repeat,number,numRpt,f,0.6195,Lo,,,,,,4,,,,,,,,high,19,0,19,0,1,,,,,,,,,
293068,2022-10-06_09h00.19.351,vts_reward_expectancy,2022.2.4,Win32,60.50338819,Chrome,1500,1000,,,,,10,1232,,,,,,,,,,,,,,,,,146,W,circle,1,0,,,,,,,,,,,,,,,,switch,letter,lettSwt,k,0.5309,Lo,,,,,,4,,,,,,,,high,20,0,20,0,1,,,,,,,,,
293068,2022-10-06_09h00.19.351,vts_reward_expectancy,2022.2.4,Win32,60.50338819,Chrome,1500,1000,,,,,0,1232,,,,,,,,,,,,,,,,,160,F,star,1,0,,,,,,,,,,,,,,,,repeat,letter,lettRpt,j,0.6877,Hi,,,,,,4,,,,,,,,high,21,0,21,0,1,,,,,,,,,
293068,2022-10-06_09h00.19.351,vts_reward_expectancy,2022.2.4,Win32,60.50338819,Chrome,1500,1000,,,,,10,1242,,,,,,,,,,,,,,,,,174,S,star,1,0,,,,,,,,,,,,,,,,switch,number,numSwt,f,0.5647,Hi,,,,,,4,,,,,,,,high,22,0,22,0,1,,,,,,,,,
293068,2022-10-06_09h00.19.351,vts_reward_expectancy,2022.2.4,Win32,60.50338819,Chrome,1500,1000,,,,,1,1243,,,,,,,,,,,,,,,,,181,D,circle,1,0,,,,,,,,,,,,,,,,repeat,number,numRpt,f,0.8461,Lo,,,,,,4,,,,,,,,high,23,0,23,0,1,,,,,,,,,
293068,2022-10-06_09h00.19.351,vts_reward_expectancy,2022.2.4,Win32,60.50338819,Chrome,1500,1000,,,,,10,1253,,,,,,,,,,,,,,,,,125,U,star,1,0,,,,,,,,,,,,,,,,switch,letter,lettSwt,k,0.505,Hi,,,,,,4,,,,,,,,high,24,0,24,0,1,,,,,,,,,
293068,2022-10-06_09h00.19.351,vts_reward_expectancy,2022.2.4,Win32,60.50338819,Chrome,1500,1000,,,,,10,1263,,,,,,,,,,,,,,,,,174,F,circle,1,0,,,,,,,,,,,,,,,,repeat,letter,lettRpt,j,0.7139,Lo,,,,,,4,,,,,,,,high,25,0,25,0,1,,,,,,,,,
293068,2022-10-06_09h00.19.351,vts_reward_expectancy,2022.2.4,Win32,60.50338819,Chrome,1500,1000,,,,,1,1264,,,,,,,,,,,,,,,,,167,D,circle,1,0,,,,,,,,,,,,,,,,switch,number,numSwt,f,0.471,Lo,,,,,,4,,,,,,,,high,26,0,26,0,1,,,,,,,,,
293068,2022-10-06_09h00.19.351,vts_reward_expectancy,2022.2.4,Win32,60.50338819,Chrome,1500,1000,,,,,10,1274,,,,,,,,,,,,,,,,,160,W,star,1,0,,,,,,,,,,,,,,,,repeat,number,numRpt,f,0.5178,Hi,,,,,,4,,,,,,,,high,27,0,27,0,1,,,,,,,,,
293068,2022-10-06_09h00.19.351,vts_reward_expectancy,2022.2.4,Win32,60.50338819,Chrome,1500,1000,,,,,1,1275,,,,,,,,,,,,,,,,,132,Y,circle,1,0,,,,,,,,,,,,,,,,repeat,number,numRpt,d,0.6147,Lo,,,,,,4,,,,,,,,high,28,0,28,0,1,,,,,,,,,
293068,2022-10-06_09h00.19.351,vts_reward_expectancy,2022.2.4,Win32,60.50338819,Chrome,1500,1000,,,,,0,1275,,,,,,,,,,,,,,,,,146,B,star,1,0,,,,,,,,,,,,,,,,switch,letter,lettSwt,j,0.5639,Hi,,,,,,4,,,,,,,,high,29,0,29,0,1,,,,,,,,,
293068,2022-10-06_09h00.19.351,vts_reward_expectancy,2022.2.4,Win32,60.50338819,Chrome,1500,1000,,,,,10,1285,,,,,,,,,,,,,,,,,181,H,star,1,0,,,,,,,,,,,,,,,,repeat,letter,lettRpt,j,0.5478,Hi,,,,,,4,,,,,,,,high,30,0,30,0,1,,,,,,,,,
293068,2022-10-06_09h00.19.351,vts_reward_expectancy,2022.2.4,Win32,60.50338819,Chrome,1500,1000,,,,,10,1295,,,,,,,,,,,,,,,,,139,S,circle,1,0,,,,,,,,,,,,,,,,repeat,letter,lettRpt,k,0.6149,Lo,,,,,,4,,,,,,,,high,31,0,31,0,1,,,,,,,,,
293068,2022-10-06_09h00.19.351,vts_reward_expectancy,2022.2.4,Win32,60.50338819,Chrome,1500,1000,,,,,10,1305,,,,,,,,,,,,,,,,,167,H,star,1,0,,,,,,,,,,,,,,,,switch,number,numSwt,f,0.4507,Hi,,,,,,5,,,,,,space,0.786,high,0,0,0,0,1,,,,,,,,,
293068,2022-10-06_09h00.19.351,vts_reward_expectancy,2022.2.4,Win32,60.50338819,Chrome,1500,1000,,,,,1,1306,,,,,,,,,,,,,,,,,181,D,circle,1,0,,,,,,,,,,,,,,,,repeat,number,numRpt,f,0.5986,Lo,,,,,,5,,,,,,,,high,1,0,1,0,1,,,,,,,,,
293068,2022-10-06_09h00.19.351,vts_reward_expectancy,2022.2.4,Win32,60.50338819,Chrome,1500,1000,,,,,0,1306,,,,,,,,,,,,,,,,,146,W,star,1,0,,,,,,,,,,,,,,,,switch,letter,lettSwt,k,0.5674,Hi,,,,,,5,,,,,,,,high,2,0,2,0,1,,,,,,,,,
293068,2022-10-06_09h00.19.351,vts_reward_expectancy,2022.2.4,Win32,60.50338819,Chrome,1500,1000,,,,,1,1307,,,,,,,,,,,,,,,,,174,U,circle,1,0,,,,,,,,,,,,,,,,repeat,letter,lettRpt,k,0.5495,Lo,,,,,,5,,,,,,,,high,3,0,3,0,1,,,,,,,,,
293068,2022-10-06_09h00.19.351,vts_reward_expectancy,2022.2.4,Win32,60.50338819,Chrome,1500,1000,,,,,10,1317,,,,,,,,,,,,,,,,,139,B,star,1,0,,,,,,,,,,,,,,,,repeat,letter,lettRpt,j,0.4151,Hi,,,,,,5,,,,,,,,high,4,0,4,0,1,,,,,,,,,
293068,2022-10-06_09h00.19.351,vts_reward_expectancy,2022.2.4,Win32,60.50338819,Chrome,1500,1000,,,,,1,1318,,,,,,,,,,,,,,,,,125,F,circle,1,0,,,,,,,,,,,,,,,,switch,number,numSwt,d,0.5977,Lo,,,,,,5,,,,,,,,high,5,0,5,0,1,,,,,,,,,
293068,2022-10-06_09h00.19.351,vts_reward_expectancy,2022.2.4,Win32,60.50338819,Chrome,1500,1000,,,,,1,1319,,,,,,,,,,,,,,,,,160,S,circle,1,0,,,,,,,,,,,,,,,,repeat,number,numRpt,f,0.4315,Lo,,,,,,5,,,,,,,,high,6,0,6,0,1,,,,,,,,,
293068,2022-10-06_09h00.19.351,vts_reward_expectancy,2022.2.4,Win32,60.50338819,Chrome,1500,1000,,,,,1,1320,,,,,,,,,,,,,,,,,132,Y,star,1,0,,,,,,,,,,,,,,,,repeat,number,numRpt,d,0.5205,Hi,,,,,,5,,,,,,,,high,7,0,7,0,1,,,,,,,,,
293068,2022-10-06_09h00.19.351,vts_reward_expectancy,2022.2.4,Win32,60.50338819,Chrome,1500,1000,,,,,1,1321,,,,,,,,,,,,,,,,,167,H,circle,1,0,,,,,,,,,,,,,,,,switch,letter,lettSwt,j,0.7641,Lo,,,,,,5,,,,,,,,high,8,0,8,0,1,,,,,,,,,
293068,2022-10-06_09h00.19.351,vts_reward_expectancy,2022.2.4,Win32,60.50338819,Chrome,1500,1000,,,,,0,1321,,,,,,,,,,,,,,,,,181,D,star,1,0,,,,,,,,,,,,,,,,repeat,letter,lettRpt,j,0.6132,Hi,,,,,,5,,,,,,,,high,9,0,9,0,1,,,,,,,,,
293068,2022-10-06_09h00.19.351,vts_reward_expectancy,2022.2.4,Win32,60.50338819,Chrome,1500,1000,,,,,10,1331,,,,,,,,,,,,,,,,,146,W,star,1,0,,,,,,,,,,,,,,,,repeat,letter,lettRpt,k,0.4524,Hi,,,,,,5,,,,,,,,high,10,0,10,0,1,,,,,,,,,
293068,2022-10-06_09h00.19.351,vts_reward_expectancy,2022.2.4,Win32,60.50338819,Chrome,1500,1000,,,,,1,1332,,,,,,,,,,,,,,,,,174,U,circle,1,0,,,,,,,,,,,,,,,,repeat,letter,lettRpt,k,0.5644,Lo,,,,,,5,,,,,,,,high,11,0,11,0,1,,,,,,,,,
293068,2022-10-06_09h00.19.351,vts_reward_expectancy,2022.2.4,Win32,60.50338819,Chrome,1500,1000,,,,,1,1333,,,,,,,,,,,,,,,,,139,B,circle,1,0,,,,,,,,,,,,,,,,repeat,letter,lettRpt,j,0.5668,Lo,,,,,,5,,,,,,,,high,12,0,12,0,1,,,,,,,,,
293068,2022-10-06_09h00.19.351,vts_reward_expectancy,2022.2.4,Win32,60.50338819,Chrome,1500,1000,,,,,0,1333,,,,,,,,,,,,,,,,,125,F,star,1,0,,,,,,,,,,,,,,,,switch,number,numSwt,d,0.6147,Hi,,,,,,5,,,,,,,,high,13,0,13,0,1,,,,,,,,,
293068,2022-10-06_09h00.19.351,vts_reward_expectancy,2022.2.4,Win32,60.50338819,Chrome,1500,1000,,,,,0,1333,,,,,,,,,,,,,,,,,160,S,star,1,0,,,,,,,,,,,,,,,,repeat,number,numRpt,f,0.6993,Hi,,,,,,5,,,,,,,,high,14,0,14,0,1,,,,,,,,,
293068,2022-10-06_09h00.19.351,vts_reward_expectancy,2022.2.4,Win32,60.50338819,Chrome,1500,1000,,,,,10,1343,,,,,,,,,,,,,,,,,132,Y,circle,1,0,,,,,,,,,,,,,,,,repeat,number,numRpt,d,0.5486,Lo,,,,,,5,,,,,,,,high,15,0,15,0,1,,,,,,,,,
293068,2022-10-06_09h00.19.351,vts_reward_expectancy,2022.2.4,Win32,60.50338819,Chrome,1500,1000,,,,,0,1343,,,,,,,,,,,,,,,,,167,S,star,1,0,,,,,,,,,,,,,,,,switch,letter,lettSwt,k,0.5648,Hi,,,,,,5,,,,,,,,high,16,0,16,0,1,,,,,,,,,
293068,2022-10-06_09h00.19.351,vts_reward_expectancy,2022.2.4,Win32,60.50338819,Chrome,1500,1000,,,,,0,1343,,,,,,,,,,,,,,,,,146,W,circle,0,0,,,,,,,,,,,,,,,,switch,number,NA,f,0.5146,Hi,,,,,,5,,,,,,,,high,17,0,17,0,1,,,,,,,,,
293068,2022-10-06_09h00.19.351,vts_reward_expectancy,2022.2.4,Win32,60.50338819,Chrome,1500,1000,,,,,1,1344,,,,,,,,,,,,,,,,,125,Y,circle,1,1,,,,,,,,,,,,,,,,repeat,number,numRpt,d,0.632,Lo,,,,,,5,,,,,,,,high,18,0,18,0,1,,,,,,,,,
293068,2022-10-06_09h00.19.351,vts_reward_expectancy,2022.2.4,Win32,60.50338819,Chrome,1500,1000,,,,,10,1354,,,,,,,,,,,,,,,,,174,D,star,1,0,,,,,,,,,,,,,,,,repeat,number,numRpt,f,0.4813,Hi,,,,,,5,,,,,,,,high,19,0,19,0,1,,,,,,,,,
293068,2022-10-06_09h00.19.351,vts_reward_expectancy,2022.2.4,Win32,60.50338819,Chrome,1500,1000,,,,,0,1354,,,,,,,,,,,,,,,,,160,F,star,1,0,,,,,,,,,,,,,,,,switch,letter,lettSwt,j,0.5646,Hi,,,,,,5,,,,,,,,high,20,0,20,0,1,,,,,,,,,
293068,2022-10-06_09h00.19.351,vts_reward_expectancy,2022.2.4,Win32,60.50338819,Chrome,1500,1000,,,,,1,1355,,,,,,,,,,,,,,,,,132,H,circle,1,0,,,,,,,,,,,,,,,,repeat,letter,lettRpt,j,0.6475,Lo,,,,,,5,,,,,,,,high,21,0,21,0,1,,,,,,,,,
293068,2022-10-06_09h00.19.351,vts_reward_expectancy,2022.2.4,Win32,60.50338819,Chrome,1500,1000,,,,,0,1355,,,,,,,,,,,,,,,,,181,B,star,1,0,,,,,,,,,,,,,,,,repeat,letter,lettRpt,j,0.5884,Hi,,,,,,5,,,,,,,,high,22,0,22,0,1,,,,,,,,,
293068,2022-10-06_09h00.19.351,vts_reward_expectancy,2022.2.4,Win32,60.50338819,Chrome,1500,1000,,,,,1,1356,,,,,,,,,,,,,,,,,139,U,circle,1,0,,,,,,,,,,,,,,,,switch,number,numSwt,d,0.4833,Lo,,,,,,5,,,,,,,,high,23,0,23,0,1,,,,,,,,,
293068,2022-10-06_09h00.19.351,vts_reward_expectancy,2022.2.4,Win32,60.50338819,Chrome,1500,1000,,,,,1,1357,,,,,,,,,,,,,,,,,160,W,circle,1,0,,,,,,,,,,,,,,,,switch,letter,lettSwt,k,0.5325,Lo,,,,,,5,,,,,,,,high,24,0,24,0,1,,,,,,,,,
293068,2022-10-06_09h00.19.351,vts_reward_expectancy,2022.2.4,Win32,60.50338819,Chrome,1500,1000,,,,,10,1367,,,,,,,,,,,,,,,,,174,S,star,1,0,,,,,,,,,,,,,,,,switch,number,numSwt,f,0.4139,Hi,,,,,,5,,,,,,,,high,25,0,25,0,1,,,,,,,,,
293068,2022-10-06_09h00.19.351,vts_reward_expectancy,2022.2.4,Win32,60.50338819,Chrome,1500,1000,,,,,10,1377,,,,,,,,,,,,,,,,,132,F,circle,1,0,,,,,,,,,,,,,,,,repeat,number,numRpt,d,0.5876,Lo,,,,,,5,,,,,,,,high,26,0,26,0,1,,,,,,,,,
293068,2022-10-06_09h00.19.351,vts_reward_expectancy,2022.2.4,Win32,60.50338819,Chrome,1500,1000,,,,,0,1377,,,,,,,,,,,,,,,,,181,B,star,1,0,,,,,,,,,,,,,,,,switch,letter,lettSwt,j,0.5817,Hi,,,,,,5,,,,,,,,high,27,0,27,0,1,,,,,,,,,
293068,2022-10-06_09h00.19.351,vts_reward_expectancy,2022.2.4,Win32,60.50338819,Chrome,1500,1000,,,,,1,1378,,,,,,,,,,,,,,,,,139,D,circle,1,0,,,,,,,,,,,,,,,,repeat,letter,lettRpt,j,0.7807,Lo,,,,,,5,,,,,,,,high,28,0,28,0,1,,,,,,,,,
293068,2022-10-06_09h00.19.351,vts_reward_expectancy,2022.2.4,Win32,60.50338819,Chrome,1500,1000,,,,,0,1378,,,,,,,,,,,,,,,,,125,Y,star,1,0,,,,,,,,,,,,,,,,switch,number,numSwt,d,0.5473,Hi,,,,,,5,,,,,,,,high,29,0,29,0,1,,,,,,,,,
293068,2022-10-06_09h00.19.351,vts_reward_expectancy,2022.2.4,Win32,60.50338819,Chrome,1500,1000,,,,,1,1379,,,,,,,,,,,,,,,,,167,H,circle,1,0,,,,,,,,,,,,,,,,repeat,number,numRpt,f,0.5818,Lo,,,,,,5,,,,,,,,high,30,0,30,0,1,,,,,,,,,
293068,2022-10-06_09h00.19.351,vts_reward_expectancy,2022.2.4,Win32,60.50338819,Chrome,1500,1000,,,,,0,1379,,,,,,,,,,,,,,,,,146,U,star,1,0,,,,,,,,,,,,,,,,switch,letter,lettSwt,k,0.564,Hi,,,,,,5,,,,,,,,high,31,0,31,0,1,,,,,,,,,
293068,2022-10-06_09h00.19.351,vts_reward_expectancy,2022.2.4,Win32,60.50338819,Chrome,1500,1000,,,,,,,,,,,,,,,,,,,,,,,,,,,,,,,,,,,,,,,,,,,,,,,,,,,,,,6,,,,,,,,,,,,,,I was asked to identify whether a number was above or below 153 or whether a letter was closer to A or B.,2,I couldnt find a pattern with the shapes,5,3,,2,1500,1000
