participant,date,expName,psychopyVersion,OS,frameRate,browser,xResolution,yResolution,key_resp.keys,key_resp.rt,training_resp.keys,training_resp.rt,points_trial,points_cumul,trainBlock,training.thisRepN,training.thisTrialN,training.thisN,training.thisIndex,training.ran,LTriangleOpac,LCircleOpac,LHexagonOpac,LStarOpac,RTriangleOpac,RCircleOpac,RHexagonOpac,RStarOpac,LShape_ID,RShape_ID,curr_topStim,curr_bottStim,curr_shape,acc,E1,target_resp_prac1.keys,target_resp_prac1.rt,pracBlock,task1_prac_trials.thisRepN,task1_prac_trials.thisTrialN,task1_prac_trials.thisN,task1_prac_trials.thisIndex,task1_prac_trials.ran,target_resp_prac2.keys,target_resp_prac2.rt,task2_praac_trials.thisRepN,task2_praac_trials.thisTrialN,task2_praac_trials.thisN,task2_praac_trials.thisIndex,task2_praac_trials.ran,alt,task,condition,target_resp.keys,target_resp.rt,rewCond,vts_practice_trials.thisRepN,vts_practice_trials.thisTrialN,vts_practice_trials.thisN,vts_practice_trials.thisIndex,vts_practice_trials.ran,blockNum,trials_norew.thisRepN,trials_norew.thisTrialN,trials_norew.thisN,trials_norew.thisIndex,trials_norew.ran,key_resp_2.keys,key_resp_2.rt,rewExpect,trials_rew.thisRepN,trials_rew.thisTrialN,trials_rew.thisN,trials_rew.thisIndex,trials_rew.ran,Q1,Q2,Q2_text,Q3,Q4,Q5_text,Q5,xRes,yRes
292450,2022-09-21_17h06.52.164,vts_reward_expectancy,2022.2.4,Win32,60.0024001,Chrome,1366,768,,,,,,,,,,,,,,,,,,,,,,,,,,,,,,,,,,,,,,,,,,,,,,,,,,,,,,,,,,,,,,,,,,,,,,,,,,,,
292450,2022-09-21_17h06.52.164,vts_reward_expectancy,2022.2.4,Win32,60.0024001,Chrome,1366,768,space,4.2378,,,,,,,,,,,,,,,,,,,,,,,,,,,,,,,,,,,,,,,,,,,,,,,,,,,,,,,,,,,,,,,,,,,,,,,,,,
292450,2022-09-21_17h06.52.164,vts_reward_expectancy,2022.2.4,Win32,60.0024001,Chrome,1366,768,,,,,,,,,,,,,,,,,,,,,,,,,,,,,,,,,,,,,,,,,,,,,,,,,,,,,,,,,,,,,,,,,,,,,,,,,,,,
292450,2022-09-21_17h06.52.164,vts_reward_expectancy,2022.2.4,Win32,60.0024001,Chrome,1366,768,,,a,2.847,10,10,0,0,0,0,1,1,1,0,0,0,0,0,1,0,triangle,hexagon,,,,,,,,,,,,,,,,,,,,,,,,,,,,,,,,,,,,,,,,,,,,,,,,,,,,,,
292450,2022-09-21_17h06.52.164,vts_reward_expectancy,2022.2.4,Win32,60.0024001,Chrome,1366,768,,,a,2.5997,10,20,0,0,1,1,2,1,1,0,0,0,0,0,0,1,triangle,star,,,,,,,,,,,,,,,,,,,,,,,,,,,,,,,,,,,,,,,,,,,,,,,,,,,,,,
292450,2022-09-21_17h06.52.164,vts_reward_expectancy,2022.2.4,Win32,60.0024001,Chrome,1366,768,,,l,1.3335,1,21,0,0,2,2,11,1,0,0,0,1,0,0,1,0,star,hexagon,,,,,,,,,,,,,,,,,,,,,,,,,,,,,,,,,,,,,,,,,,,,,,,,,,,,,,
292450,2022-09-21_17h06.52.164,vts_reward_expectancy,2022.2.4,Win32,60.0024001,Chrome,1366,768,,,l,1.5891,1,22,0,0,3,3,0,1,1,0,0,0,0,1,0,0,triangle,circle,,,,,,,,,,,,,,,,,,,,,,,,,,,,,,,,,,,,,,,,,,,,,,,,,,,,,,
292450,2022-09-21_17h06.52.164,vts_reward_expectancy,2022.2.4,Win32,60.0024001,Chrome,1366,768,,,a,1.2083,1,23,0,0,4,4,7,1,0,0,1,0,0,1,0,0,hexagon,circle,,,,,,,,,,,,,,,,,,,,,,,,,,,,,,,,,,,,,,,,,,,,,,,,,,,,,,
292450,2022-09-21_17h06.52.164,vts_reward_expectancy,2022.2.4,Win32,60.0024001,Chrome,1366,768,,,l,1.3804,10,33,0,0,5,5,9,1,0,0,0,1,1,0,0,0,star,triangle,,,,,,,,,,,,,,,,,,,,,,,,,,,,,,,,,,,,,,,,,,,,,,,,,,,,,,
292450,2022-09-21_17h06.52.164,vts_reward_expectancy,2022.2.4,Win32,60.0024001,Chrome,1366,768,,,l,1.1503,10,43,0,0,6,6,5,1,0,1,0,0,0,0,0,1,circle,star,,,,,,,,,,,,,,,,,,,,,,,,,,,,,,,,,,,,,,,,,,,,,,,,,,,,,,
292450,2022-09-21_17h06.52.164,vts_reward_expectancy,2022.2.4,Win32,60.0024001,Chrome,1366,768,,,l,1.1676,10,53,0,0,7,7,6,1,0,0,1,0,1,0,0,0,hexagon,triangle,,,,,,,,,,,,,,,,,,,,,,,,,,,,,,,,,,,,,,,,,,,,,,,,,,,,,,
292450,2022-09-21_17h06.52.164,vts_reward_expectancy,2022.2.4,Win32,60.0024001,Chrome,1366,768,,,a,1.4099,10,63,0,0,8,8,10,1,0,0,0,1,0,1,0,0,star ,circle,,,,,,,,,,,,,,,,,,,,,,,,,,,,,,,,,,,,,,,,,,,,,,,,,,,,,,
292450,2022-09-21_17h06.52.164,vts_reward_expectancy,2022.2.4,Win32,60.0024001,Chrome,1366,768,,,l,1.18,10,73,0,0,9,9,4,1,0,1,0,0,0,0,1,0,circle,hexagon,,,,,,,,,,,,,,,,,,,,,,,,,,,,,,,,,,,,,,,,,,,,,,,,,,,,,,
292450,2022-09-21_17h06.52.164,vts_reward_expectancy,2022.2.4,Win32,60.0024001,Chrome,1366,768,,,l,1.0309,10,83,0,0,10,10,3,1,0,1,0,0,1,0,0,0,circle,triangle,,,,,,,,,,,,,,,,,,,,,,,,,,,,,,,,,,,,,,,,,,,,,,,,,,,,,,
292450,2022-09-21_17h06.52.164,vts_reward_expectancy,2022.2.4,Win32,60.0024001,Chrome,1366,768,,,l,0.9172,1,84,0,0,11,11,8,1,0,0,1,0,0,0,0,1,hexagon,star,,,,,,,,,,,,,,,,,,,,,,,,,,,,,,,,,,,,,,,,,,,,,,,,,,,,,,
292450,2022-09-21_17h06.52.164,vts_reward_expectancy,2022.2.4,Win32,60.0024001,Chrome,1366,768,,,l,0.7326,10,94,0,1,0,12,3,1,0,1,0,0,1,0,0,0,circle,triangle,,,,,,,,,,,,,,,,,,,,,,,,,,,,,,,,,,,,,,,,,,,,,,,,,,,,,,
292450,2022-09-21_17h06.52.164,vts_reward_expectancy,2022.2.4,Win32,60.0024001,Chrome,1366,768,,,l,1.0836,10,104,0,1,1,13,6,1,0,0,1,0,1,0,0,0,hexagon,triangle,,,,,,,,,,,,,,,,,,,,,,,,,,,,,,,,,,,,,,,,,,,,,,,,,,,,,,
292450,2022-09-21_17h06.52.164,vts_reward_expectancy,2022.2.4,Win32,60.0024001,Chrome,1366,768,,,a,1.3935,10,114,0,1,2,14,7,1,0,0,1,0,0,1,0,0,hexagon,circle,,,,,,,,,,,,,,,,,,,,,,,,,,,,,,,,,,,,,,,,,,,,,,,,,,,,,,
292450,2022-09-21_17h06.52.164,vts_reward_expectancy,2022.2.4,Win32,60.0024001,Chrome,1366,768,,,l,0.7422,1,115,0,1,3,15,8,1,0,0,1,0,0,0,0,1,hexagon,star,,,,,,,,,,,,,,,,,,,,,,,,,,,,,,,,,,,,,,,,,,,,,,,,,,,,,,
292450,2022-09-21_17h06.52.164,vts_reward_expectancy,2022.2.4,Win32,60.0024001,Chrome,1366,768,,,a,0.8141,10,125,0,1,4,16,0,1,1,0,0,0,0,1,0,0,triangle,circle,,,,,,,,,,,,,,,,,,,,,,,,,,,,,,,,,,,,,,,,,,,,,,,,,,,,,,
292450,2022-09-21_17h06.52.164,vts_reward_expectancy,2022.2.4,Win32,60.0024001,Chrome,1366,768,,,l,1.3622,10,135,0,1,5,17,4,1,0,1,0,0,0,0,1,0,circle,hexagon,,,,,,,,,,,,,,,,,,,,,,,,,,,,,,,,,,,,,,,,,,,,,,,,,,,,,,
292450,2022-09-21_17h06.52.164,vts_reward_expectancy,2022.2.4,Win32,60.0024001,Chrome,1366,768,,,a,0.9048,1,136,0,1,6,18,1,1,1,0,0,0,0,0,1,0,triangle,hexagon,,,,,,,,,,,,,,,,,,,,,,,,,,,,,,,,,,,,,,,,,,,,,,,,,,,,,,
292450,2022-09-21_17h06.52.164,vts_reward_expectancy,2022.2.4,Win32,60.0024001,Chrome,1366,768,,,l,1.0006,1,137,0,1,7,19,2,1,1,0,0,0,0,0,0,1,triangle,star,,,,,,,,,,,,,,,,,,,,,,,,,,,,,,,,,,,,,,,,,,,,,,,,,,,,,,
292450,2022-09-21_17h06.52.164,vts_reward_expectancy,2022.2.4,Win32,60.0024001,Chrome,1366,768,,,a,0.6522,1,138,0,1,8,20,11,1,0,0,0,1,0,0,1,0,star,hexagon,,,,,,,,,,,,,,,,,,,,,,,,,,,,,,,,,,,,,,,,,,,,,,,,,,,,,,
292450,2022-09-21_17h06.52.164,vts_reward_expectancy,2022.2.4,Win32,60.0024001,Chrome,1366,768,,,l,0.6838,1,139,0,1,9,21,9,1,0,0,0,1,1,0,0,0,star,triangle,,,,,,,,,,,,,,,,,,,,,,,,,,,,,,,,,,,,,,,,,,,,,,,,,,,,,,
292450,2022-09-21_17h06.52.164,vts_reward_expectancy,2022.2.4,Win32,60.0024001,Chrome,1366,768,,,l,0.9172,10,149,0,1,10,22,5,1,0,1,0,0,0,0,0,1,circle,star,,,,,,,,,,,,,,,,,,,,,,,,,,,,,,,,,,,,,,,,,,,,,,,,,,,,,,
292450,2022-09-21_17h06.52.164,vts_reward_expectancy,2022.2.4,Win32,60.0024001,Chrome,1366,768,,,a,1.4654,10,159,0,1,11,23,10,1,0,0,0,1,0,1,0,0,star ,circle,,,,,,,,,,,,,,,,,,,,,,,,,,,,,,,,,,,,,,,,,,,,,,,,,,,,,,
292450,2022-09-21_17h06.52.164,vts_reward_expectancy,2022.2.4,Win32,60.0024001,Chrome,1366,768,,,l,1.1334,10,169,0,2,0,24,1,1,1,0,0,0,0,0,1,0,triangle,hexagon,,,,,,,,,,,,,,,,,,,,,,,,,,,,,,,,,,,,,,,,,,,,,,,,,,,,,,
292450,2022-09-21_17h06.52.164,vts_reward_expectancy,2022.2.4,Win32,60.0024001,Chrome,1366,768,,,l,2.2963,1,170,0,2,1,25,4,1,0,1,0,0,0,0,1,0,circle,hexagon,,,,,,,,,,,,,,,,,,,,,,,,,,,,,,,,,,,,,,,,,,,,,,,,,,,,,,
292450,2022-09-21_17h06.52.164,vts_reward_expectancy,2022.2.4,Win32,60.0024001,Chrome,1366,768,,,l,1.3338,10,180,0,2,2,26,6,1,0,0,1,0,1,0,0,0,hexagon,triangle,,,,,,,,,,,,,,,,,,,,,,,,,,,,,,,,,,,,,,,,,,,,,,,,,,,,,,
292450,2022-09-21_17h06.52.164,vts_reward_expectancy,2022.2.4,Win32,60.0024001,Chrome,1366,768,,,l,0.8835,10,190,0,2,3,27,3,1,0,1,0,0,1,0,0,0,circle,triangle,,,,,,,,,,,,,,,,,,,,,,,,,,,,,,,,,,,,,,,,,,,,,,,,,,,,,,
292450,2022-09-21_17h06.52.164,vts_reward_expectancy,2022.2.4,Win32,60.0024001,Chrome,1366,768,,,a,1.4009,1,191,0,2,4,28,2,1,1,0,0,0,0,0,0,1,triangle,star,,,,,,,,,,,,,,,,,,,,,,,,,,,,,,,,,,,,,,,,,,,,,,,,,,,,,,
292450,2022-09-21_17h06.52.164,vts_reward_expectancy,2022.2.4,Win32,60.0024001,Chrome,1366,768,,,a,1.5162,10,201,0,2,5,29,7,1,0,0,1,0,0,1,0,0,hexagon,circle,,,,,,,,,,,,,,,,,,,,,,,,,,,,,,,,,,,,,,,,,,,,,,,,,,,,,,
292450,2022-09-21_17h06.52.164,vts_reward_expectancy,2022.2.4,Win32,60.0024001,Chrome,1366,768,,,a,0.8672,10,211,0,2,6,30,10,1,0,0,0,1,0,1,0,0,star ,circle,,,,,,,,,,,,,,,,,,,,,,,,,,,,,,,,,,,,,,,,,,,,,,,,,,,,,,
292450,2022-09-21_17h06.52.164,vts_reward_expectancy,2022.2.4,Win32,60.0024001,Chrome,1366,768,,,l,1.0181,1,212,0,2,7,31,8,1,0,0,1,0,0,0,0,1,hexagon,star,,,,,,,,,,,,,,,,,,,,,,,,,,,,,,,,,,,,,,,,,,,,,,,,,,,,,,
292450,2022-09-21_17h06.52.164,vts_reward_expectancy,2022.2.4,Win32,60.0024001,Chrome,1366,768,,,a,1.7154,10,222,0,2,8,32,11,1,0,0,0,1,0,0,1,0,star,hexagon,,,,,,,,,,,,,,,,,,,,,,,,,,,,,,,,,,,,,,,,,,,,,,,,,,,,,,
292450,2022-09-21_17h06.52.164,vts_reward_expectancy,2022.2.4,Win32,60.0024001,Chrome,1366,768,,,l,2.327,1,223,0,2,9,33,5,1,0,1,0,0,0,0,0,1,circle,star,,,,,,,,,,,,,,,,,,,,,,,,,,,,,,,,,,,,,,,,,,,,,,,,,,,,,,
292450,2022-09-21_17h06.52.164,vts_reward_expectancy,2022.2.4,Win32,60.0024001,Chrome,1366,768,,,a,1.1998,10,233,0,2,10,34,0,1,1,0,0,0,0,1,0,0,triangle,circle,,,,,,,,,,,,,,,,,,,,,,,,,,,,,,,,,,,,,,,,,,,,,,,,,,,,,,
292450,2022-09-21_17h06.52.164,vts_reward_expectancy,2022.2.4,Win32,60.0024001,Chrome,1366,768,,,l,1.3672,10,243,0,2,11,35,9,1,0,0,0,1,1,0,0,0,star,triangle,,,,,,,,,,,,,,,,,,,,,,,,,,,,,,,,,,,,,,,,,,,,,,,,,,,,,,
292450,2022-09-21_17h06.52.164,vts_reward_expectancy,2022.2.4,Win32,60.0024001,Chrome,1366,768,,,a,1.7343,1,244,1,0,0,0,9,1,0,0,0,1,1,0,0,0,star,triangle,,,,,,,,,,,,,,,,,,,,,,,,,,,,,,,,,,,,,,,,,,,,,,,,,,,,,,
292450,2022-09-21_17h06.52.164,vts_reward_expectancy,2022.2.4,Win32,60.0024001,Chrome,1366,768,,,a,1.4997,1,245,1,0,1,1,11,1,0,0,0,1,0,0,1,0,star,hexagon,,,,,,,,,,,,,,,,,,,,,,,,,,,,,,,,,,,,,,,,,,,,,,,,,,,,,,
292450,2022-09-21_17h06.52.164,vts_reward_expectancy,2022.2.4,Win32,60.0024001,Chrome,1366,768,,,l,0.6006,10,255,1,0,2,2,1,1,1,0,0,0,0,0,1,0,triangle,hexagon,,,,,,,,,,,,,,,,,,,,,,,,,,,,,,,,,,,,,,,,,,,,,,,,,,,,,,
292450,2022-09-21_17h06.52.164,vts_reward_expectancy,2022.2.4,Win32,60.0024001,Chrome,1366,768,,,l,0.4421,10,265,1,0,3,3,6,1,0,0,1,0,1,0,0,0,hexagon,triangle,,,,,,,,,,,,,,,,,,,,,,,,,,,,,,,,,,,,,,,,,,,,,,,,,,,,,,
292450,2022-09-21_17h06.52.164,vts_reward_expectancy,2022.2.4,Win32,60.0024001,Chrome,1366,768,,,l,1.0195,1,266,1,0,4,4,5,1,0,1,0,0,0,0,0,1,circle,star,,,,,,,,,,,,,,,,,,,,,,,,,,,,,,,,,,,,,,,,,,,,,,,,,,,,,,
292450,2022-09-21_17h06.52.164,vts_reward_expectancy,2022.2.4,Win32,60.0024001,Chrome,1366,768,,,l,1.2334,1,267,1,0,5,5,8,1,0,0,1,0,0,0,0,1,hexagon,star,,,,,,,,,,,,,,,,,,,,,,,,,,,,,,,,,,,,,,,,,,,,,,,,,,,,,,
292450,2022-09-21_17h06.52.164,vts_reward_expectancy,2022.2.4,Win32,60.0024001,Chrome,1366,768,,,a,0.8632,10,277,1,0,6,6,0,1,1,0,0,0,0,1,0,0,triangle,circle,,,,,,,,,,,,,,,,,,,,,,,,,,,,,,,,,,,,,,,,,,,,,,,,,,,,,,
292450,2022-09-21_17h06.52.164,vts_reward_expectancy,2022.2.4,Win32,60.0024001,Chrome,1366,768,,,l,0.7833,10,287,1,0,7,7,3,1,0,1,0,0,1,0,0,0,circle,triangle,,,,,,,,,,,,,,,,,,,,,,,,,,,,,,,,,,,,,,,,,,,,,,,,,,,,,,
292450,2022-09-21_17h06.52.164,vts_reward_expectancy,2022.2.4,Win32,60.0024001,Chrome,1366,768,,,l,1.0654,1,288,1,0,8,8,4,1,0,1,0,0,0,0,1,0,circle,hexagon,,,,,,,,,,,,,,,,,,,,,,,,,,,,,,,,,,,,,,,,,,,,,,,,,,,,,,
292450,2022-09-21_17h06.52.164,vts_reward_expectancy,2022.2.4,Win32,60.0024001,Chrome,1366,768,,,l,0.8859,10,298,1,0,9,9,2,1,1,0,0,0,0,0,0,1,triangle,star,,,,,,,,,,,,,,,,,,,,,,,,,,,,,,,,,,,,,,,,,,,,,,,,,,,,,,
292450,2022-09-21_17h06.52.164,vts_reward_expectancy,2022.2.4,Win32,60.0024001,Chrome,1366,768,,,a,0.7003,10,308,1,0,10,10,10,1,0,0,0,1,0,1,0,0,star ,circle,,,,,,,,,,,,,,,,,,,,,,,,,,,,,,,,,,,,,,,,,,,,,,,,,,,,,,
292450,2022-09-21_17h06.52.164,vts_reward_expectancy,2022.2.4,Win32,60.0024001,Chrome,1366,768,,,l,0.9506,1,309,1,0,11,11,7,1,0,0,1,0,0,1,0,0,hexagon,circle,,,,,,,,,,,,,,,,,,,,,,,,,,,,,,,,,,,,,,,,,,,,,,,,,,,,,,
292450,2022-09-21_17h06.52.164,vts_reward_expectancy,2022.2.4,Win32,60.0024001,Chrome,1366,768,,,a,0.5005,10,319,1,1,0,12,7,1,0,0,1,0,0,1,0,0,hexagon,circle,,,,,,,,,,,,,,,,,,,,,,,,,,,,,,,,,,,,,,,,,,,,,,,,,,,,,,
292450,2022-09-21_17h06.52.164,vts_reward_expectancy,2022.2.4,Win32,60.0024001,Chrome,1366,768,,,a,0.7667,1,320,1,1,1,13,1,1,1,0,0,0,0,0,1,0,triangle,hexagon,,,,,,,,,,,,,,,,,,,,,,,,,,,,,,,,,,,,,,,,,,,,,,,,,,,,,,
292450,2022-09-21_17h06.52.164,vts_reward_expectancy,2022.2.4,Win32,60.0024001,Chrome,1366,768,,,l,0.3442,10,330,1,1,2,14,3,1,0,1,0,0,1,0,0,0,circle,triangle,,,,,,,,,,,,,,,,,,,,,,,,,,,,,,,,,,,,,,,,,,,,,,,,,,,,,,
292450,2022-09-21_17h06.52.164,vts_reward_expectancy,2022.2.4,Win32,60.0024001,Chrome,1366,768,,,l,0.6838,1,331,1,1,3,15,8,1,0,0,1,0,0,0,0,1,hexagon,star,,,,,,,,,,,,,,,,,,,,,,,,,,,,,,,,,,,,,,,,,,,,,,,,,,,,,,
292450,2022-09-21_17h06.52.164,vts_reward_expectancy,2022.2.4,Win32,60.0024001,Chrome,1366,768,,,a,0.5568,1,332,1,1,4,16,2,1,1,0,0,0,0,0,0,1,triangle,star,,,,,,,,,,,,,,,,,,,,,,,,,,,,,,,,,,,,,,,,,,,,,,,,,,,,,,
292450,2022-09-21_17h06.52.164,vts_reward_expectancy,2022.2.4,Win32,60.0024001,Chrome,1366,768,,,a,1.5661,10,342,1,1,5,17,0,1,1,0,0,0,0,1,0,0,triangle,circle,,,,,,,,,,,,,,,,,,,,,,,,,,,,,,,,,,,,,,,,,,,,,,,,,,,,,,
292450,2022-09-21_17h06.52.164,vts_reward_expectancy,2022.2.4,Win32,60.0024001,Chrome,1366,768,,,l,1.1675,1,343,1,1,6,18,6,1,0,0,1,0,1,0,0,0,hexagon,triangle,,,,,,,,,,,,,,,,,,,,,,,,,,,,,,,,,,,,,,,,,,,,,,,,,,,,,,
292450,2022-09-21_17h06.52.164,vts_reward_expectancy,2022.2.4,Win32,60.0024001,Chrome,1366,768,,,l,0.9253,1,344,1,1,7,19,5,1,0,1,0,0,0,0,0,1,circle,star,,,,,,,,,,,,,,,,,,,,,,,,,,,,,,,,,,,,,,,,,,,,,,,,,,,,,,
292450,2022-09-21_17h06.52.164,vts_reward_expectancy,2022.2.4,Win32,60.0024001,Chrome,1366,768,,,a,2.3497,10,354,1,1,8,20,11,1,0,0,0,1,0,0,1,0,star,hexagon,,,,,,,,,,,,,,,,,,,,,,,,,,,,,,,,,,,,,,,,,,,,,,,,,,,,,,
292450,2022-09-21_17h06.52.164,vts_reward_expectancy,2022.2.4,Win32,60.0024001,Chrome,1366,768,,,l,0.5504,10,364,1,1,9,21,4,1,0,1,0,0,0,0,1,0,circle,hexagon,,,,,,,,,,,,,,,,,,,,,,,,,,,,,,,,,,,,,,,,,,,,,,,,,,,,,,
292450,2022-09-21_17h06.52.164,vts_reward_expectancy,2022.2.4,Win32,60.0024001,Chrome,1366,768,,,a,0.3338,10,374,1,1,10,22,10,1,0,0,0,1,0,1,0,0,star ,circle,,,,,,,,,,,,,,,,,,,,,,,,,,,,,,,,,,,,,,,,,,,,,,,,,,,,,,
292450,2022-09-21_17h06.52.164,vts_reward_expectancy,2022.2.4,Win32,60.0024001,Chrome,1366,768,,,l,0.2827,1,375,1,1,11,23,9,1,0,0,0,1,1,0,0,0,star,triangle,,,,,,,,,,,,,,,,,,,,,,,,,,,,,,,,,,,,,,,,,,,,,,,,,,,,,,
292450,2022-09-21_17h06.52.164,vts_reward_expectancy,2022.2.4,Win32,60.0024001,Chrome,1366,768,,,a,0.3183,10,385,1,2,0,24,6,1,0,0,1,0,1,0,0,0,hexagon,triangle,,,,,,,,,,,,,,,,,,,,,,,,,,,,,,,,,,,,,,,,,,,,,,,,,,,,,,
292450,2022-09-21_17h06.52.164,vts_reward_expectancy,2022.2.4,Win32,60.0024001,Chrome,1366,768,,,l,0.3337,1,386,1,2,1,25,1,1,1,0,0,0,0,0,1,0,triangle,hexagon,,,,,,,,,,,,,,,,,,,,,,,,,,,,,,,,,,,,,,,,,,,,,,,,,,,,,,
292450,2022-09-21_17h06.52.164,vts_reward_expectancy,2022.2.4,Win32,60.0024001,Chrome,1366,768,,,a,0.2434,1,387,1,2,2,26,3,1,0,1,0,0,1,0,0,0,circle,triangle,,,,,,,,,,,,,,,,,,,,,,,,,,,,,,,,,,,,,,,,,,,,,,,,,,,,,,
292450,2022-09-21_17h06.52.164,vts_reward_expectancy,2022.2.4,Win32,60.0024001,Chrome,1366,768,,,l,1.1536,1,388,1,2,3,27,5,1,0,1,0,0,0,0,0,1,circle,star,,,,,,,,,,,,,,,,,,,,,,,,,,,,,,,,,,,,,,,,,,,,,,,,,,,,,,
292450,2022-09-21_17h06.52.164,vts_reward_expectancy,2022.2.4,Win32,60.0024001,Chrome,1366,768,,,a,0.8804,1,389,1,2,4,28,10,1,0,0,0,1,0,1,0,0,star ,circle,,,,,,,,,,,,,,,,,,,,,,,,,,,,,,,,,,,,,,,,,,,,,,,,,,,,,,
292450,2022-09-21_17h06.52.164,vts_reward_expectancy,2022.2.4,Win32,60.0024001,Chrome,1366,768,,,l,1.349,1,390,1,2,5,29,2,1,1,0,0,0,0,0,0,1,triangle,star,,,,,,,,,,,,,,,,,,,,,,,,,,,,,,,,,,,,,,,,,,,,,,,,,,,,,,
292450,2022-09-21_17h06.52.164,vts_reward_expectancy,2022.2.4,Win32,60.0024001,Chrome,1366,768,,,l,0.6135,10,400,1,2,6,30,9,1,0,0,0,1,1,0,0,0,star,triangle,,,,,,,,,,,,,,,,,,,,,,,,,,,,,,,,,,,,,,,,,,,,,,,,,,,,,,
292450,2022-09-21_17h06.52.164,vts_reward_expectancy,2022.2.4,Win32,60.0024001,Chrome,1366,768,,,a,0.4505,10,410,1,2,7,31,0,1,1,0,0,0,0,1,0,0,triangle,circle,,,,,,,,,,,,,,,,,,,,,,,,,,,,,,,,,,,,,,,,,,,,,,,,,,,,,,
292450,2022-09-21_17h06.52.164,vts_reward_expectancy,2022.2.4,Win32,60.0024001,Chrome,1366,768,,,l,1.8832,1,411,1,2,8,32,11,1,0,0,0,1,0,0,1,0,star,hexagon,,,,,,,,,,,,,,,,,,,,,,,,,,,,,,,,,,,,,,,,,,,,,,,,,,,,,,
292450,2022-09-21_17h06.52.164,vts_reward_expectancy,2022.2.4,Win32,60.0024001,Chrome,1366,768,,,a,0.3177,10,421,1,2,9,33,4,1,0,1,0,0,0,0,1,0,circle,hexagon,,,,,,,,,,,,,,,,,,,,,,,,,,,,,,,,,,,,,,,,,,,,,,,,,,,,,,
292450,2022-09-21_17h06.52.164,vts_reward_expectancy,2022.2.4,Win32,60.0024001,Chrome,1366,768,,,l,2.998,1,422,1,2,10,34,7,1,0,0,1,0,0,1,0,0,hexagon,circle,,,,,,,,,,,,,,,,,,,,,,,,,,,,,,,,,,,,,,,,,,,,,,,,,,,,,,
292450,2022-09-21_17h06.52.164,vts_reward_expectancy,2022.2.4,Win32,60.0024001,Chrome,1366,768,,,l,0.9169,1,423,1,2,11,35,8,1,0,0,1,0,0,0,0,1,hexagon,star,,,,,,,,,,,,,,,,,,,,,,,,,,,,,,,,,,,,,,,,,,,,,,,,,,,,,,
292450,2022-09-21_17h06.52.164,vts_reward_expectancy,2022.2.4,Win32,60.0024001,Chrome,1366,768,,,l,2.4821,1,424,2,0,0,0,1,1,1,0,0,0,0,0,1,0,triangle,hexagon,,,,,,,,,,,,,,,,,,,,,,,,,,,,,,,,,,,,,,,,,,,,,,,,,,,,,,
292450,2022-09-21_17h06.52.164,vts_reward_expectancy,2022.2.4,Win32,60.0024001,Chrome,1366,768,,,a,0.284,10,434,2,0,1,1,11,1,0,0,0,1,0,0,1,0,star,hexagon,,,,,,,,,,,,,,,,,,,,,,,,,,,,,,,,,,,,,,,,,,,,,,,,,,,,,,
292450,2022-09-21_17h06.52.164,vts_reward_expectancy,2022.2.4,Win32,60.0024001,Chrome,1366,768,,,l,0.2842,1,435,2,0,2,2,5,1,0,1,0,0,0,0,0,1,circle,star,,,,,,,,,,,,,,,,,,,,,,,,,,,,,,,,,,,,,,,,,,,,,,,,,,,,,,
292450,2022-09-21_17h06.52.164,vts_reward_expectancy,2022.2.4,Win32,60.0024001,Chrome,1366,768,,,a,0.3035,1,436,2,0,3,3,7,1,0,0,1,0,0,1,0,0,hexagon,circle,,,,,,,,,,,,,,,,,,,,,,,,,,,,,,,,,,,,,,,,,,,,,,,,,,,,,,
292450,2022-09-21_17h06.52.164,vts_reward_expectancy,2022.2.4,Win32,60.0024001,Chrome,1366,768,,,l,0.9504,1,437,2,0,4,4,8,1,0,0,1,0,0,0,0,1,hexagon,star,,,,,,,,,,,,,,,,,,,,,,,,,,,,,,,,,,,,,,,,,,,,,,,,,,,,,,
292450,2022-09-21_17h06.52.164,vts_reward_expectancy,2022.2.4,Win32,60.0024001,Chrome,1366,768,,,a,0.3004,1,438,2,0,5,5,0,1,1,0,0,0,0,1,0,0,triangle,circle,,,,,,,,,,,,,,,,,,,,,,,,,,,,,,,,,,,,,,,,,,,,,,,,,,,,,,
292450,2022-09-21_17h06.52.164,vts_reward_expectancy,2022.2.4,Win32,60.0024001,Chrome,1366,768,,,a,0.3174,1,439,2,0,6,6,10,1,0,0,0,1,0,1,0,0,star ,circle,,,,,,,,,,,,,,,,,,,,,,,,,,,,,,,,,,,,,,,,,,,,,,,,,,,,,,
292450,2022-09-21_17h06.52.164,vts_reward_expectancy,2022.2.4,Win32,60.0024001,Chrome,1366,768,,,l,0.3134,1,440,2,0,7,7,4,1,0,1,0,0,0,0,1,0,circle,hexagon,,,,,,,,,,,,,,,,,,,,,,,,,,,,,,,,,,,,,,,,,,,,,,,,,,,,,,
292450,2022-09-21_17h06.52.164,vts_reward_expectancy,2022.2.4,Win32,60.0024001,Chrome,1366,768,,,l,0.9371,1,441,2,0,8,8,2,1,1,0,0,0,0,0,0,1,triangle,star,,,,,,,,,,,,,,,,,,,,,,,,,,,,,,,,,,,,,,,,,,,,,,,,,,,,,,
292450,2022-09-21_17h06.52.164,vts_reward_expectancy,2022.2.4,Win32,60.0024001,Chrome,1366,768,,,a,0.7418,1,442,2,0,9,9,6,1,0,0,1,0,1,0,0,0,hexagon,triangle,,,,,,,,,,,,,,,,,,,,,,,,,,,,,,,,,,,,,,,,,,,,,,,,,,,,,,
292450,2022-09-21_17h06.52.164,vts_reward_expectancy,2022.2.4,Win32,60.0024001,Chrome,1366,768,,,l,0.1009,10,452,2,0,10,10,9,1,0,0,0,1,1,0,0,0,star,triangle,,,,,,,,,,,,,,,,,,,,,,,,,,,,,,,,,,,,,,,,,,,,,,,,,,,,,,
292450,2022-09-21_17h06.52.164,vts_reward_expectancy,2022.2.4,Win32,60.0024001,Chrome,1366,768,,,l,1.0498,1,453,2,0,11,11,3,1,0,1,0,0,1,0,0,0,circle,triangle,,,,,,,,,,,,,,,,,,,,,,,,,,,,,,,,,,,,,,,,,,,,,,,,,,,,,,
292450,2022-09-21_17h06.52.164,vts_reward_expectancy,2022.2.4,Win32,60.0024001,Chrome,1366,768,,,a,0.3844,1,454,2,1,0,12,5,1,0,1,0,0,0,0,0,1,circle,star,,,,,,,,,,,,,,,,,,,,,,,,,,,,,,,,,,,,,,,,,,,,,,,,,,,,,,
292450,2022-09-21_17h06.52.164,vts_reward_expectancy,2022.2.4,Win32,60.0024001,Chrome,1366,768,,,a,0.6006,10,464,2,1,1,13,0,1,1,0,0,0,0,1,0,0,triangle,circle,,,,,,,,,,,,,,,,,,,,,,,,,,,,,,,,,,,,,,,,,,,,,,,,,,,,,,
292450,2022-09-21_17h06.52.164,vts_reward_expectancy,2022.2.4,Win32,60.0024001,Chrome,1366,768,,,a,0.4673,10,474,2,1,2,14,11,1,0,0,0,1,0,0,1,0,star,hexagon,,,,,,,,,,,,,,,,,,,,,,,,,,,,,,,,,,,,,,,,,,,,,,,,,,,,,,
292450,2022-09-21_17h06.52.164,vts_reward_expectancy,2022.2.4,Win32,60.0024001,Chrome,1366,768,,,a,0.584,1,475,2,1,3,15,4,1,0,1,0,0,0,0,1,0,circle,hexagon,,,,,,,,,,,,,,,,,,,,,,,,,,,,,,,,,,,,,,,,,,,,,,,,,,,,,,
292450,2022-09-21_17h06.52.164,vts_reward_expectancy,2022.2.4,Win32,60.0024001,Chrome,1366,768,,,l,1.2329,1,476,2,1,4,16,7,1,0,0,1,0,0,1,0,0,hexagon,circle,,,,,,,,,,,,,,,,,,,,,,,,,,,,,,,,,,,,,,,,,,,,,,,,,,,,,,
292450,2022-09-21_17h06.52.164,vts_reward_expectancy,2022.2.4,Win32,60.0024001,Chrome,1366,768,,,l,0.4005,10,486,2,1,5,17,1,1,1,0,0,0,0,0,1,0,triangle,hexagon,,,,,,,,,,,,,,,,,,,,,,,,,,,,,,,,,,,,,,,,,,,,,,,,,,,,,,
292450,2022-09-21_17h06.52.164,vts_reward_expectancy,2022.2.4,Win32,60.0024001,Chrome,1366,768,,,l,0.3554,1,487,2,1,6,18,9,1,0,0,0,1,1,0,0,0,star,triangle,,,,,,,,,,,,,,,,,,,,,,,,,,,,,,,,,,,,,,,,,,,,,,,,,,,,,,
292450,2022-09-21_17h06.52.164,vts_reward_expectancy,2022.2.4,Win32,60.0024001,Chrome,1366,768,,,a,0.2836,1,488,2,1,7,19,10,1,0,0,0,1,0,1,0,0,star ,circle,,,,,,,,,,,,,,,,,,,,,,,,,,,,,,,,,,,,,,,,,,,,,,,,,,,,,,
292450,2022-09-21_17h06.52.164,vts_reward_expectancy,2022.2.4,Win32,60.0024001,Chrome,1366,768,,,l,0.2837,1,489,2,1,8,20,2,1,1,0,0,0,0,0,0,1,triangle,star,,,,,,,,,,,,,,,,,,,,,,,,,,,,,,,,,,,,,,,,,,,,,,,,,,,,,,
292450,2022-09-21_17h06.52.164,vts_reward_expectancy,2022.2.4,Win32,60.0024001,Chrome,1366,768,,,a,0.3178,1,490,2,1,9,21,8,1,0,0,1,0,0,0,0,1,hexagon,star,,,,,,,,,,,,,,,,,,,,,,,,,,,,,,,,,,,,,,,,,,,,,,,,,,,,,,
292450,2022-09-21_17h06.52.164,vts_reward_expectancy,2022.2.4,Win32,60.0024001,Chrome,1366,768,,,l,0.3182,10,500,2,1,10,22,3,1,0,1,0,0,1,0,0,0,circle,triangle,,,,,,,,,,,,,,,,,,,,,,,,,,,,,,,,,,,,,,,,,,,,,,,,,,,,,,
292450,2022-09-21_17h06.52.164,vts_reward_expectancy,2022.2.4,Win32,60.0024001,Chrome,1366,768,,,l,0.4173,10,510,2,1,11,23,6,1,0,0,1,0,1,0,0,0,hexagon,triangle,,,,,,,,,,,,,,,,,,,,,,,,,,,,,,,,,,,,,,,,,,,,,,,,,,,,,,
292450,2022-09-21_17h06.52.164,vts_reward_expectancy,2022.2.4,Win32,60.0024001,Chrome,1366,768,,,l,0.3173,10,520,2,2,0,24,5,1,0,1,0,0,0,0,0,1,circle,star,,,,,,,,,,,,,,,,,,,,,,,,,,,,,,,,,,,,,,,,,,,,,,,,,,,,,,
292450,2022-09-21_17h06.52.164,vts_reward_expectancy,2022.2.4,Win32,60.0024001,Chrome,1366,768,,,l,0.3682,10,530,2,2,1,25,6,1,0,0,1,0,1,0,0,0,hexagon,triangle,,,,,,,,,,,,,,,,,,,,,,,,,,,,,,,,,,,,,,,,,,,,,,,,,,,,,,
292450,2022-09-21_17h06.52.164,vts_reward_expectancy,2022.2.4,Win32,60.0024001,Chrome,1366,768,,,l,0.319,1,531,2,2,2,26,8,1,0,0,1,0,0,0,0,1,hexagon,star,,,,,,,,,,,,,,,,,,,,,,,,,,,,,,,,,,,,,,,,,,,,,,,,,,,,,,
292450,2022-09-21_17h06.52.164,vts_reward_expectancy,2022.2.4,Win32,60.0024001,Chrome,1366,768,,,a,0.2982,10,541,2,2,3,27,0,1,1,0,0,0,0,1,0,0,triangle,circle,,,,,,,,,,,,,,,,,,,,,,,,,,,,,,,,,,,,,,,,,,,,,,,,,,,,,,
292450,2022-09-21_17h06.52.164,vts_reward_expectancy,2022.2.4,Win32,60.0024001,Chrome,1366,768,,,a,0.3299,1,542,2,2,4,28,11,1,0,0,0,1,0,0,1,0,star,hexagon,,,,,,,,,,,,,,,,,,,,,,,,,,,,,,,,,,,,,,,,,,,,,,,,,,,,,,
292450,2022-09-21_17h06.52.164,vts_reward_expectancy,2022.2.4,Win32,60.0024001,Chrome,1366,768,,,l,0.2842,10,552,2,2,5,29,9,1,0,0,0,1,1,0,0,0,star,triangle,,,,,,,,,,,,,,,,,,,,,,,,,,,,,,,,,,,,,,,,,,,,,,,,,,,,,,
292450,2022-09-21_17h06.52.164,vts_reward_expectancy,2022.2.4,Win32,60.0024001,Chrome,1366,768,,,l,0.3508,1,553,2,2,6,30,2,1,1,0,0,0,0,0,0,1,triangle,star,,,,,,,,,,,,,,,,,,,,,,,,,,,,,,,,,,,,,,,,,,,,,,,,,,,,,,
292450,2022-09-21_17h06.52.164,vts_reward_expectancy,2022.2.4,Win32,60.0024001,Chrome,1366,768,,,a,0.9069,1,554,2,2,7,31,3,1,0,1,0,0,1,0,0,0,circle,triangle,,,,,,,,,,,,,,,,,,,,,,,,,,,,,,,,,,,,,,,,,,,,,,,,,,,,,,
292450,2022-09-21_17h06.52.164,vts_reward_expectancy,2022.2.4,Win32,60.0024001,Chrome,1366,768,,,l,0.4174,10,564,2,2,8,32,1,1,1,0,0,0,0,0,1,0,triangle,hexagon,,,,,,,,,,,,,,,,,,,,,,,,,,,,,,,,,,,,,,,,,,,,,,,,,,,,,,
292450,2022-09-21_17h06.52.164,vts_reward_expectancy,2022.2.4,Win32,60.0024001,Chrome,1366,768,,,a,0.8503,1,565,2,2,9,33,4,1,0,1,0,0,0,0,1,0,circle,hexagon,,,,,,,,,,,,,,,,,,,,,,,,,,,,,,,,,,,,,,,,,,,,,,,,,,,,,,
292450,2022-09-21_17h06.52.164,vts_reward_expectancy,2022.2.4,Win32,60.0024001,Chrome,1366,768,,,l,0.4168,10,575,2,2,10,34,10,1,0,0,0,1,0,1,0,0,star ,circle,,,,,,,,,,,,,,,,,,,,,,,,,,,,,,,,,,,,,,,,,,,,,,,,,,,,,,
292450,2022-09-21_17h06.52.164,vts_reward_expectancy,2022.2.4,Win32,60.0024001,Chrome,1366,768,,,l,0.5497,1,576,2,2,11,35,7,1,0,0,1,0,0,1,0,0,hexagon,circle,,,,,,,,,,,,,,,,,,,,,,,,,,,,,,,,,,,,,,,,,,,,,,,,,,,,,,
292450,2022-09-21_17h06.52.164,vts_reward_expectancy,2022.2.4,Win32,60.0024001,Chrome,1366,768,,,,,,,,,,,,,,,,,,,,,,,125,F,circle,1,0,d,1.2671,0,0,0,0,0,1,,,,,,,,,,,,,,,,,,,,,,,,,,,,,,,,,,,,,,,,,
292450,2022-09-21_17h06.52.164,vts_reward_expectancy,2022.2.4,Win32,60.0024001,Chrome,1366,768,,,,,,,,,,,,,,,,,,,,,,,167,W,triangle,1,0,f,0.8935,0,1,0,1,0,1,,,,,,,,,,,,,,,,,,,,,,,,,,,,,,,,,,,,,,,,,
292450,2022-09-21_17h06.52.164,vts_reward_expectancy,2022.2.4,Win32,60.0024001,Chrome,1366,768,,,,,,,,,,,,,,,,,,,,,,,146,S,star,1,0,d,0.917,0,2,0,2,0,1,,,,,,,,,,,,,,,,,,,,,,,,,,,,,,,,,,,,,,,,,
292450,2022-09-21_17h06.52.164,vts_reward_expectancy,2022.2.4,Win32,60.0024001,Chrome,1366,768,,,,,,,,,,,,,,,,,,,,,,,139,U,hexagon,1,0,d,0.7148,0,3,0,3,0,1,,,,,,,,,,,,,,,,,,,,,,,,,,,,,,,,,,,,,,,,,
292450,2022-09-21_17h06.52.164,vts_reward_expectancy,2022.2.4,Win32,60.0024001,Chrome,1366,768,,,,,,,,,,,,,,,,,,,,,,,181,H,circle,1,0,f,1.1399,0,4,0,4,0,1,,,,,,,,,,,,,,,,,,,,,,,,,,,,,,,,,,,,,,,,,
292450,2022-09-21_17h06.52.164,vts_reward_expectancy,2022.2.4,Win32,60.0024001,Chrome,1366,768,,,,,,,,,,,,,,,,,,,,,,,132,Y,triangle,1,0,d,0.8953,0,5,0,5,0,1,,,,,,,,,,,,,,,,,,,,,,,,,,,,,,,,,,,,,,,,,
292450,2022-09-21_17h06.52.164,vts_reward_expectancy,2022.2.4,Win32,60.0024001,Chrome,1366,768,,,,,,,,,,,,,,,,,,,,,,,160,D,star,1,0,f,1.4366,0,6,0,6,0,1,,,,,,,,,,,,,,,,,,,,,,,,,,,,,,,,,,,,,,,,,
292450,2022-09-21_17h06.52.164,vts_reward_expectancy,2022.2.4,Win32,60.0024001,Chrome,1366,768,,,,,,,,,,,,,,,,,,,,,,,174,B,hexagon,1,0,f,0.9135,0,7,0,7,0,1,,,,,,,,,,,,,,,,,,,,,,,,,,,,,,,,,,,,,,,,,
292450,2022-09-21_17h06.52.164,vts_reward_expectancy,2022.2.4,Win32,60.0024001,Chrome,1366,768,,,,,,,,,,,,,,,,,,,,,,,125,F,circle,1,0,d,0.6086,0,8,0,8,0,1,,,,,,,,,,,,,,,,,,,,,,,,,,,,,,,,,,,,,,,,,
292450,2022-09-21_17h06.52.164,vts_reward_expectancy,2022.2.4,Win32,60.0024001,Chrome,1366,768,,,,,,,,,,,,,,,,,,,,,,,167,W,triangle,1,0,f,1.4467,0,9,0,9,0,1,,,,,,,,,,,,,,,,,,,,,,,,,,,,,,,,,,,,,,,,,
292450,2022-09-21_17h06.52.164,vts_reward_expectancy,2022.2.4,Win32,60.0024001,Chrome,1366,768,,,,,,,,,,,,,,,,,,,,,,,132,H,star,1,0,,,1,,,,,,j,0.9949,0,0,0,0,1,,,,,,,,,,,,,,,,,,,,,,,,,,,,,,,,,,
292450,2022-09-21_17h06.52.164,vts_reward_expectancy,2022.2.4,Win32,60.0024001,Chrome,1366,768,,,,,,,,,,,,,,,,,,,,,,,125,D,circle,1,0,,,1,,,,,,j,0.6925,1,0,1,0,1,,,,,,,,,,,,,,,,,,,,,,,,,,,,,,,,,,
292450,2022-09-21_17h06.52.164,vts_reward_expectancy,2022.2.4,Win32,60.0024001,Chrome,1366,768,,,,,,,,,,,,,,,,,,,,,,,139,B,hexagon,1,0,,,1,,,,,,j,0.5788,2,0,2,0,1,,,,,,,,,,,,,,,,,,,,,,,,,,,,,,,,,,
292450,2022-09-21_17h06.52.164,vts_reward_expectancy,2022.2.4,Win32,60.0024001,Chrome,1366,768,,,,,,,,,,,,,,,,,,,,,,,181,W,triangle,1,0,,,1,,,,,,k,0.518,3,0,3,0,1,,,,,,,,,,,,,,,,,,,,,,,,,,,,,,,,,,
292450,2022-09-21_17h06.52.164,vts_reward_expectancy,2022.2.4,Win32,60.0024001,Chrome,1366,768,,,,,,,,,,,,,,,,,,,,,,,160,Y,star,1,0,,,1,,,,,,k,0.568,4,0,4,0,1,,,,,,,,,,,,,,,,,,,,,,,,,,,,,,,,,,
292450,2022-09-21_17h06.52.164,vts_reward_expectancy,2022.2.4,Win32,60.0024001,Chrome,1366,768,,,,,,,,,,,,,,,,,,,,,,,174,F,circle,1,0,,,1,,,,,,j,0.8839,5,0,5,0,1,,,,,,,,,,,,,,,,,,,,,,,,,,,,,,,,,,
292450,2022-09-21_17h06.52.164,vts_reward_expectancy,2022.2.4,Win32,60.0024001,Chrome,1366,768,,,,,,,,,,,,,,,,,,,,,,,167,U,hexagon,1,0,,,1,,,,,,k,0.8038,6,0,6,0,1,,,,,,,,,,,,,,,,,,,,,,,,,,,,,,,,,,
292450,2022-09-21_17h06.52.164,vts_reward_expectancy,2022.2.4,Win32,60.0024001,Chrome,1366,768,,,,,,,,,,,,,,,,,,,,,,,146,S,triangle,1,0,,,1,,,,,,k,1.8564,7,0,7,0,1,,,,,,,,,,,,,,,,,,,,,,,,,,,,,,,,,,
292450,2022-09-21_17h06.52.164,vts_reward_expectancy,2022.2.4,Win32,60.0024001,Chrome,1366,768,,,,,,,,,,,,,,,,,,,,,,,132,H,triangle,1,0,,,1,,,,,,j,0.7668,8,0,8,0,1,,,,,,,,,,,,,,,,,,,,,,,,,,,,,,,,,,
292450,2022-09-21_17h06.52.164,vts_reward_expectancy,2022.2.4,Win32,60.0024001,Chrome,1366,768,,,,,,,,,,,,,,,,,,,,,,,125,D,star,1,0,,,1,,,,,,j,0.7842,9,0,9,0,1,,,,,,,,,,,,,,,,,,,,,,,,,,,,,,,,,,
292450,2022-09-21_17h06.52.164,vts_reward_expectancy,2022.2.4,Win32,60.0024001,Chrome,1366,768,,,,,0,576,,,,,,,,,,,,,,,,,181,W,triangle,1,0,,,2,,,,,,,,,,,,,-1,letter,NA,k,2.1573,vtsPrac,0,0,0,0,1,,,,,,,,,,,,,,,,,,,,,,,
292450,2022-09-21_17h06.52.164,vts_reward_expectancy,2022.2.4,Win32,60.0024001,Chrome,1366,768,,,,,0,576,,,,,,,,,,,,,,,,,125,H,circle,1,0,,,2,,,,,,,,,,,,,repeat,letter,lettRpt,j,1.4309,vtsPrac,1,0,1,0,1,,,,,,,,,,,,,,,,,,,,,,,
292450,2022-09-21_17h06.52.164,vts_reward_expectancy,2022.2.4,Win32,60.0024001,Chrome,1366,768,,,,,0,576,,,,,,,,,,,,,,,,,160,S,triangle,1,0,,,2,,,,,,,,,,,,,repeat,letter,lettRpt,k,0.6305,vtsPrac,2,0,2,0,1,,,,,,,,,,,,,,,,,,,,,,,
292450,2022-09-21_17h06.52.164,vts_reward_expectancy,2022.2.4,Win32,60.0024001,Chrome,1366,768,,,,,0,576,,,,,,,,,,,,,,,,,174,U,circle,1,0,,,2,,,,,,,,,,,,,repeat,letter,lettRpt,k,0.7152,vtsPrac,3,0,3,0,1,,,,,,,,,,,,,,,,,,,,,,,
292450,2022-09-21_17h06.52.164,vts_reward_expectancy,2022.2.4,Win32,60.0024001,Chrome,1366,768,,,,,0,576,,,,,,,,,,,,,,,,,181,W,star,1,0,,,2,,,,,,,,,,,,,repeat,letter,lettRpt,k,0.7276,vtsPrac,4,0,4,0,1,,,,,,,,,,,,,,,,,,,,,,,
292450,2022-09-21_17h06.52.164,vts_reward_expectancy,2022.2.4,Win32,60.0024001,Chrome,1366,768,,,,,0,576,,,,,,,,,,,,,,,,,125,H,circle,1,0,,,2,,,,,,,,,,,,,repeat,letter,lettRpt,j,0.8245,vtsPrac,5,0,5,0,1,,,,,,,,,,,,,,,,,,,,,,,
292450,2022-09-21_17h06.52.164,vts_reward_expectancy,2022.2.4,Win32,60.0024001,Chrome,1366,768,,,,,0,576,,,,,,,,,,,,,,,,,160,S,triangle,1,0,,,2,,,,,,,,,,,,,repeat,letter,lettRpt,k,1.045,vtsPrac,6,0,6,0,1,,,,,,,,,,,,,,,,,,,,,,,
292450,2022-09-21_17h06.52.164,vts_reward_expectancy,2022.2.4,Win32,60.0024001,Chrome,1366,768,,,,,0,576,,,,,,,,,,,,,,,,,174,U,star,1,0,,,2,,,,,,,,,,,,,repeat,letter,lettRpt,k,0.7746,vtsPrac,7,0,7,0,1,,,,,,,,,,,,,,,,,,,,,,,
292450,2022-09-21_17h06.52.164,vts_reward_expectancy,2022.2.4,Win32,60.0024001,Chrome,1366,768,,,,,0,576,,,,,,,,,,,,,,,,,125,F,hexagon,1,0,,,2,,,,,,,,,,,,,repeat,letter,lettRpt,j,0.6413,vtsPrac,8,0,8,0,1,,,,,,,,,,,,,,,,,,,,,,,
292450,2022-09-21_17h06.52.164,vts_reward_expectancy,2022.2.4,Win32,60.0024001,Chrome,1366,768,,,,,0,576,,,,,,,,,,,,,,,,,146,W,triangle,1,0,,,2,,,,,,,,,,,,,repeat,letter,lettRpt,k,0.5429,vtsPrac,9,0,9,0,1,,,,,,,,,,,,,,,,,,,,,,,
292450,2022-09-21_17h06.52.164,vts_reward_expectancy,2022.2.4,Win32,60.0024001,Chrome,1366,768,,,,,0,576,,,,,,,,,,,,,,,,,160,H,triangle,1,0,,,2,,,,,,,,,,,,,repeat,letter,lettRpt,j,0.6349,vtsPrac,10,0,10,0,1,,,,,,,,,,,,,,,,,,,,,,,
292450,2022-09-21_17h06.52.164,vts_reward_expectancy,2022.2.4,Win32,60.0024001,Chrome,1366,768,,,,,0,576,,,,,,,,,,,,,,,,,181,B,star,1,0,,,2,,,,,,,,,,,,,repeat,letter,lettRpt,j,0.5057,vtsPrac,11,0,11,0,1,,,,,,,,,,,,,,,,,,,,,,,
292450,2022-09-21_17h06.52.164,vts_reward_expectancy,2022.2.4,Win32,60.0024001,Chrome,1366,768,,,,,0,576,,,,,,,,,,,,,,,,,139,H,circle,1,0,,,2,,,,,,,,,,,,,repeat,letter,lettRpt,j,0.7819,vtsPrac,12,0,12,0,1,,,,,,,,,,,,,,,,,,,,,,,
292450,2022-09-21_17h06.52.164,vts_reward_expectancy,2022.2.4,Win32,60.0024001,Chrome,1366,768,,,,,0,576,,,,,,,,,,,,,,,,,146,D,star,1,0,,,2,,,,,,,,,,,,,repeat,letter,lettRpt,j,0.7403,vtsPrac,13,0,13,0,1,,,,,,,,,,,,,,,,,,,,,,,
292450,2022-09-21_17h06.52.164,vts_reward_expectancy,2022.2.4,Win32,60.0024001,Chrome,1366,768,,,,,0,576,,,,,,,,,,,,,,,,,160,W,star,1,0,,,2,,,,,,,,,,,,,repeat,letter,lettRpt,k,0.6853,vtsPrac,14,0,14,0,1,,,,,,,,,,,,,,,,,,,,,,,
292450,2022-09-21_17h06.52.164,vts_reward_expectancy,2022.2.4,Win32,60.0024001,Chrome,1366,768,,,,,0,576,,,,,,,,,,,,,,,,,132,B,triangle,1,0,,,2,,,,,,,,,,,,,repeat,letter,lettRpt,j,0.9368,vtsPrac,15,0,15,0,1,,,,,,,,,,,,,,,,,,,,,,,
292450,2022-09-21_17h06.52.164,vts_reward_expectancy,2022.2.4,Win32,60.0024001,Chrome,1366,768,,,,,0,576,,,,,,,,,,,,,,,,,167,Y,star,1,0,,,3,,,,,,,,,,,,,switch,number,numSwt,f,1.376,vtsPrac,0,0,0,0,1,,,,,,,,,,,,,,,,,,,,,,,
292450,2022-09-21_17h06.52.164,vts_reward_expectancy,2022.2.4,Win32,60.0024001,Chrome,1366,768,,,,,0,576,,,,,,,,,,,,,,,,,139,D,circle,1,0,,,3,,,,,,,,,,,,,switch,letter,lettSwt,j,0.6285,vtsPrac,1,0,1,0,1,,,,,,,,,,,,,,,,,,,,,,,
292450,2022-09-21_17h06.52.164,vts_reward_expectancy,2022.2.4,Win32,60.0024001,Chrome,1366,768,,,,,0,576,,,,,,,,,,,,,,,,,160,H,star,1,0,,,3,,,,,,,,,,,,,switch,number,numSwt,f,1.0663,vtsPrac,2,0,2,0,1,,,,,,,,,,,,,,,,,,,,,,,
292450,2022-09-21_17h06.52.164,vts_reward_expectancy,2022.2.4,Win32,60.0024001,Chrome,1366,768,,,,,0,576,,,,,,,,,,,,,,,,,146,B,circle,1,0,,,3,,,,,,,,,,,,,switch,letter,lettSwt,j,0.6291,vtsPrac,3,0,3,0,1,,,,,,,,,,,,,,,,,,,,,,,
292450,2022-09-21_17h06.52.164,vts_reward_expectancy,2022.2.4,Win32,60.0024001,Chrome,1366,768,,,,,0,576,,,,,,,,,,,,,,,,,167,Y,circle,1,0,,,3,,,,,,,,,,,,,switch,number,numSwt,f,0.8461,vtsPrac,4,0,4,0,1,,,,,,,,,,,,,,,,,,,,,,,
292450,2022-09-21_17h06.52.164,vts_reward_expectancy,2022.2.4,Win32,60.0024001,Chrome,1366,768,,,,,0,576,,,,,,,,,,,,,,,,,139,D,triangle,1,0,,,3,,,,,,,,,,,,,switch,letter,lettSwt,j,0.6623,vtsPrac,5,0,5,0,1,,,,,,,,,,,,,,,,,,,,,,,
292450,2022-09-21_17h06.52.164,vts_reward_expectancy,2022.2.4,Win32,60.0024001,Chrome,1366,768,,,,,0,576,,,,,,,,,,,,,,,,,160,H,star,1,0,,,3,,,,,,,,,,,,,switch,number,numSwt,f,1.4666,vtsPrac,6,0,6,0,1,,,,,,,,,,,,,,,,,,,,,,,
292450,2022-09-21_17h06.52.164,vts_reward_expectancy,2022.2.4,Win32,60.0024001,Chrome,1366,768,,,,,0,576,,,,,,,,,,,,,,,,,146,B,circle,1,0,,,3,,,,,,,,,,,,,switch,letter,lettSwt,j,0.8454,vtsPrac,7,0,7,0,1,,,,,,,,,,,,,,,,,,,,,,,
292450,2022-09-21_17h06.52.164,vts_reward_expectancy,2022.2.4,Win32,60.0024001,Chrome,1366,768,,,,,0,576,,,,,,,,,,,,,,,,,132,H,triangle,1,0,,,3,,,,,,,,,,,,,switch,number,numSwt,d,0.6455,vtsPrac,8,0,8,0,1,,,,,,,,,,,,,,,,,,,,,,,
292450,2022-09-21_17h06.52.164,vts_reward_expectancy,2022.2.4,Win32,60.0024001,Chrome,1366,768,,,,,0,576,,,,,,,,,,,,,,,,,146,Y,star,1,0,,,3,,,,,,,,,,,,,switch,letter,lettSwt,k,0.5008,vtsPrac,9,0,9,0,1,,,,,,,,,,,,,,,,,,,,,,,
292450,2022-09-21_17h06.52.164,vts_reward_expectancy,2022.2.4,Win32,60.0024001,Chrome,1366,768,,,,,0,576,,,,,,,,,,,,,,,,,174,B,circle,-1,0,,,3,,,,,,,,,,,,,switch,no_choice,NA,,,vtsPrac,10,0,10,0,1,,,,,,,,,,,,,,,,,,,,,,,
292450,2022-09-21_17h06.52.164,vts_reward_expectancy,2022.2.4,Win32,60.0024001,Chrome,1366,768,,,,,0,576,,,,,,,,,,,,,,,,,181,F,triangle,1,0,,,3,,,,,,,,,,,,,switch,number,numSwt,f,0.7595,vtsPrac,11,0,11,0,1,,,,,,,,,,,,,,,,,,,,,,,
292450,2022-09-21_17h06.52.164,vts_reward_expectancy,2022.2.4,Win32,60.0024001,Chrome,1366,768,,,,,0,576,,,,,,,,,,,,,,,,,167,U,hexagon,1,0,,,3,,,,,,,,,,,,,switch,letter,lettSwt,k,0.6195,vtsPrac,12,0,12,0,1,,,,,,,,,,,,,,,,,,,,,,,
292450,2022-09-21_17h06.52.164,vts_reward_expectancy,2022.2.4,Win32,60.0024001,Chrome,1366,768,,,,,0,576,,,,,,,,,,,,,,,,,174,W,triangle,1,0,,,3,,,,,,,,,,,,,repeat,letter,lettRpt,k,0.8513,vtsPrac,13,0,13,0,1,,,,,,,,,,,,,,,,,,,,,,,
292450,2022-09-21_17h06.52.164,vts_reward_expectancy,2022.2.4,Win32,60.0024001,Chrome,1366,768,,,,,0,576,,,,,,,,,,,,,,,,,125,H,circle,1,0,,,3,,,,,,,,,,,,,switch,number,numSwt,d,1.2834,vtsPrac,14,0,14,0,1,,,,,,,,,,,,,,,,,,,,,,,
292450,2022-09-21_17h06.52.164,vts_reward_expectancy,2022.2.4,Win32,60.0024001,Chrome,1366,768,,,,,0,576,,,,,,,,,,,,,,,,,146,S,star,1,0,,,3,,,,,,,,,,,,,switch,letter,lettSwt,k,0.9872,vtsPrac,15,0,15,0,1,,,,,,,,,,,,,,,,,,,,,,,
292450,2022-09-21_17h06.52.164,vts_reward_expectancy,2022.2.4,Win32,60.0024001,Chrome,1366,768,,,,,0,576,,,,,,,,,,,,,,,,,181,D,hexagon,1,0,,,4,,,,,,,,,,,,,switch,number,numSwt,f,1.0847,vtsPrac,0,0,0,0,1,,,,,,,,,,,,,,,,,,,,,,,
292450,2022-09-21_17h06.52.164,vts_reward_expectancy,2022.2.4,Win32,60.0024001,Chrome,1366,768,,,,,0,576,,,,,,,,,,,,,,,,,132,W,triangle,1,0,,,4,,,,,,,,,,,,,switch,letter,lettSwt,k,0.7493,vtsPrac,1,0,1,0,1,,,,,,,,,,,,,,,,,,,,,,,
292450,2022-09-21_17h06.52.164,vts_reward_expectancy,2022.2.4,Win32,60.0024001,Chrome,1366,768,,,,,0,576,,,,,,,,,,,,,,,,,174,F,hexagon,1,0,,,4,,,,,,,,,,,,,switch,number,numSwt,f,0.9811,vtsPrac,2,0,2,0,1,,,,,,,,,,,,,,,,,,,,,,,
292450,2022-09-21_17h06.52.164,vts_reward_expectancy,2022.2.4,Win32,60.0024001,Chrome,1366,768,,,,,0,576,,,,,,,,,,,,,,,,,125,B,triangle,1,0,,,4,,,,,,,,,,,,,switch,letter,lettSwt,j,0.9453,vtsPrac,3,0,3,0,1,,,,,,,,,,,,,,,,,,,,,,,
292450,2022-09-21_17h06.52.164,vts_reward_expectancy,2022.2.4,Win32,60.0024001,Chrome,1366,768,,,,,0,576,,,,,,,,,,,,,,,,,181,D,triangle,1,0,,,4,,,,,,,,,,,,,switch,number,numSwt,f,0.7414,vtsPrac,4,0,4,0,1,,,,,,,,,,,,,,,,,,,,,,,
292450,2022-09-21_17h06.52.164,vts_reward_expectancy,2022.2.4,Win32,60.0024001,Chrome,1366,768,,,,,0,576,,,,,,,,,,,,,,,,,132,W,hexagon,1,0,,,4,,,,,,,,,,,,,switch,letter,lettSwt,k,0.6782,vtsPrac,5,0,5,0,1,,,,,,,,,,,,,,,,,,,,,,,
292450,2022-09-21_17h06.52.164,vts_reward_expectancy,2022.2.4,Win32,60.0024001,Chrome,1366,768,,,,,0,576,,,,,,,,,,,,,,,,,174,F,circle,1,0,,,4,,,,,,,,,,,,,switch,number,numSwt,f,1.117,vtsPrac,6,0,6,0,1,,,,,,,,,,,,,,,,,,,,,,,
292450,2022-09-21_17h06.52.164,vts_reward_expectancy,2022.2.4,Win32,60.0024001,Chrome,1366,768,,,,,0,576,,,,,,,,,,,,,,,,,125,B,star,1,0,,,4,,,,,,,,,,,,,switch,letter,lettSwt,j,0.7997,vtsPrac,7,0,7,0,1,,,,,,,,,,,,,,,,,,,,,,,
292450,2022-09-21_17h06.52.164,vts_reward_expectancy,2022.2.4,Win32,60.0024001,Chrome,1366,768,,,,,0,576,,,,,,,,,,,,,,,,,146,W,star,1,0,,,4,,,,,,,,,,,,,repeat,letter,lettRpt,k,0.8839,vtsPrac,8,0,8,0,1,,,,,,,,,,,,,,,,,,,,,,,
292450,2022-09-21_17h06.52.164,vts_reward_expectancy,2022.2.4,Win32,60.0024001,Chrome,1366,768,,,,,0,576,,,,,,,,,,,,,,,,,132,U,circle,1,0,,,4,,,,,,,,,,,,,switch,number,numSwt,d,0.9994,vtsPrac,9,0,9,0,1,,,,,,,,,,,,,,,,,,,,,,,
292450,2022-09-21_17h06.52.164,vts_reward_expectancy,2022.2.4,Win32,60.0024001,Chrome,1366,768,,,,,0,576,,,,,,,,,,,,,,,,,181,H,triangle,1,0,,,4,,,,,,,,,,,,,switch,letter,lettSwt,j,1.6142,vtsPrac,10,0,10,0,1,,,,,,,,,,,,,,,,,,,,,,,
292450,2022-09-21_17h06.52.164,vts_reward_expectancy,2022.2.4,Win32,60.0024001,Chrome,1366,768,,,,,0,576,,,,,,,,,,,,,,,,,125,D,star,1,0,,,4,,,,,,,,,,,,,switch,number,numSwt,d,1.0231,vtsPrac,11,0,11,0,1,,,,,,,,,,,,,,,,,,,,,,,
292450,2022-09-21_17h06.52.164,vts_reward_expectancy,2022.2.4,Win32,60.0024001,Chrome,1366,768,,,,,0,576,,,,,,,,,,,,,,,,,139,B,circle,1,0,,,4,,,,,,,,,,,,,switch,letter,lettSwt,j,0.6162,vtsPrac,12,0,12,0,1,,,,,,,,,,,,,,,,,,,,,,,
292450,2022-09-21_17h06.52.164,vts_reward_expectancy,2022.2.4,Win32,60.0024001,Chrome,1366,768,,,,,0,576,,,,,,,,,,,,,,,,,132,U,triangle,1,0,,,4,,,,,,,,,,,,,switch,number,numSwt,d,1.1667,vtsPrac,13,0,13,0,1,,,,,,,,,,,,,,,,,,,,,,,
292450,2022-09-21_17h06.52.164,vts_reward_expectancy,2022.2.4,Win32,60.0024001,Chrome,1366,768,,,,,0,576,,,,,,,,,,,,,,,,,174,F,star,1,0,,,4,,,,,,,,,,,,,switch,letter,lettSwt,j,1.1246,vtsPrac,14,0,14,0,1,,,,,,,,,,,,,,,,,,,,,,,
292450,2022-09-21_17h06.52.164,vts_reward_expectancy,2022.2.4,Win32,60.0024001,Chrome,1366,768,,,,,0,576,,,,,,,,,,,,,,,,,181,S,hexagon,1,0,,,4,,,,,,,,,,,,,switch,number,numSwt,f,0.9839,vtsPrac,15,0,15,0,1,,,,,,,,,,,,,,,,,,,,,,,
292450,2022-09-21_17h06.52.164,vts_reward_expectancy,2022.2.4,Win32,60.0024001,Chrome,1366,768,,,,,,,,,,,,,,,,,,,,,,,,,,,,,,,,,,,,,,,,,,,,,,,,,,,,,,,,,,,,,,,,,,,,,,,,,,,,
292450,2022-09-21_17h06.52.164,vts_reward_expectancy,2022.2.4,Win32,60.0024001,Chrome,1366,768,,,,,,,,,,,,,,,,,,,,,,,,,,,,,,,,,,,,,,,,,,,,,,,,,,,,,,,,,,,,,,,,,,,,,,,,,,,,
292450,2022-09-21_17h06.52.164,vts_reward_expectancy,2022.2.4,Win32,60.0024001,Chrome,1366,768,,,,,0,576,,,,,,,,,,,,,,,,,139,U,circle,1,0,,,,,,,,,,,,,,,,switch,letter,lettSwt,k,1.0219,noRew,,,,,,0,0,0,0,0,1,,,,,,,,,,,,,,,,,
292450,2022-09-21_17h06.52.164,vts_reward_expectancy,2022.2.4,Win32,60.0024001,Chrome,1366,768,,,,,0,576,,,,,,,,,,,,,,,,,146,F,star,1,0,,,,,,,,,,,,,,,,switch,number,numSwt,d,2.1295,noRew,,,,,,0,1,0,1,0,1,,,,,,,,,,,,,,,,,
292450,2022-09-21_17h06.52.164,vts_reward_expectancy,2022.2.4,Win32,60.0024001,Chrome,1366,768,,,,,0,576,,,,,,,,,,,,,,,,,125,Y,circle,1,0,,,,,,,,,,,,,,,,switch,letter,lettSwt,k,0.7952,noRew,,,,,,0,2,0,2,0,1,,,,,,,,,,,,,,,,,
292450,2022-09-21_17h06.52.164,vts_reward_expectancy,2022.2.4,Win32,60.0024001,Chrome,1366,768,,,,,0,576,,,,,,,,,,,,,,,,,181,B,star,1,0,,,,,,,,,,,,,,,,switch,number,numSwt,f,0.9489,noRew,,,,,,0,3,0,3,0,1,,,,,,,,,,,,,,,,,
292450,2022-09-21_17h06.52.164,vts_reward_expectancy,2022.2.4,Win32,60.0024001,Chrome,1366,768,,,,,0,576,,,,,,,,,,,,,,,,,139,U,triangle,1,0,,,,,,,,,,,,,,,,switch,letter,lettSwt,k,0.7266,noRew,,,,,,0,4,0,4,0,1,,,,,,,,,,,,,,,,,
292450,2022-09-21_17h06.52.164,vts_reward_expectancy,2022.2.4,Win32,60.0024001,Chrome,1366,768,,,,,0,576,,,,,,,,,,,,,,,,,146,F,star,1,0,,,,,,,,,,,,,,,,switch,number,numSwt,d,1.3491,noRew,,,,,,0,5,0,5,0,1,,,,,,,,,,,,,,,,,
292450,2022-09-21_17h06.52.164,vts_reward_expectancy,2022.2.4,Win32,60.0024001,Chrome,1366,768,,,,,0,576,,,,,,,,,,,,,,,,,125,Y,hexagon,1,0,,,,,,,,,,,,,,,,switch,letter,lettSwt,k,1.2326,noRew,,,,,,0,6,0,6,0,1,,,,,,,,,,,,,,,,,
292450,2022-09-21_17h06.52.164,vts_reward_expectancy,2022.2.4,Win32,60.0024001,Chrome,1366,768,,,,,0,576,,,,,,,,,,,,,,,,,181,B,circle,1,0,,,,,,,,,,,,,,,,switch,number,numSwt,f,0.9333,noRew,,,,,,0,7,0,7,0,1,,,,,,,,,,,,,,,,,
292450,2022-09-21_17h06.52.164,vts_reward_expectancy,2022.2.4,Win32,60.0024001,Chrome,1366,768,,,,,0,576,,,,,,,,,,,,,,,,,139,D,triangle,1,0,,,,,,,,,,,,,,,,switch,letter,lettSwt,j,0.5164,noRew,,,,,,0,8,0,8,0,1,,,,,,,,,,,,,,,,,
292450,2022-09-21_17h06.52.164,vts_reward_expectancy,2022.2.4,Win32,60.0024001,Chrome,1366,768,,,,,0,576,,,,,,,,,,,,,,,,,160,H,star,1,0,,,,,,,,,,,,,,,,switch,number,numSwt,f,1.0497,noRew,,,,,,0,9,0,9,0,1,,,,,,,,,,,,,,,,,
292450,2022-09-21_17h06.52.164,vts_reward_expectancy,2022.2.4,Win32,60.0024001,Chrome,1366,768,,,,,0,576,,,,,,,,,,,,,,,,,181,B,circle,1,0,,,,,,,,,,,,,,,,switch,letter,lettSwt,j,0.857,noRew,,,,,,0,10,0,10,0,1,,,,,,,,,,,,,,,,,
292450,2022-09-21_17h06.52.164,vts_reward_expectancy,2022.2.4,Win32,60.0024001,Chrome,1366,768,,,,,0,576,,,,,,,,,,,,,,,,,174,W,triangle,1,0,,,,,,,,,,,,,,,,switch,number,numSwt,f,0.8827,noRew,,,,,,0,11,0,11,0,1,,,,,,,,,,,,,,,,,
292450,2022-09-21_17h06.52.164,vts_reward_expectancy,2022.2.4,Win32,60.0024001,Chrome,1366,768,,,,,0,576,,,,,,,,,,,,,,,,,181,B,triangle,1,0,,,,,,,,,,,,,,,,switch,letter,lettSwt,j,0.7336,noRew,,,,,,0,12,0,12,0,1,,,,,,,,,,,,,,,,,
292450,2022-09-21_17h06.52.164,vts_reward_expectancy,2022.2.4,Win32,60.0024001,Chrome,1366,768,,,,,0,576,,,,,,,,,,,,,,,,,125,Y,hexagon,1,0,,,,,,,,,,,,,,,,repeat,letter,lettRpt,k,0.7677,noRew,,,,,,0,13,0,13,0,1,,,,,,,,,,,,,,,,,
292450,2022-09-21_17h06.52.164,vts_reward_expectancy,2022.2.4,Win32,60.0024001,Chrome,1366,768,,,,,0,576,,,,,,,,,,,,,,,,,174,H,triangle,1,0,,,,,,,,,,,,,,,,switch,number,numSwt,f,0.8295,noRew,,,,,,0,14,0,14,0,1,,,,,,,,,,,,,,,,,
292450,2022-09-21_17h06.52.164,vts_reward_expectancy,2022.2.4,Win32,60.0024001,Chrome,1366,768,,,,,0,576,,,,,,,,,,,,,,,,,146,F,circle,1,0,,,,,,,,,,,,,,,,repeat,number,numRpt,d,1.6701,noRew,,,,,,0,15,0,15,0,1,,,,,,,,,,,,,,,,,
292450,2022-09-21_17h06.52.164,vts_reward_expectancy,2022.2.4,Win32,60.0024001,Chrome,1366,768,,,,,0,576,,,,,,,,,,,,,,,,,167,W,triangle,1,0,,,,,,,,,,,,,,,,switch,letter,lettSwt,k,0.9467,noRew,,,,,,0,16,0,16,0,1,,,,,,,,,,,,,,,,,
292450,2022-09-21_17h06.52.164,vts_reward_expectancy,2022.2.4,Win32,60.0024001,Chrome,1366,768,,,,,0,576,,,,,,,,,,,,,,,,,139,S,star,1,0,,,,,,,,,,,,,,,,switch,number,numSwt,d,1.7253,noRew,,,,,,0,17,0,17,0,1,,,,,,,,,,,,,,,,,
292450,2022-09-21_17h06.52.164,vts_reward_expectancy,2022.2.4,Win32,60.0024001,Chrome,1366,768,,,,,0,576,,,,,,,,,,,,,,,,,174,F,triangle,1,0,,,,,,,,,,,,,,,,switch,letter,lettSwt,j,1.3666,noRew,,,,,,0,18,0,18,0,1,,,,,,,,,,,,,,,,,
292450,2022-09-21_17h06.52.164,vts_reward_expectancy,2022.2.4,Win32,60.0024001,Chrome,1366,768,,,,,0,576,,,,,,,,,,,,,,,,,132,Y,circle,1,0,,,,,,,,,,,,,,,,switch,number,numSwt,d,0.8339,noRew,,,,,,0,19,0,19,0,1,,,,,,,,,,,,,,,,,
292450,2022-09-21_17h06.52.164,vts_reward_expectancy,2022.2.4,Win32,60.0024001,Chrome,1366,768,,,,,0,576,,,,,,,,,,,,,,,,,139,U,star,1,0,,,,,,,,,,,,,,,,switch,letter,lettSwt,k,1.3621,noRew,,,,,,0,20,0,20,0,1,,,,,,,,,,,,,,,,,
292450,2022-09-21_17h06.52.164,vts_reward_expectancy,2022.2.4,Win32,60.0024001,Chrome,1366,768,,,,,0,576,,,,,,,,,,,,,,,,,125,B,hexagon,1,0,,,,,,,,,,,,,,,,switch,number,numSwt,d,0.9666,noRew,,,,,,0,21,0,21,0,1,,,,,,,,,,,,,,,,,
292450,2022-09-21_17h06.52.164,vts_reward_expectancy,2022.2.4,Win32,60.0024001,Chrome,1366,768,,,,,0,576,,,,,,,,,,,,,,,,,167,D,circle,1,0,,,,,,,,,,,,,,,,switch,letter,lettSwt,j,0.6507,noRew,,,,,,0,22,0,22,0,1,,,,,,,,,,,,,,,,,
292450,2022-09-21_17h06.52.164,vts_reward_expectancy,2022.2.4,Win32,60.0024001,Chrome,1366,768,,,,,0,576,,,,,,,,,,,,,,,,,146,Y,hexagon,1,0,,,,,,,,,,,,,,,,switch,number,numSwt,d,0.8304,noRew,,,,,,0,23,0,23,0,1,,,,,,,,,,,,,,,,,
292450,2022-09-21_17h06.52.164,vts_reward_expectancy,2022.2.4,Win32,60.0024001,Chrome,1366,768,,,,,0,576,,,,,,,,,,,,,,,,,160,D,triangle,1,0,,,,,,,,,,,,,,,,switch,letter,lettSwt,j,0.9172,noRew,,,,,,0,24,0,24,0,1,,,,,,,,,,,,,,,,,
292450,2022-09-21_17h06.52.164,vts_reward_expectancy,2022.2.4,Win32,60.0024001,Chrome,1366,768,,,,,0,576,,,,,,,,,,,,,,,,,181,Y,circle,1,0,,,,,,,,,,,,,,,,switch,number,numSwt,f,1.038,noRew,,,,,,0,25,0,25,0,1,,,,,,,,,,,,,,,,,
292450,2022-09-21_17h06.52.164,vts_reward_expectancy,2022.2.4,Win32,60.0024001,Chrome,1366,768,,,,,0,576,,,,,,,,,,,,,,,,,167,U,triangle,1,0,,,,,,,,,,,,,,,,switch,letter,lettSwt,k,0.5584,noRew,,,,,,0,26,0,26,0,1,,,,,,,,,,,,,,,,,
292450,2022-09-21_17h06.52.164,vts_reward_expectancy,2022.2.4,Win32,60.0024001,Chrome,1366,768,,,,,0,576,,,,,,,,,,,,,,,,,146,H,hexagon,1,0,,,,,,,,,,,,,,,,switch,number,numSwt,d,0.7046,noRew,,,,,,0,27,0,27,0,1,,,,,,,,,,,,,,,,,
292450,2022-09-21_17h06.52.164,vts_reward_expectancy,2022.2.4,Win32,60.0024001,Chrome,1366,768,,,,,0,576,,,,,,,,,,,,,,,,,181,B,triangle,1,0,,,,,,,,,,,,,,,,switch,letter,lettSwt,j,1.4327,noRew,,,,,,0,28,0,28,0,1,,,,,,,,,,,,,,,,,
292450,2022-09-21_17h06.52.164,vts_reward_expectancy,2022.2.4,Win32,60.0024001,Chrome,1366,768,,,,,0,576,,,,,,,,,,,,,,,,,125,D,hexagon,1,0,,,,,,,,,,,,,,,,switch,number,numSwt,d,1.3156,noRew,,,,,,0,29,0,29,0,1,,,,,,,,,,,,,,,,,
292450,2022-09-21_17h06.52.164,vts_reward_expectancy,2022.2.4,Win32,60.0024001,Chrome,1366,768,,,,,0,576,,,,,,,,,,,,,,,,,146,W,circle,1,0,,,,,,,,,,,,,,,,switch,letter,lettSwt,k,0.5107,noRew,,,,,,0,30,0,30,0,1,,,,,,,,,,,,,,,,,
292450,2022-09-21_17h06.52.164,vts_reward_expectancy,2022.2.4,Win32,60.0024001,Chrome,1366,768,,,,,0,576,,,,,,,,,,,,,,,,,160,U,triangle,1,0,,,,,,,,,,,,,,,,switch,number,numSwt,f,1.55,noRew,,,,,,0,31,0,31,0,1,,,,,,,,,,,,,,,,,
292450,2022-09-21_17h06.52.164,vts_reward_expectancy,2022.2.4,Win32,60.0024001,Chrome,1366,768,,,,,0,576,,,,,,,,,,,,,,,,,160,W,star,1,0,,,,,,,,,,,,,,,,switch,letter,lettSwt,k,0.9972,noRew,,,,,,0,32,0,32,0,1,,,,,,,,,,,,,,,,,
292450,2022-09-21_17h06.52.164,vts_reward_expectancy,2022.2.4,Win32,60.0024001,Chrome,1366,768,,,,,0,576,,,,,,,,,,,,,,,,,125,H,circle,1,0,,,,,,,,,,,,,,,,switch,number,numSwt,d,0.6996,noRew,,,,,,0,33,0,33,0,1,,,,,,,,,,,,,,,,,
292450,2022-09-21_17h06.52.164,vts_reward_expectancy,2022.2.4,Win32,60.0024001,Chrome,1366,768,,,,,0,576,,,,,,,,,,,,,,,,,181,U,circle,1,0,,,,,,,,,,,,,,,,switch,letter,lettSwt,k,0.658,noRew,,,,,,0,34,0,34,0,1,,,,,,,,,,,,,,,,,
292450,2022-09-21_17h06.52.164,vts_reward_expectancy,2022.2.4,Win32,60.0024001,Chrome,1366,768,,,,,0,576,,,,,,,,,,,,,,,,,174,F,hexagon,1,0,,,,,,,,,,,,,,,,switch,number,numSwt,f,1.3006,noRew,,,,,,0,35,0,35,0,1,,,,,,,,,,,,,,,,,
292450,2022-09-21_17h06.52.164,vts_reward_expectancy,2022.2.4,Win32,60.0024001,Chrome,1366,768,,,,,0,576,,,,,,,,,,,,,,,,,146,S,hexagon,1,0,,,,,,,,,,,,,,,,switch,letter,lettSwt,k,0.6338,noRew,,,,,,0,36,0,36,0,1,,,,,,,,,,,,,,,,,
292450,2022-09-21_17h06.52.164,vts_reward_expectancy,2022.2.4,Win32,60.0024001,Chrome,1366,768,,,,,0,576,,,,,,,,,,,,,,,,,160,Y,star,1,0,,,,,,,,,,,,,,,,switch,number,numSwt,f,0.9082,noRew,,,,,,0,37,0,37,0,1,,,,,,,,,,,,,,,,,
292450,2022-09-21_17h06.52.164,vts_reward_expectancy,2022.2.4,Win32,60.0024001,Chrome,1366,768,,,,,0,576,,,,,,,,,,,,,,,,,181,W,triangle,1,0,,,,,,,,,,,,,,,,switch,letter,lettSwt,k,0.6169,noRew,,,,,,0,38,0,38,0,1,,,,,,,,,,,,,,,,,
292450,2022-09-21_17h06.52.164,vts_reward_expectancy,2022.2.4,Win32,60.0024001,Chrome,1366,768,,,,,0,576,,,,,,,,,,,,,,,,,167,F,star,1,0,,,,,,,,,,,,,,,,switch,number,numSwt,f,0.7125,noRew,,,,,,0,39,0,39,0,1,,,,,,,,,,,,,,,,,
292450,2022-09-21_17h06.52.164,vts_reward_expectancy,2022.2.4,Win32,60.0024001,Chrome,1366,768,,,,,0,576,,,,,,,,,,,,,,,,,160,H,star,1,0,,,,,,,,,,,,,,,,switch,letter,lettSwt,j,0.7548,noRew,,,,,,0,40,0,40,0,1,,,,,,,,,,,,,,,,,
292450,2022-09-21_17h06.52.164,vts_reward_expectancy,2022.2.4,Win32,60.0024001,Chrome,1366,768,,,,,0,576,,,,,,,,,,,,,,,,,174,D,triangle,1,0,,,,,,,,,,,,,,,,switch,number,numSwt,f,0.7036,noRew,,,,,,0,41,0,41,0,1,,,,,,,,,,,,,,,,,
292450,2022-09-21_17h06.52.164,vts_reward_expectancy,2022.2.4,Win32,60.0024001,Chrome,1366,768,,,,,0,576,,,,,,,,,,,,,,,,,125,B,star,1,0,,,,,,,,,,,,,,,,switch,letter,lettSwt,j,0.8188,noRew,,,,,,0,42,0,42,0,1,,,,,,,,,,,,,,,,,
292450,2022-09-21_17h06.52.164,vts_reward_expectancy,2022.2.4,Win32,60.0024001,Chrome,1366,768,,,,,0,576,,,,,,,,,,,,,,,,,146,Y,circle,1,0,,,,,,,,,,,,,,,,repeat,letter,lettRpt,k,0.7929,noRew,,,,,,0,43,0,43,0,1,,,,,,,,,,,,,,,,,
292450,2022-09-21_17h06.52.164,vts_reward_expectancy,2022.2.4,Win32,60.0024001,Chrome,1366,768,,,,,0,576,,,,,,,,,,,,,,,,,132,S,circle,1,0,,,,,,,,,,,,,,,,switch,number,numSwt,d,1.4446,noRew,,,,,,0,44,0,44,0,1,,,,,,,,,,,,,,,,,
292450,2022-09-21_17h06.52.164,vts_reward_expectancy,2022.2.4,Win32,60.0024001,Chrome,1366,768,,,,,0,576,,,,,,,,,,,,,,,,,139,Y,star,1,0,,,,,,,,,,,,,,,,switch,letter,lettSwt,k,0.7999,noRew,,,,,,0,45,0,45,0,1,,,,,,,,,,,,,,,,,
292450,2022-09-21_17h06.52.164,vts_reward_expectancy,2022.2.4,Win32,60.0024001,Chrome,1366,768,,,,,0,576,,,,,,,,,,,,,,,,,146,H,triangle,1,0,,,,,,,,,,,,,,,,switch,number,numSwt,d,0.9353,noRew,,,,,,0,46,0,46,0,1,,,,,,,,,,,,,,,,,
292450,2022-09-21_17h06.52.164,vts_reward_expectancy,2022.2.4,Win32,60.0024001,Chrome,1366,768,,,,,0,576,,,,,,,,,,,,,,,,,125,B,circle,1,0,,,,,,,,,,,,,,,,switch,letter,lettSwt,j,0.7993,noRew,,,,,,0,47,0,47,0,1,,,,,,,,,,,,,,,,,
292450,2022-09-21_17h06.52.164,vts_reward_expectancy,2022.2.4,Win32,60.0024001,Chrome,1366,768,,,,,0,576,,,,,,,,,,,,,,,,,174,U,hexagon,1,0,,,,,,,,,,,,,,,,switch,number,numSwt,f,1.3042,noRew,,,,,,0,48,0,48,0,1,,,,,,,,,,,,,,,,,
292450,2022-09-21_17h06.52.164,vts_reward_expectancy,2022.2.4,Win32,60.0024001,Chrome,1366,768,,,,,0,576,,,,,,,,,,,,,,,,,160,S,triangle,1,0,,,,,,,,,,,,,,,,switch,letter,lettSwt,k,1.1602,noRew,,,,,,0,49,0,49,0,1,,,,,,,,,,,,,,,,,
292450,2022-09-21_17h06.52.164,vts_reward_expectancy,2022.2.4,Win32,60.0024001,Chrome,1366,768,,,,,0,576,,,,,,,,,,,,,,,,,146,H,triangle,1,0,,,,,,,,,,,,,,,,switch,number,numSwt,d,0.7322,noRew,,,,,,0,50,0,50,0,1,,,,,,,,,,,,,,,,,
292450,2022-09-21_17h06.52.164,vts_reward_expectancy,2022.2.4,Win32,60.0024001,Chrome,1366,768,,,,,0,576,,,,,,,,,,,,,,,,,132,F,circle,1,0,,,,,,,,,,,,,,,,switch,letter,lettSwt,j,0.9258,noRew,,,,,,0,51,0,51,0,1,,,,,,,,,,,,,,,,,
292450,2022-09-21_17h06.52.164,vts_reward_expectancy,2022.2.4,Win32,60.0024001,Chrome,1366,768,,,,,0,576,,,,,,,,,,,,,,,,,181,H,circle,1,0,,,,,,,,,,,,,,,,switch,number,numSwt,f,0.8336,noRew,,,,,,0,52,0,52,0,1,,,,,,,,,,,,,,,,,
292450,2022-09-21_17h06.52.164,vts_reward_expectancy,2022.2.4,Win32,60.0024001,Chrome,1366,768,,,,,0,576,,,,,,,,,,,,,,,,,146,W,star,1,0,,,,,,,,,,,,,,,,switch,letter,lettSwt,k,0.6131,noRew,,,,,,0,53,0,53,0,1,,,,,,,,,,,,,,,,,
292450,2022-09-21_17h06.52.164,vts_reward_expectancy,2022.2.4,Win32,60.0024001,Chrome,1366,768,,,,,0,576,,,,,,,,,,,,,,,,,167,B,star,1,0,,,,,,,,,,,,,,,,switch,number,numSwt,f,0.9674,noRew,,,,,,0,54,0,54,0,1,,,,,,,,,,,,,,,,,
292450,2022-09-21_17h06.52.164,vts_reward_expectancy,2022.2.4,Win32,60.0024001,Chrome,1366,768,,,,,0,576,,,,,,,,,,,,,,,,,125,Y,circle,1,0,,,,,,,,,,,,,,,,switch,letter,lettSwt,k,1.0474,noRew,,,,,,0,55,0,55,0,1,,,,,,,,,,,,,,,,,
292450,2022-09-21_17h06.52.164,vts_reward_expectancy,2022.2.4,Win32,60.0024001,Chrome,1366,768,,,,,0,576,,,,,,,,,,,,,,,,,160,H,circle,1,0,,,,,,,,,,,,,,,,repeat,letter,lettRpt,j,0.7461,noRew,,,,,,0,56,0,56,0,1,,,,,,,,,,,,,,,,,
292450,2022-09-21_17h06.52.164,vts_reward_expectancy,2022.2.4,Win32,60.0024001,Chrome,1366,768,,,,,0,576,,,,,,,,,,,,,,,,,146,S,star,1,0,,,,,,,,,,,,,,,,switch,number,numSwt,d,0.9514,noRew,,,,,,0,57,0,57,0,1,,,,,,,,,,,,,,,,,
292450,2022-09-21_17h06.52.164,vts_reward_expectancy,2022.2.4,Win32,60.0024001,Chrome,1366,768,,,,,0,576,,,,,,,,,,,,,,,,,139,Y,circle,1,0,,,,,,,,,,,,,,,,repeat,number,numRpt,d,0.7338,noRew,,,,,,0,58,0,58,0,1,,,,,,,,,,,,,,,,,
292450,2022-09-21_17h06.52.164,vts_reward_expectancy,2022.2.4,Win32,60.0024001,Chrome,1366,768,,,,,0,576,,,,,,,,,,,,,,,,,167,D,star,1,0,,,,,,,,,,,,,,,,switch,letter,lettSwt,j,0.6164,noRew,,,,,,0,59,0,59,0,1,,,,,,,,,,,,,,,,,
292450,2022-09-21_17h06.52.164,vts_reward_expectancy,2022.2.4,Win32,60.0024001,Chrome,1366,768,,,,,0,576,,,,,,,,,,,,,,,,,146,U,hexagon,1,0,,,,,,,,,,,,,,,,switch,number,numSwt,d,0.7414,noRew,,,,,,0,60,0,60,0,1,,,,,,,,,,,,,,,,,
292450,2022-09-21_17h06.52.164,vts_reward_expectancy,2022.2.4,Win32,60.0024001,Chrome,1366,768,,,,,0,576,,,,,,,,,,,,,,,,,132,H,star,1,0,,,,,,,,,,,,,,,,switch,letter,lettSwt,j,0.8667,noRew,,,,,,0,61,0,61,0,1,,,,,,,,,,,,,,,,,
292450,2022-09-21_17h06.52.164,vts_reward_expectancy,2022.2.4,Win32,60.0024001,Chrome,1366,768,,,,,0,576,,,,,,,,,,,,,,,,,125,F,hexagon,1,0,,,,,,,,,,,,,,,,switch,number,numSwt,d,0.6586,noRew,,,,,,0,62,0,62,0,1,,,,,,,,,,,,,,,,,
292450,2022-09-21_17h06.52.164,vts_reward_expectancy,2022.2.4,Win32,60.0024001,Chrome,1366,768,,,,,0,576,,,,,,,,,,,,,,,,,181,B,triangle,1,0,,,,,,,,,,,,,,,,switch,letter,lettSwt,j,0.5515,noRew,,,,,,0,63,0,63,0,1,,,,,,,,,,,,,,,,,
292450,2022-09-21_17h06.52.164,vts_reward_expectancy,2022.2.4,Win32,60.0024001,Chrome,1366,768,,,,,,,,,,,,,,,,,,,,,,,,,,,,,,,,,,,,,,,,,,,,,,,,,,,,,,,,,,,,,,,,,,,,,,,,,,,,
292450,2022-09-21_17h06.52.164,vts_reward_expectancy,2022.2.4,Win32,60.0024001,Chrome,1366,768,,,,,0,576,,,,,,,,,,,,,,,,,146,Y,hexagon,1,0,,,,,,,,,,,,,,,,switch,number,numSwt,d,1.2563,Hi,,,,,,0,,,,,,space,10.5251,low,0,0,0,0,1,,,,,,,,,
292450,2022-09-21_17h06.52.164,vts_reward_expectancy,2022.2.4,Win32,60.0024001,Chrome,1366,768,,,,,10,586,,,,,,,,,,,,,,,,,132,U,circle,1,0,,,,,,,,,,,,,,,,repeat,number,numRpt,d,1.0349,Lo,,,,,,0,,,,,,,,low,1,0,1,0,1,,,,,,,,,
292450,2022-09-21_17h06.52.164,vts_reward_expectancy,2022.2.4,Win32,60.0024001,Chrome,1366,768,,,,,10,596,,,,,,,,,,,,,,,,,160,H,hexagon,1,0,,,,,,,,,,,,,,,,switch,letter,lettSwt,j,0.6428,Hi,,,,,,0,,,,,,,,low,2,0,2,0,1,,,,,,,,,
292450,2022-09-21_17h06.52.164,vts_reward_expectancy,2022.2.4,Win32,60.0024001,Chrome,1366,768,,,,,10,606,,,,,,,,,,,,,,,,,167,F,circle,1,0,,,,,,,,,,,,,,,,switch,number,numSwt,f,0.8248,Lo,,,,,,0,,,,,,,,low,3,0,3,0,1,,,,,,,,,
292450,2022-09-21_17h06.52.164,vts_reward_expectancy,2022.2.4,Win32,60.0024001,Chrome,1366,768,,,,,10,616,,,,,,,,,,,,,,,,,139,S,circle,1,0,,,,,,,,,,,,,,,,switch,letter,lettSwt,k,0.6165,Lo,,,,,,0,,,,,,,,low,4,0,4,0,1,,,,,,,,,
292450,2022-09-21_17h06.52.164,vts_reward_expectancy,2022.2.4,Win32,60.0024001,Chrome,1366,768,,,,,10,626,,,,,,,,,,,,,,,,,181,D,hexagon,1,0,,,,,,,,,,,,,,,,switch,number,numSwt,f,0.4674,Hi,,,,,,0,,,,,,,,low,5,0,5,0,1,,,,,,,,,
292450,2022-09-21_17h06.52.164,vts_reward_expectancy,2022.2.4,Win32,60.0024001,Chrome,1366,768,,,,,1,627,,,,,,,,,,,,,,,,,174,B,hexagon,1,0,,,,,,,,,,,,,,,,switch,letter,lettSwt,j,0.5039,Hi,,,,,,0,,,,,,,,low,6,0,6,0,1,,,,,,,,,
292450,2022-09-21_17h06.52.164,vts_reward_expectancy,2022.2.4,Win32,60.0024001,Chrome,1366,768,,,,,1,628,,,,,,,,,,,,,,,,,125,W,circle,1,0,,,,,,,,,,,,,,,,switch,number,numSwt,d,0.8857,Lo,,,,,,0,,,,,,,,low,7,0,7,0,1,,,,,,,,,
292450,2022-09-21_17h06.52.164,vts_reward_expectancy,2022.2.4,Win32,60.0024001,Chrome,1366,768,,,,,1,629,,,,,,,,,,,,,,,,,146,Y,circle,1,0,,,,,,,,,,,,,,,,repeat,number,numRpt,d,0.6911,Lo,,,,,,0,,,,,,,,low,8,0,8,0,1,,,,,,,,,
292450,2022-09-21_17h06.52.164,vts_reward_expectancy,2022.2.4,Win32,60.0024001,Chrome,1366,768,,,,,0,629,,,,,,,,,,,,,,,,,132,U,hexagon,1,0,,,,,,,,,,,,,,,,switch,letter,lettSwt,k,0.7784,Hi,,,,,,0,,,,,,,,low,9,0,9,0,1,,,,,,,,,
292450,2022-09-21_17h06.52.164,vts_reward_expectancy,2022.2.4,Win32,60.0024001,Chrome,1366,768,,,,,10,639,,,,,,,,,,,,,,,,,160,H,circle,1,0,,,,,,,,,,,,,,,,repeat,letter,lettRpt,j,0.6412,Lo,,,,,,0,,,,,,,,low,10,0,10,0,1,,,,,,,,,
292450,2022-09-21_17h06.52.164,vts_reward_expectancy,2022.2.4,Win32,60.0024001,Chrome,1366,768,,,,,1,640,,,,,,,,,,,,,,,,,167,F,hexagon,1,0,,,,,,,,,,,,,,,,repeat,letter,lettRpt,j,0.6822,Hi,,,,,,0,,,,,,,,low,11,0,11,0,1,,,,,,,,,
292450,2022-09-21_17h06.52.164,vts_reward_expectancy,2022.2.4,Win32,60.0024001,Chrome,1366,768,,,,,10,650,,,,,,,,,,,,,,,,,139,S,hexagon,1,0,,,,,,,,,,,,,,,,switch,number,numSwt,d,0.7839,Hi,,,,,,0,,,,,,,,low,12,0,12,0,1,,,,,,,,,
292450,2022-09-21_17h06.52.164,vts_reward_expectancy,2022.2.4,Win32,60.0024001,Chrome,1366,768,,,,,10,660,,,,,,,,,,,,,,,,,181,D,circle,1,0,,,,,,,,,,,,,,,,switch,letter,lettSwt,j,0.6726,Lo,,,,,,0,,,,,,,,low,13,0,13,0,1,,,,,,,,,
292450,2022-09-21_17h06.52.164,vts_reward_expectancy,2022.2.4,Win32,60.0024001,Chrome,1366,768,,,,,1,661,,,,,,,,,,,,,,,,,174,B,circle,1,0,,,,,,,,,,,,,,,,switch,number,numSwt,f,0.4717,Lo,,,,,,0,,,,,,,,low,14,0,14,0,1,,,,,,,,,
292450,2022-09-21_17h06.52.164,vts_reward_expectancy,2022.2.4,Win32,60.0024001,Chrome,1366,768,,,,,10,671,,,,,,,,,,,,,,,,,125,W,hexagon,1,0,,,,,,,,,,,,,,,,switch,letter,lettSwt,k,0.5242,Hi,,,,,,0,,,,,,,,low,15,0,15,0,1,,,,,,,,,
292450,2022-09-21_17h06.52.164,vts_reward_expectancy,2022.2.4,Win32,60.0024001,Chrome,1366,768,,,,,1,672,,,,,,,,,,,,,,,,,139,H,hexagon,1,0,,,,,,,,,,,,,,,,switch,number,numSwt,d,0.5453,Hi,,,,,,0,,,,,,,,low,16,0,16,0,1,,,,,,,,,
292450,2022-09-21_17h06.52.164,vts_reward_expectancy,2022.2.4,Win32,60.0024001,Chrome,1366,768,,,,,1,673,,,,,,,,,,,,,,,,,146,F,circle,1,0,,,,,,,,,,,,,,,,switch,letter,lettSwt,j,0.7665,Lo,,,,,,0,,,,,,,,low,17,0,17,0,1,,,,,,,,,
292450,2022-09-21_17h06.52.164,vts_reward_expectancy,2022.2.4,Win32,60.0024001,Chrome,1366,768,,,,,10,683,,,,,,,,,,,,,,,,,160,B,hexagon,1,0,,,,,,,,,,,,,,,,switch,number,numSwt,f,0.6642,Hi,,,,,,0,,,,,,,,low,18,0,18,0,1,,,,,,,,,
292450,2022-09-21_17h06.52.164,vts_reward_expectancy,2022.2.4,Win32,60.0024001,Chrome,1366,768,,,,,1,684,,,,,,,,,,,,,,,,,167,D,circle,1,0,,,,,,,,,,,,,,,,switch,letter,lettSwt,j,1.2164,Lo,,,,,,0,,,,,,,,low,19,0,19,0,1,,,,,,,,,
292450,2022-09-21_17h06.52.164,vts_reward_expectancy,2022.2.4,Win32,60.0024001,Chrome,1366,768,,,,,1,685,,,,,,,,,,,,,,,,,125,S,circle,1,0,,,,,,,,,,,,,,,,switch,number,numSwt,d,0.733,Lo,,,,,,0,,,,,,,,low,20,0,20,0,1,,,,,,,,,
292450,2022-09-21_17h06.52.164,vts_reward_expectancy,2022.2.4,Win32,60.0024001,Chrome,1366,768,,,,,10,695,,,,,,,,,,,,,,,,,181,W,hexagon,1,0,,,,,,,,,,,,,,,,switch,letter,lettSwt,k,0.5523,Hi,,,,,,0,,,,,,,,low,21,0,21,0,1,,,,,,,,,
292450,2022-09-21_17h06.52.164,vts_reward_expectancy,2022.2.4,Win32,60.0024001,Chrome,1366,768,,,,,10,705,,,,,,,,,,,,,,,,,132,Y,circle,1,0,,,,,,,,,,,,,,,,switch,number,numSwt,d,0.6166,Lo,,,,,,0,,,,,,,,low,22,0,22,0,1,,,,,,,,,
292450,2022-09-21_17h06.52.164,vts_reward_expectancy,2022.2.4,Win32,60.0024001,Chrome,1366,768,,,,,1,706,,,,,,,,,,,,,,,,,174,U,hexagon,1,0,,,,,,,,,,,,,,,,switch,letter,lettSwt,k,0.6254,Hi,,,,,,0,,,,,,,,low,23,0,23,0,1,,,,,,,,,
292450,2022-09-21_17h06.52.164,vts_reward_expectancy,2022.2.4,Win32,60.0024001,Chrome,1366,768,,,,,1,707,,,,,,,,,,,,,,,,,132,W,circle,1,0,,,,,,,,,,,,,,,,switch,number,numSwt,d,0.5405,Lo,,,,,,0,,,,,,,,low,24,0,24,0,1,,,,,,,,,
292450,2022-09-21_17h06.52.164,vts_reward_expectancy,2022.2.4,Win32,60.0024001,Chrome,1366,768,,,,,10,717,,,,,,,,,,,,,,,,,160,S,hexagon,1,0,,,,,,,,,,,,,,,,switch,letter,lettSwt,k,0.6006,Hi,,,,,,0,,,,,,,,low,25,0,25,0,1,,,,,,,,,
292450,2022-09-21_17h06.52.164,vts_reward_expectancy,2022.2.4,Win32,60.0024001,Chrome,1366,768,,,,,1,718,,,,,,,,,,,,,,,,,167,Y,hexagon,1,0,,,,,,,,,,,,,,,,switch,number,numSwt,f,0.8306,Hi,,,,,,0,,,,,,,,low,26,0,26,0,1,,,,,,,,,
292450,2022-09-21_17h06.52.164,vts_reward_expectancy,2022.2.4,Win32,60.0024001,Chrome,1366,768,,,,,10,728,,,,,,,,,,,,,,,,,125,F,circle,1,0,,,,,,,,,,,,,,,,switch,letter,lettSwt,j,0.667,Lo,,,,,,0,,,,,,,,low,27,0,27,0,1,,,,,,,,,
292450,2022-09-21_17h06.52.164,vts_reward_expectancy,2022.2.4,Win32,60.0024001,Chrome,1366,768,,,,,10,738,,,,,,,,,,,,,,,,,174,B,hexagon,1,0,,,,,,,,,,,,,,,,switch,number,numSwt,f,0.5669,Hi,,,,,,0,,,,,,,,low,28,0,28,0,1,,,,,,,,,
292450,2022-09-21_17h06.52.164,vts_reward_expectancy,2022.2.4,Win32,60.0024001,Chrome,1366,768,,,,,1,739,,,,,,,,,,,,,,,,,146,H,circle,1,0,,,,,,,,,,,,,,,,switch,letter,lettSwt,j,0.692,Lo,,,,,,0,,,,,,,,low,29,0,29,0,1,,,,,,,,,
292450,2022-09-21_17h06.52.164,vts_reward_expectancy,2022.2.4,Win32,60.0024001,Chrome,1366,768,,,,,10,749,,,,,,,,,,,,,,,,,181,D,circle,1,0,,,,,,,,,,,,,,,,switch,number,numSwt,f,0.6166,Lo,,,,,,0,,,,,,,,low,30,0,30,0,1,,,,,,,,,
292450,2022-09-21_17h06.52.164,vts_reward_expectancy,2022.2.4,Win32,60.0024001,Chrome,1366,768,,,,,1,750,,,,,,,,,,,,,,,,,139,U,hexagon,1,0,,,,,,,,,,,,,,,,switch,letter,lettSwt,k,0.6168,Hi,,,,,,0,,,,,,,,low,31,0,31,0,1,,,,,,,,,
292450,2022-09-21_17h06.52.164,vts_reward_expectancy,2022.2.4,Win32,60.0024001,Chrome,1366,768,,,,,0,750,,,,,,,,,,,,,,,,,181,H,circle,0,0,,,,,,,,,,,,,,,,repeat,letter,NA,k,0.4981,Hi,,,,,,1,,,,,,space,1.7887,low,0,0,0,0,1,,,,,,,,,
292450,2022-09-21_17h06.52.164,vts_reward_expectancy,2022.2.4,Win32,60.0024001,Chrome,1366,768,,,,,0,750,,,,,,,,,,,,,,,,,174,B,hexagon,1,1,,,,,,,,,,,,,,,,switch,number,numSwt,f,0.8912,Hi,,,,,,1,,,,,,,,low,1,0,1,0,1,,,,,,,,,
292450,2022-09-21_17h06.52.164,vts_reward_expectancy,2022.2.4,Win32,60.0024001,Chrome,1366,768,,,,,0,750,,,,,,,,,,,,,,,,,167,S,circle,-1,0,,,,,,,,,,,,,,,,switch,no_choice,NA,,,Hi,,,,,,1,,,,,,,,low,2,0,2,0,1,,,,,,,,,
292450,2022-09-21_17h06.52.164,vts_reward_expectancy,2022.2.4,Win32,60.0024001,Chrome,1366,768,,,,,0,750,,,,,,,,,,,,,,,,,160,U,hexagon,1,0,,,,,,,,,,,,,,,,switch,letter,lettSwt,k,1.017,Hi,,,,,,1,,,,,,,,low,3,0,3,0,1,,,,,,,,,
292450,2022-09-21_17h06.52.164,vts_reward_expectancy,2022.2.4,Win32,60.0024001,Chrome,1366,768,,,,,0,750,,,,,,,,,,,,,,,,,146,Y,hexagon,1,0,,,,,,,,,,,,,,,,repeat,letter,lettRpt,k,0.6565,Hi,,,,,,1,,,,,,,,low,4,0,4,0,1,,,,,,,,,
292450,2022-09-21_17h06.52.164,vts_reward_expectancy,2022.2.4,Win32,60.0024001,Chrome,1366,768,,,,,10,760,,,,,,,,,,,,,,,,,125,W,circle,1,0,,,,,,,,,,,,,,,,repeat,letter,lettRpt,k,0.4339,Lo,,,,,,1,,,,,,,,low,5,0,5,0,1,,,,,,,,,
292450,2022-09-21_17h06.52.164,vts_reward_expectancy,2022.2.4,Win32,60.0024001,Chrome,1366,768,,,,,10,770,,,,,,,,,,,,,,,,,139,D,circle,1,0,,,,,,,,,,,,,,,,switch,number,numSwt,d,0.8493,Lo,,,,,,1,,,,,,,,low,6,0,6,0,1,,,,,,,,,
292450,2022-09-21_17h06.52.164,vts_reward_expectancy,2022.2.4,Win32,60.0024001,Chrome,1366,768,,,,,0,770,,,,,,,,,,,,,,,,,132,F,hexagon,1,0,,,,,,,,,,,,,,,,switch,letter,lettSwt,j,0.9505,Hi,,,,,,1,,,,,,,,low,7,0,7,0,1,,,,,,,,,
292450,2022-09-21_17h06.52.164,vts_reward_expectancy,2022.2.4,Win32,60.0024001,Chrome,1366,768,,,,,1,771,,,,,,,,,,,,,,,,,181,H,circle,1,0,,,,,,,,,,,,,,,,switch,number,numSwt,f,0.728,Lo,,,,,,1,,,,,,,,low,8,0,8,0,1,,,,,,,,,
292450,2022-09-21_17h06.52.164,vts_reward_expectancy,2022.2.4,Win32,60.0024001,Chrome,1366,768,,,,,1,772,,,,,,,,,,,,,,,,,174,B,hexagon,1,0,,,,,,,,,,,,,,,,switch,letter,lettSwt,j,0.5315,Hi,,,,,,1,,,,,,,,low,9,0,9,0,1,,,,,,,,,
292450,2022-09-21_17h06.52.164,vts_reward_expectancy,2022.2.4,Win32,60.0024001,Chrome,1366,768,,,,,1,773,,,,,,,,,,,,,,,,,167,S,circle,1,0,,,,,,,,,,,,,,,,switch,number,numSwt,f,0.5467,Lo,,,,,,1,,,,,,,,low,10,0,10,0,1,,,,,,,,,
292450,2022-09-21_17h06.52.164,vts_reward_expectancy,2022.2.4,Win32,60.0024001,Chrome,1366,768,,,,,1,774,,,,,,,,,,,,,,,,,160,U,hexagon,1,0,,,,,,,,,,,,,,,,switch,letter,lettSwt,k,0.5587,Hi,,,,,,1,,,,,,,,low,11,0,11,0,1,,,,,,,,,
292450,2022-09-21_17h06.52.164,vts_reward_expectancy,2022.2.4,Win32,60.0024001,Chrome,1366,768,,,,,1,775,,,,,,,,,,,,,,,,,146,Y,circle,1,0,,,,,,,,,,,,,,,,switch,number,numSwt,d,0.6717,Lo,,,,,,1,,,,,,,,low,12,0,12,0,1,,,,,,,,,
292450,2022-09-21_17h06.52.164,vts_reward_expectancy,2022.2.4,Win32,60.0024001,Chrome,1366,768,,,,,10,785,,,,,,,,,,,,,,,,,125,W,hexagon,1,0,,,,,,,,,,,,,,,,switch,letter,lettSwt,k,0.5174,Hi,,,,,,1,,,,,,,,low,13,0,13,0,1,,,,,,,,,
292450,2022-09-21_17h06.52.164,vts_reward_expectancy,2022.2.4,Win32,60.0024001,Chrome,1366,768,,,,,0,785,,,,,,,,,,,,,,,,,139,D,hexagon,1,0,,,,,,,,,,,,,,,,switch,number,numSwt,d,0.8666,Hi,,,,,,1,,,,,,,,low,14,0,14,0,1,,,,,,,,,
292450,2022-09-21_17h06.52.164,vts_reward_expectancy,2022.2.4,Win32,60.0024001,Chrome,1366,768,,,,,1,786,,,,,,,,,,,,,,,,,132,F,circle,1,0,,,,,,,,,,,,,,,,switch,letter,lettSwt,j,1.5427,Lo,,,,,,1,,,,,,,,low,15,0,15,0,1,,,,,,,,,
292450,2022-09-21_17h06.52.164,vts_reward_expectancy,2022.2.4,Win32,60.0024001,Chrome,1366,768,,,,,0,786,,,,,,,,,,,,,,,,,160,W,hexagon,1,0,,,,,,,,,,,,,,,,switch,number,numSwt,f,0.9543,Hi,,,,,,1,,,,,,,,low,16,0,16,0,1,,,,,,,,,
292450,2022-09-21_17h06.52.164,vts_reward_expectancy,2022.2.4,Win32,60.0024001,Chrome,1366,768,,,,,0,786,,,,,,,,,,,,,,,,,132,B,circle,0,0,,,,,,,,,,,,,,,,switch,letter,NA,k,0.4862,Hi,,,,,,1,,,,,,,,low,17,0,17,0,1,,,,,,,,,
292450,2022-09-21_17h06.52.164,vts_reward_expectancy,2022.2.4,Win32,60.0024001,Chrome,1366,768,,,,,0,786,,,,,,,,,,,,,,,,,125,H,hexagon,1,1,,,,,,,,,,,,,,,,repeat,letter,lettRpt,j,0.6838,Hi,,,,,,1,,,,,,,,low,18,0,18,0,1,,,,,,,,,
292450,2022-09-21_17h06.52.164,vts_reward_expectancy,2022.2.4,Win32,60.0024001,Chrome,1366,768,,,,,1,787,,,,,,,,,,,,,,,,,167,F,circle,1,0,,,,,,,,,,,,,,,,switch,number,numSwt,f,1.1173,Lo,,,,,,1,,,,,,,,low,19,0,19,0,1,,,,,,,,,
292450,2022-09-21_17h06.52.164,vts_reward_expectancy,2022.2.4,Win32,60.0024001,Chrome,1366,768,,,,,0,787,,,,,,,,,,,,,,,,,181,U,hexagon,1,0,,,,,,,,,,,,,,,,switch,letter,lettSwt,k,0.946,Hi,,,,,,1,,,,,,,,low,20,0,20,0,1,,,,,,,,,
292450,2022-09-21_17h06.52.164,vts_reward_expectancy,2022.2.4,Win32,60.0024001,Chrome,1366,768,,,,,1,788,,,,,,,,,,,,,,,,,146,S,circle,1,0,,,,,,,,,,,,,,,,switch,number,numSwt,d,1.1787,Lo,,,,,,1,,,,,,,,low,21,0,21,0,1,,,,,,,,,
292450,2022-09-21_17h06.52.164,vts_reward_expectancy,2022.2.4,Win32,60.0024001,Chrome,1366,768,,,,,0,788,,,,,,,,,,,,,,,,,174,Y,hexagon,1,0,,,,,,,,,,,,,,,,switch,letter,lettSwt,k,0.7322,Hi,,,,,,1,,,,,,,,low,22,0,22,0,1,,,,,,,,,
292450,2022-09-21_17h06.52.164,vts_reward_expectancy,2022.2.4,Win32,60.0024001,Chrome,1366,768,,,,,1,789,,,,,,,,,,,,,,,,,139,D,circle,1,0,,,,,,,,,,,,,,,,repeat,letter,lettRpt,j,0.8948,Lo,,,,,,1,,,,,,,,low,23,0,23,0,1,,,,,,,,,
292450,2022-09-21_17h06.52.164,vts_reward_expectancy,2022.2.4,Win32,60.0024001,Chrome,1366,768,,,,,10,799,,,,,,,,,,,,,,,,,167,B,hexagon,1,0,,,,,,,,,,,,,,,,repeat,letter,lettRpt,j,0.4826,Hi,,,,,,1,,,,,,,,low,24,0,24,0,1,,,,,,,,,
292450,2022-09-21_17h06.52.164,vts_reward_expectancy,2022.2.4,Win32,60.0024001,Chrome,1366,768,,,,,1,800,,,,,,,,,,,,,,,,,125,D,circle,1,0,,,,,,,,,,,,,,,,switch,number,numSwt,d,0.6775,Lo,,,,,,1,,,,,,,,low,25,0,25,0,1,,,,,,,,,
292450,2022-09-21_17h06.52.164,vts_reward_expectancy,2022.2.4,Win32,60.0024001,Chrome,1366,768,,,,,0,800,,,,,,,,,,,,,,,,,174,U,hexagon,1,0,,,,,,,,,,,,,,,,switch,letter,lettSwt,k,0.86,Hi,,,,,,1,,,,,,,,low,26,0,26,0,1,,,,,,,,,
292450,2022-09-21_17h06.52.164,vts_reward_expectancy,2022.2.4,Win32,60.0024001,Chrome,1366,768,,,,,1,801,,,,,,,,,,,,,,,,,139,S,circle,1,0,,,,,,,,,,,,,,,,switch,number,numSwt,d,1.4929,Lo,,,,,,1,,,,,,,,low,27,0,27,0,1,,,,,,,,,
292450,2022-09-21_17h06.52.164,vts_reward_expectancy,2022.2.4,Win32,60.0024001,Chrome,1366,768,,,,,0,801,,,,,,,,,,,,,,,,,132,H,circle,0,0,,,,,,,,,,,,,,,,switch,letter,NA,k,0.278,Lo,,,,,,1,,,,,,,,low,28,0,28,0,1,,,,,,,,,
292450,2022-09-21_17h06.52.164,vts_reward_expectancy,2022.2.4,Win32,60.0024001,Chrome,1366,768,,,,,0,801,,,,,,,,,,,,,,,,,160,F,hexagon,1,1,,,,,,,,,,,,,,,,switch,number,numSwt,f,0.7269,Hi,,,,,,1,,,,,,,,low,29,0,29,0,1,,,,,,,,,
292450,2022-09-21_17h06.52.164,vts_reward_expectancy,2022.2.4,Win32,60.0024001,Chrome,1366,768,,,,,0,801,,,,,,,,,,,,,,,,,146,Y,hexagon,1,0,,,,,,,,,,,,,,,,switch,letter,lettSwt,k,0.7105,Hi,,,,,,1,,,,,,,,low,30,0,30,0,1,,,,,,,,,
292450,2022-09-21_17h06.52.164,vts_reward_expectancy,2022.2.4,Win32,60.0024001,Chrome,1366,768,,,,,1,802,,,,,,,,,,,,,,,,,181,W,circle,1,0,,,,,,,,,,,,,,,,switch,number,numSwt,f,0.7118,Lo,,,,,,1,,,,,,,,low,31,0,31,0,1,,,,,,,,,
292450,2022-09-21_17h06.52.164,vts_reward_expectancy,2022.2.4,Win32,60.0024001,Chrome,1366,768,,,,,10,812,,,,,,,,,,,,,,,,,160,F,circle,1,0,,,,,,,,,,,,,,,,switch,letter,lettSwt,j,0.6866,Lo,,,,,,2,,,,,,space,6.0414,low,0,0,0,0,1,,,,,,,,,
292450,2022-09-21_17h06.52.164,vts_reward_expectancy,2022.2.4,Win32,60.0024001,Chrome,1366,768,,,,,0,812,,,,,,,,,,,,,,,,,146,W,hexagon,1,0,,,,,,,,,,,,,,,,switch,number,numSwt,d,0.7847,Hi,,,,,,2,,,,,,,,low,1,0,1,0,1,,,,,,,,,
292450,2022-09-21_17h06.52.164,vts_reward_expectancy,2022.2.4,Win32,60.0024001,Chrome,1366,768,,,,,1,813,,,,,,,,,,,,,,,,,125,D,circle,1,0,,,,,,,,,,,,,,,,switch,letter,lettSwt,j,0.5837,Lo,,,,,,2,,,,,,,,low,2,0,2,0,1,,,,,,,,,
292450,2022-09-21_17h06.52.164,vts_reward_expectancy,2022.2.4,Win32,60.0024001,Chrome,1366,768,,,,,0,813,,,,,,,,,,,,,,,,,174,U,hexagon,1,0,,,,,,,,,,,,,,,,repeat,letter,lettRpt,k,0.8332,Hi,,,,,,2,,,,,,,,low,3,0,3,0,1,,,,,,,,,
292450,2022-09-21_17h06.52.164,vts_reward_expectancy,2022.2.4,Win32,60.0024001,Chrome,1366,768,,,,,0,813,,,,,,,,,,,,,,,,,139,H,hexagon,1,0,,,,,,,,,,,,,,,,switch,number,numSwt,d,1.3206,Hi,,,,,,2,,,,,,,,low,4,0,4,0,1,,,,,,,,,
292450,2022-09-21_17h06.52.164,vts_reward_expectancy,2022.2.4,Win32,60.0024001,Chrome,1366,768,,,,,1,814,,,,,,,,,,,,,,,,,167,B,circle,1,0,,,,,,,,,,,,,,,,switch,letter,lettSwt,j,0.5503,Lo,,,,,,2,,,,,,,,low,5,0,5,0,1,,,,,,,,,
292450,2022-09-21_17h06.52.164,vts_reward_expectancy,2022.2.4,Win32,60.0024001,Chrome,1366,768,,,,,0,814,,,,,,,,,,,,,,,,,181,Y,hexagon,1,0,,,,,,,,,,,,,,,,repeat,letter,lettRpt,k,0.8424,Hi,,,,,,2,,,,,,,,low,6,0,6,0,1,,,,,,,,,
292450,2022-09-21_17h06.52.164,vts_reward_expectancy,2022.2.4,Win32,60.0024001,Chrome,1366,768,,,,,1,815,,,,,,,,,,,,,,,,,132,S,circle,1,0,,,,,,,,,,,,,,,,switch,number,numSwt,d,0.5639,Lo,,,,,,2,,,,,,,,low,7,0,7,0,1,,,,,,,,,
292450,2022-09-21_17h06.52.164,vts_reward_expectancy,2022.2.4,Win32,60.0024001,Chrome,1366,768,,,,,0,815,,,,,,,,,,,,,,,,,160,F,hexagon,1,0,,,,,,,,,,,,,,,,switch,letter,lettSwt,j,0.9118,Hi,,,,,,2,,,,,,,,low,8,0,8,0,1,,,,,,,,,
292450,2022-09-21_17h06.52.164,vts_reward_expectancy,2022.2.4,Win32,60.0024001,Chrome,1366,768,,,,,10,825,,,,,,,,,,,,,,,,,146,W,circle,1,0,,,,,,,,,,,,,,,,switch,number,numSwt,d,0.5785,Lo,,,,,,2,,,,,,,,low,9,0,9,0,1,,,,,,,,,
292450,2022-09-21_17h06.52.164,vts_reward_expectancy,2022.2.4,Win32,60.0024001,Chrome,1366,768,,,,,0,825,,,,,,,,,,,,,,,,,125,D,circle,0,0,,,,,,,,,,,,,,,,switch,letter,NA,k,0.3953,Lo,,,,,,2,,,,,,,,low,10,0,10,0,1,,,,,,,,,
292450,2022-09-21_17h06.52.164,vts_reward_expectancy,2022.2.4,Win32,60.0024001,Chrome,1366,768,,,,,10,835,,,,,,,,,,,,,,,,,174,U,hexagon,1,1,,,,,,,,,,,,,,,,switch,number,numSwt,f,0.5288,Hi,,,,,,2,,,,,,,,low,11,0,11,0,1,,,,,,,,,
292450,2022-09-21_17h06.52.164,vts_reward_expectancy,2022.2.4,Win32,60.0024001,Chrome,1366,768,,,,,1,836,,,,,,,,,,,,,,,,,139,H,circle,1,0,,,,,,,,,,,,,,,,switch,letter,lettSwt,j,0.6121,Lo,,,,,,2,,,,,,,,low,12,0,12,0,1,,,,,,,,,
292450,2022-09-21_17h06.52.164,vts_reward_expectancy,2022.2.4,Win32,60.0024001,Chrome,1366,768,,,,,0,836,,,,,,,,,,,,,,,,,167,B,hexagon,1,0,,,,,,,,,,,,,,,,repeat,letter,lettRpt,j,0.6453,Hi,,,,,,2,,,,,,,,low,13,0,13,0,1,,,,,,,,,
292450,2022-09-21_17h06.52.164,vts_reward_expectancy,2022.2.4,Win32,60.0024001,Chrome,1366,768,,,,,0,836,,,,,,,,,,,,,,,,,181,Y,circle,0,0,,,,,,,,,,,,,,,,switch,number,NA,d,0.4405,Hi,,,,,,2,,,,,,,,low,14,0,14,0,1,,,,,,,,,
292450,2022-09-21_17h06.52.164,vts_reward_expectancy,2022.2.4,Win32,60.0024001,Chrome,1366,768,,,,,0,836,,,,,,,,,,,,,,,,,132,S,hexagon,0,1,,,,,,,,,,,,,,,,repeat,number,NA,f,0.2908,Hi,,,,,,2,,,,,,,,low,15,0,15,0,1,,,,,,,,,
292450,2022-09-21_17h06.52.164,vts_reward_expectancy,2022.2.4,Win32,60.0024001,Chrome,1366,768,,,,,10,846,,,,,,,,,,,,,,,,,174,W,hexagon,1,1,,,,,,,,,,,,,,,,switch,letter,lettSwt,k,0.4605,Hi,,,,,,2,,,,,,,,low,16,0,16,0,1,,,,,,,,,
292450,2022-09-21_17h06.52.164,vts_reward_expectancy,2022.2.4,Win32,60.0024001,Chrome,1366,768,,,,,1,847,,,,,,,,,,,,,,,,,160,F,circle,1,0,,,,,,,,,,,,,,,,switch,number,numSwt,f,0.5314,Lo,,,,,,2,,,,,,,,low,17,0,17,0,1,,,,,,,,,
292450,2022-09-21_17h06.52.164,vts_reward_expectancy,2022.2.4,Win32,60.0024001,Chrome,1366,768,,,,,10,857,,,,,,,,,,,,,,,,,139,H,circle,1,0,,,,,,,,,,,,,,,,switch,letter,lettSwt,j,0.6012,Lo,,,,,,2,,,,,,,,low,18,0,18,0,1,,,,,,,,,
292450,2022-09-21_17h06.52.164,vts_reward_expectancy,2022.2.4,Win32,60.0024001,Chrome,1366,768,,,,,0,857,,,,,,,,,,,,,,,,,167,U,hexagon,1,0,,,,,,,,,,,,,,,,switch,number,numSwt,f,0.9539,Hi,,,,,,2,,,,,,,,low,19,0,19,0,1,,,,,,,,,
292450,2022-09-21_17h06.52.164,vts_reward_expectancy,2022.2.4,Win32,60.0024001,Chrome,1366,768,,,,,0,857,,,,,,,,,,,,,,,,,146,Y,circle,0,0,,,,,,,,,,,,,,,,switch,letter,NA,j,0.6677,Hi,,,,,,2,,,,,,,,low,20,0,20,0,1,,,,,,,,,
292450,2022-09-21_17h06.52.164,vts_reward_expectancy,2022.2.4,Win32,60.0024001,Chrome,1366,768,,,,,0,857,,,,,,,,,,,,,,,,,132,D,hexagon,0,1,,,,,,,,,,,,,,,,repeat,letter,NA,k,0.2333,Hi,,,,,,2,,,,,,,,low,21,0,21,0,1,,,,,,,,,
292450,2022-09-21_17h06.52.164,vts_reward_expectancy,2022.2.4,Win32,60.0024001,Chrome,1366,768,,,,,0,857,,,,,,,,,,,,,,,,,181,B,circle,0,1,,,,,,,,,,,,,,,,switch,number,NA,d,0.2861,Hi,,,,,,2,,,,,,,,low,22,0,22,0,1,,,,,,,,,
292450,2022-09-21_17h06.52.164,vts_reward_expectancy,2022.2.4,Win32,60.0024001,Chrome,1366,768,,,,,0,857,,,,,,,,,,,,,,,,,125,S,hexagon,1,1,,,,,,,,,,,,,,,,switch,letter,lettSwt,k,1.334,Hi,,,,,,2,,,,,,,,low,23,0,23,0,1,,,,,,,,,
292450,2022-09-21_17h06.52.164,vts_reward_expectancy,2022.2.4,Win32,60.0024001,Chrome,1366,768,,,,,0,857,,,,,,,,,,,,,,,,,125,S,hexagon,1,0,,,,,,,,,,,,,,,,switch,number,numSwt,d,0.9006,Hi,,,,,,2,,,,,,,,low,24,0,24,0,1,,,,,,,,,
292450,2022-09-21_17h06.52.164,vts_reward_expectancy,2022.2.4,Win32,60.0024001,Chrome,1366,768,,,,,1,858,,,,,,,,,,,,,,,,,132,H,circle,1,0,,,,,,,,,,,,,,,,switch,letter,lettSwt,j,0.7686,Lo,,,,,,2,,,,,,,,low,25,0,25,0,1,,,,,,,,,
292450,2022-09-21_17h06.52.164,vts_reward_expectancy,2022.2.4,Win32,60.0024001,Chrome,1366,768,,,,,10,868,,,,,,,,,,,,,,,,,139,W,hexagon,1,0,,,,,,,,,,,,,,,,switch,number,numSwt,d,0.634,Hi,,,,,,2,,,,,,,,low,26,0,26,0,1,,,,,,,,,
292450,2022-09-21_17h06.52.164,vts_reward_expectancy,2022.2.4,Win32,60.0024001,Chrome,1366,768,,,,,10,878,,,,,,,,,,,,,,,,,167,U,circle,1,0,,,,,,,,,,,,,,,,switch,letter,lettSwt,k,1.0746,Lo,,,,,,2,,,,,,,,low,27,0,27,0,1,,,,,,,,,
292450,2022-09-21_17h06.52.164,vts_reward_expectancy,2022.2.4,Win32,60.0024001,Chrome,1366,768,,,,,10,888,,,,,,,,,,,,,,,,,181,F,circle,1,0,,,,,,,,,,,,,,,,switch,number,numSwt,f,0.7075,Lo,,,,,,2,,,,,,,,low,28,0,28,0,1,,,,,,,,,
292450,2022-09-21_17h06.52.164,vts_reward_expectancy,2022.2.4,Win32,60.0024001,Chrome,1366,768,,,,,1,889,,,,,,,,,,,,,,,,,146,Y,hexagon,1,0,,,,,,,,,,,,,,,,switch,letter,lettSwt,k,0.5995,Hi,,,,,,2,,,,,,,,low,29,0,29,0,1,,,,,,,,,
292450,2022-09-21_17h06.52.164,vts_reward_expectancy,2022.2.4,Win32,60.0024001,Chrome,1366,768,,,,,10,899,,,,,,,,,,,,,,,,,160,D,hexagon,1,0,,,,,,,,,,,,,,,,switch,number,numSwt,f,0.6832,Hi,,,,,,2,,,,,,,,low,30,0,30,0,1,,,,,,,,,
292450,2022-09-21_17h06.52.164,vts_reward_expectancy,2022.2.4,Win32,60.0024001,Chrome,1366,768,,,,,1,900,,,,,,,,,,,,,,,,,174,B,circle,1,0,,,,,,,,,,,,,,,,switch,letter,lettSwt,j,0.4666,Lo,,,,,,2,,,,,,,,low,31,0,31,0,1,,,,,,,,,
292450,2022-09-21_17h06.52.164,vts_reward_expectancy,2022.2.4,Win32,60.0024001,Chrome,1366,768,,,,,10,910,,,,,,,,,,,,,,,,,167,W,triangle,1,0,,,,,,,,,,,,,,,,switch,number,numSwt,f,0.5315,Hi,,,,,,3,,,,,,space,0.9164,high,0,0,0,0,1,,,,,,,,,
292450,2022-09-21_17h06.52.164,vts_reward_expectancy,2022.2.4,Win32,60.0024001,Chrome,1366,768,,,,,10,920,,,,,,,,,,,,,,,,,160,Y,star,1,0,,,,,,,,,,,,,,,,switch,letter,lettSwt,k,0.7161,Lo,,,,,,3,,,,,,,,high,1,0,1,0,1,,,,,,,,,
292450,2022-09-21_17h06.52.164,vts_reward_expectancy,2022.2.4,Win32,60.0024001,Chrome,1366,768,,,,,0,920,,,,,,,,,,,,,,,,,174,H,triangle,1,0,,,,,,,,,,,,,,,,switch,number,numSwt,f,0.7339,Hi,,,,,,3,,,,,,,,high,2,0,2,0,1,,,,,,,,,
292450,2022-09-21_17h06.52.164,vts_reward_expectancy,2022.2.4,Win32,60.0024001,Chrome,1366,768,,,,,1,921,,,,,,,,,,,,,,,,,146,F,star,1,0,,,,,,,,,,,,,,,,switch,letter,lettSwt,j,1.3665,Lo,,,,,,3,,,,,,,,high,3,0,3,0,1,,,,,,,,,
292450,2022-09-21_17h06.52.164,vts_reward_expectancy,2022.2.4,Win32,60.0024001,Chrome,1366,768,,,,,10,931,,,,,,,,,,,,,,,,,132,B,triangle,1,0,,,,,,,,,,,,,,,,switch,number,numSwt,d,0.5833,Hi,,,,,,3,,,,,,,,high,4,0,4,0,1,,,,,,,,,
292450,2022-09-21_17h06.52.164,vts_reward_expectancy,2022.2.4,Win32,60.0024001,Chrome,1366,768,,,,,10,941,,,,,,,,,,,,,,,,,181,S,star,1,0,,,,,,,,,,,,,,,,switch,letter,lettSwt,k,0.8116,Lo,,,,,,3,,,,,,,,high,5,0,5,0,1,,,,,,,,,
292450,2022-09-21_17h06.52.164,vts_reward_expectancy,2022.2.4,Win32,60.0024001,Chrome,1366,768,,,,,1,942,,,,,,,,,,,,,,,,,125,D,triangle,1,0,,,,,,,,,,,,,,,,switch,number,numSwt,d,0.4445,Hi,,,,,,3,,,,,,,,high,6,0,6,0,1,,,,,,,,,
292450,2022-09-21_17h06.52.164,vts_reward_expectancy,2022.2.4,Win32,60.0024001,Chrome,1366,768,,,,,1,943,,,,,,,,,,,,,,,,,139,U,star,1,0,,,,,,,,,,,,,,,,switch,letter,lettSwt,k,0.7634,Lo,,,,,,3,,,,,,,,high,7,0,7,0,1,,,,,,,,,
292450,2022-09-21_17h06.52.164,vts_reward_expectancy,2022.2.4,Win32,60.0024001,Chrome,1366,768,,,,,1,944,,,,,,,,,,,,,,,,,167,W,star,1,0,,,,,,,,,,,,,,,,switch,number,numSwt,f,0.7545,Lo,,,,,,3,,,,,,,,high,8,0,8,0,1,,,,,,,,,
292450,2022-09-21_17h06.52.164,vts_reward_expectancy,2022.2.4,Win32,60.0024001,Chrome,1366,768,,,,,0,944,,,,,,,,,,,,,,,,,160,Y,triangle,-1,0,,,,,,,,,,,,,,,,switch,no_choice,NA,,,Lo,,,,,,3,,,,,,,,high,9,0,9,0,1,,,,,,,,,
292450,2022-09-21_17h06.52.164,vts_reward_expectancy,2022.2.4,Win32,60.0024001,Chrome,1366,768,,,,,0,944,,,,,,,,,,,,,,,,,174,H,star,-1,0,,,,,,,,,,,,,,,,repeat,no_choice,NA,,,Lo,,,,,,3,,,,,,,,high,10,0,10,0,1,,,,,,,,,
292450,2022-09-21_17h06.52.164,vts_reward_expectancy,2022.2.4,Win32,60.0024001,Chrome,1366,768,,,,,0,944,,,,,,,,,,,,,,,,,146,F,triangle,-1,0,,,,,,,,,,,,,,,,repeat,no_choice,NA,,,Lo,,,,,,3,,,,,,,,high,11,0,11,0,1,,,,,,,,,
292450,2022-09-21_17h06.52.164,vts_reward_expectancy,2022.2.4,Win32,60.0024001,Chrome,1366,768,,,,,0,944,,,,,,,,,,,,,,,,,132,B,star,0,0,,,,,,,,,,,,,,,,switch,number,NA,f,1.7584,Lo,,,,,,3,,,,,,,,high,12,0,12,0,1,,,,,,,,,
292450,2022-09-21_17h06.52.164,vts_reward_expectancy,2022.2.4,Win32,60.0024001,Chrome,1366,768,,,,,10,954,,,,,,,,,,,,,,,,,181,S,triangle,1,1,,,,,,,,,,,,,,,,repeat,number,numRpt,f,1.6289,Hi,,,,,,3,,,,,,,,high,13,0,13,0,1,,,,,,,,,
292450,2022-09-21_17h06.52.164,vts_reward_expectancy,2022.2.4,Win32,60.0024001,Chrome,1366,768,,,,,10,964,,,,,,,,,,,,,,,,,125,D,triangle,1,0,,,,,,,,,,,,,,,,repeat,number,numRpt,d,0.8448,Hi,,,,,,3,,,,,,,,high,14,0,14,0,1,,,,,,,,,
292450,2022-09-21_17h06.52.164,vts_reward_expectancy,2022.2.4,Win32,60.0024001,Chrome,1366,768,,,,,10,974,,,,,,,,,,,,,,,,,139,U,star,1,0,,,,,,,,,,,,,,,,switch,letter,lettSwt,k,1.617,Lo,,,,,,3,,,,,,,,high,15,0,15,0,1,,,,,,,,,
292450,2022-09-21_17h06.52.164,vts_reward_expectancy,2022.2.4,Win32,60.0024001,Chrome,1366,768,,,,,1,975,,,,,,,,,,,,,,,,,139,B,star,1,0,,,,,,,,,,,,,,,,switch,number,numSwt,d,1.3168,Lo,,,,,,3,,,,,,,,high,16,0,16,0,1,,,,,,,,,
292450,2022-09-21_17h06.52.164,vts_reward_expectancy,2022.2.4,Win32,60.0024001,Chrome,1366,768,,,,,1,976,,,,,,,,,,,,,,,,,132,W,triangle,1,0,,,,,,,,,,,,,,,,repeat,number,numRpt,d,1.6001,Hi,,,,,,3,,,,,,,,high,17,0,17,0,1,,,,,,,,,
292450,2022-09-21_17h06.52.164,vts_reward_expectancy,2022.2.4,Win32,60.0024001,Chrome,1366,768,,,,,0,976,,,,,,,,,,,,,,,,,125,D,triangle,1,0,,,,,,,,,,,,,,,,switch,letter,lettSwt,j,1.4747,Hi,,,,,,3,,,,,,,,high,18,0,18,0,1,,,,,,,,,
292450,2022-09-21_17h06.52.164,vts_reward_expectancy,2022.2.4,Win32,60.0024001,Chrome,1366,768,,,,,1,977,,,,,,,,,,,,,,,,,167,U,star,1,0,,,,,,,,,,,,,,,,repeat,letter,lettRpt,k,0.8168,Lo,,,,,,3,,,,,,,,high,19,0,19,0,1,,,,,,,,,
292450,2022-09-21_17h06.52.164,vts_reward_expectancy,2022.2.4,Win32,60.0024001,Chrome,1366,768,,,,,0,977,,,,,,,,,,,,,,,,,160,H,triangle,1,0,,,,,,,,,,,,,,,,repeat,letter,lettRpt,j,1.7658,Hi,,,,,,3,,,,,,,,high,20,0,20,0,1,,,,,,,,,
292450,2022-09-21_17h06.52.164,vts_reward_expectancy,2022.2.4,Win32,60.0024001,Chrome,1366,768,,,,,0,977,,,,,,,,,,,,,,,,,146,F,star,0,0,,,,,,,,,,,,,,,,switch,number,NA,f,1.532,Hi,,,,,,3,,,,,,,,high,21,0,21,0,1,,,,,,,,,
292450,2022-09-21_17h06.52.164,vts_reward_expectancy,2022.2.4,Win32,60.0024001,Chrome,1366,768,,,,,1,978,,,,,,,,,,,,,,,,,174,S,star,1,1,,,,,,,,,,,,,,,,switch,letter,lettSwt,k,2.4563,Lo,,,,,,3,,,,,,,,high,22,0,22,0,1,,,,,,,,,
292450,2022-09-21_17h06.52.164,vts_reward_expectancy,2022.2.4,Win32,60.0024001,Chrome,1366,768,,,,,0,978,,,,,,,,,,,,,,,,,181,Y,triangle,0,0,,,,,,,,,,,,,,,,switch,number,NA,d,1.2834,Lo,,,,,,3,,,,,,,,high,23,0,23,0,1,,,,,,,,,
292450,2022-09-21_17h06.52.164,vts_reward_expectancy,2022.2.4,Win32,60.0024001,Chrome,1366,768,,,,,10,988,,,,,,,,,,,,,,,,,139,B,star,1,1,,,,,,,,,,,,,,,,switch,letter,lettSwt,j,1.2326,Lo,,,,,,3,,,,,,,,high,24,0,24,0,1,,,,,,,,,
292450,2022-09-21_17h06.52.164,vts_reward_expectancy,2022.2.4,Win32,60.0024001,Chrome,1366,768,,,,,0,988,,,,,,,,,,,,,,,,,125,Y,triangle,1,0,,,,,,,,,,,,,,,,switch,number,numSwt,d,0.6066,Hi,,,,,,3,,,,,,,,high,25,0,25,0,1,,,,,,,,,
292450,2022-09-21_17h06.52.164,vts_reward_expectancy,2022.2.4,Win32,60.0024001,Chrome,1366,768,,,,,0,988,,,,,,,,,,,,,,,,,167,H,triangle,1,0,,,,,,,,,,,,,,,,switch,letter,lettSwt,j,2.3192,Hi,,,,,,3,,,,,,,,high,26,0,26,0,1,,,,,,,,,
292450,2022-09-21_17h06.52.164,vts_reward_expectancy,2022.2.4,Win32,60.0024001,Chrome,1366,768,,,,,1,989,,,,,,,,,,,,,,,,,181,W,star,1,0,,,,,,,,,,,,,,,,repeat,letter,lettRpt,k,1.4899,Lo,,,,,,3,,,,,,,,high,27,0,27,0,1,,,,,,,,,
292450,2022-09-21_17h06.52.164,vts_reward_expectancy,2022.2.4,Win32,60.0024001,Chrome,1366,768,,,,,1,990,,,,,,,,,,,,,,,,,132,D,star,1,0,,,,,,,,,,,,,,,,switch,number,numSwt,d,1.9103,Lo,,,,,,3,,,,,,,,high,28,0,28,0,1,,,,,,,,,
292450,2022-09-21_17h06.52.164,vts_reward_expectancy,2022.2.4,Win32,60.0024001,Chrome,1366,768,,,,,0,990,,,,,,,,,,,,,,,,,174,U,triangle,1,0,,,,,,,,,,,,,,,,switch,letter,lettSwt,k,1.7255,Hi,,,,,,3,,,,,,,,high,29,0,29,0,1,,,,,,,,,
292450,2022-09-21_17h06.52.164,vts_reward_expectancy,2022.2.4,Win32,60.0024001,Chrome,1366,768,,,,,0,990,,,,,,,,,,,,,,,,,160,F,star,-1,0,,,,,,,,,,,,,,,,switch,no_choice,NA,,,Hi,,,,,,3,,,,,,,,high,30,0,30,0,1,,,,,,,,,
292450,2022-09-21_17h06.52.164,vts_reward_expectancy,2022.2.4,Win32,60.0024001,Chrome,1366,768,,,,,0,990,,,,,,,,,,,,,,,,,146,S,triangle,1,0,,,,,,,,,,,,,,,,switch,letter,lettSwt,k,1.8901,Hi,,,,,,3,,,,,,,,high,31,0,31,0,1,,,,,,,,,
292450,2022-09-21_17h06.52.164,vts_reward_expectancy,2022.2.4,Win32,60.0024001,Chrome,1366,768,,,,,1,991,,,,,,,,,,,,,,,,,125,U,star,1,0,,,,,,,,,,,,,,,,repeat,letter,lettRpt,k,0.9258,Lo,,,,,,4,,,,,,space,1.5952,high,0,0,0,0,1,,,,,,,,,
292450,2022-09-21_17h06.52.164,vts_reward_expectancy,2022.2.4,Win32,60.0024001,Chrome,1366,768,,,,,0,991,,,,,,,,,,,,,,,,,181,Y,triangle,1,0,,,,,,,,,,,,,,,,switch,number,numSwt,f,0.8276,Hi,,,,,,4,,,,,,,,high,1,0,1,0,1,,,,,,,,,
292450,2022-09-21_17h06.52.164,vts_reward_expectancy,2022.2.4,Win32,60.0024001,Chrome,1366,768,,,,,1,992,,,,,,,,,,,,,,,,,174,H,star,1,0,,,,,,,,,,,,,,,,switch,letter,lettSwt,j,0.8274,Lo,,,,,,4,,,,,,,,high,2,0,2,0,1,,,,,,,,,
292450,2022-09-21_17h06.52.164,vts_reward_expectancy,2022.2.4,Win32,60.0024001,Chrome,1366,768,,,,,0,992,,,,,,,,,,,,,,,,,146,D,triangle,1,0,,,,,,,,,,,,,,,,switch,number,numSwt,d,0.9273,Hi,,,,,,4,,,,,,,,high,3,0,3,0,1,,,,,,,,,
292450,2022-09-21_17h06.52.164,vts_reward_expectancy,2022.2.4,Win32,60.0024001,Chrome,1366,768,,,,,10,1002,,,,,,,,,,,,,,,,,132,B,star,1,0,,,,,,,,,,,,,,,,switch,letter,lettSwt,j,1.4431,Lo,,,,,,4,,,,,,,,high,4,0,4,0,1,,,,,,,,,
292450,2022-09-21_17h06.52.164,vts_reward_expectancy,2022.2.4,Win32,60.0024001,Chrome,1366,768,,,,,0,1002,,,,,,,,,,,,,,,,,139,S,triangle,1,0,,,,,,,,,,,,,,,,switch,number,numSwt,d,0.7823,Hi,,,,,,4,,,,,,,,high,5,0,5,0,1,,,,,,,,,
292450,2022-09-21_17h06.52.164,vts_reward_expectancy,2022.2.4,Win32,60.0024001,Chrome,1366,768,,,,,0,1002,,,,,,,,,,,,,,,,,167,F,triangle,1,0,,,,,,,,,,,,,,,,switch,letter,lettSwt,j,1.7988,Hi,,,,,,4,,,,,,,,high,6,0,6,0,1,,,,,,,,,
292450,2022-09-21_17h06.52.164,vts_reward_expectancy,2022.2.4,Win32,60.0024001,Chrome,1366,768,,,,,10,1012,,,,,,,,,,,,,,,,,160,W,star,1,0,,,,,,,,,,,,,,,,switch,number,numSwt,f,1.6989,Lo,,,,,,4,,,,,,,,high,7,0,7,0,1,,,,,,,,,
292450,2022-09-21_17h06.52.164,vts_reward_expectancy,2022.2.4,Win32,60.0024001,Chrome,1366,768,,,,,1,1013,,,,,,,,,,,,,,,,,125,U,star,1,0,,,,,,,,,,,,,,,,switch,letter,lettSwt,k,1.074,Lo,,,,,,4,,,,,,,,high,8,0,8,0,1,,,,,,,,,
292450,2022-09-21_17h06.52.164,vts_reward_expectancy,2022.2.4,Win32,60.0024001,Chrome,1366,768,,,,,0,1013,,,,,,,,,,,,,,,,,181,Y,triangle,1,0,,,,,,,,,,,,,,,,switch,number,numSwt,f,0.9462,Hi,,,,,,4,,,,,,,,high,9,0,9,0,1,,,,,,,,,
292450,2022-09-21_17h06.52.164,vts_reward_expectancy,2022.2.4,Win32,60.0024001,Chrome,1366,768,,,,,1,1014,,,,,,,,,,,,,,,,,174,H,star,1,0,,,,,,,,,,,,,,,,repeat,number,numRpt,f,1.1789,Lo,,,,,,4,,,,,,,,high,10,0,10,0,1,,,,,,,,,
292450,2022-09-21_17h06.52.164,vts_reward_expectancy,2022.2.4,Win32,60.0024001,Chrome,1366,768,,,,,10,1024,,,,,,,,,,,,,,,,,146,D,triangle,1,0,,,,,,,,,,,,,,,,switch,letter,lettSwt,j,0.6511,Hi,,,,,,4,,,,,,,,high,11,0,11,0,1,,,,,,,,,
292450,2022-09-21_17h06.52.164,vts_reward_expectancy,2022.2.4,Win32,60.0024001,Chrome,1366,768,,,,,10,1034,,,,,,,,,,,,,,,,,132,B,triangle,1,0,,,,,,,,,,,,,,,,repeat,letter,lettRpt,j,0.7999,Hi,,,,,,4,,,,,,,,high,12,0,12,0,1,,,,,,,,,
292450,2022-09-21_17h06.52.164,vts_reward_expectancy,2022.2.4,Win32,60.0024001,Chrome,1366,768,,,,,1,1035,,,,,,,,,,,,,,,,,139,S,star,1,0,,,,,,,,,,,,,,,,repeat,letter,lettRpt,k,0.839,Lo,,,,,,4,,,,,,,,high,13,0,13,0,1,,,,,,,,,
292450,2022-09-21_17h06.52.164,vts_reward_expectancy,2022.2.4,Win32,60.0024001,Chrome,1366,768,,,,,0,1035,,,,,,,,,,,,,,,,,167,F,triangle,1,0,,,,,,,,,,,,,,,,switch,number,numSwt,f,0.7802,Hi,,,,,,4,,,,,,,,high,14,0,14,0,1,,,,,,,,,
292450,2022-09-21_17h06.52.164,vts_reward_expectancy,2022.2.4,Win32,60.0024001,Chrome,1366,768,,,,,10,1045,,,,,,,,,,,,,,,,,160,W,star,1,0,,,,,,,,,,,,,,,,switch,letter,lettSwt,k,0.6088,Lo,,,,,,4,,,,,,,,high,15,0,15,0,1,,,,,,,,,
292450,2022-09-21_17h06.52.164,vts_reward_expectancy,2022.2.4,Win32,60.0024001,Chrome,1366,768,,,,,1,1046,,,,,,,,,,,,,,,,,160,S,star,1,0,,,,,,,,,,,,,,,,switch,number,numSwt,f,0.9469,Lo,,,,,,4,,,,,,,,high,16,0,16,0,1,,,,,,,,,
292450,2022-09-21_17h06.52.164,vts_reward_expectancy,2022.2.4,Win32,60.0024001,Chrome,1366,768,,,,,10,1056,,,,,,,,,,,,,,,,,125,F,triangle,1,0,,,,,,,,,,,,,,,,switch,letter,lettSwt,j,0.7263,Hi,,,,,,4,,,,,,,,high,17,0,17,0,1,,,,,,,,,
292450,2022-09-21_17h06.52.164,vts_reward_expectancy,2022.2.4,Win32,60.0024001,Chrome,1366,768,,,,,1,1057,,,,,,,,,,,,,,,,,146,Y,star,1,0,,,,,,,,,,,,,,,,switch,number,numSwt,d,0.7435,Lo,,,,,,4,,,,,,,,high,18,0,18,0,1,,,,,,,,,
292450,2022-09-21_17h06.52.164,vts_reward_expectancy,2022.2.4,Win32,60.0024001,Chrome,1366,768,,,,,1,1058,,,,,,,,,,,,,,,,,139,W,triangle,1,0,,,,,,,,,,,,,,,,switch,letter,lettSwt,k,0.9331,Hi,,,,,,4,,,,,,,,high,19,0,19,0,1,,,,,,,,,
292450,2022-09-21_17h06.52.164,vts_reward_expectancy,2022.2.4,Win32,60.0024001,Chrome,1366,768,,,,,1,1059,,,,,,,,,,,,,,,,,174,U,star,1,0,,,,,,,,,,,,,,,,switch,number,numSwt,f,0.4041,Lo,,,,,,4,,,,,,,,high,20,0,20,0,1,,,,,,,,,
292450,2022-09-21_17h06.52.164,vts_reward_expectancy,2022.2.4,Win32,60.0024001,Chrome,1366,768,,,,,10,1069,,,,,,,,,,,,,,,,,181,D,triangle,1,0,,,,,,,,,,,,,,,,switch,letter,lettSwt,j,0.8009,Hi,,,,,,4,,,,,,,,high,21,0,21,0,1,,,,,,,,,
292450,2022-09-21_17h06.52.164,vts_reward_expectancy,2022.2.4,Win32,60.0024001,Chrome,1366,768,,,,,1,1070,,,,,,,,,,,,,,,,,167,B,star,1,0,,,,,,,,,,,,,,,,repeat,letter,lettRpt,j,0.7014,Lo,,,,,,4,,,,,,,,high,22,0,22,0,1,,,,,,,,,
292450,2022-09-21_17h06.52.164,vts_reward_expectancy,2022.2.4,Win32,60.0024001,Chrome,1366,768,,,,,0,1070,,,,,,,,,,,,,,,,,132,H,triangle,1,0,,,,,,,,,,,,,,,,switch,number,numSwt,d,0.8344,Hi,,,,,,4,,,,,,,,high,23,0,23,0,1,,,,,,,,,
292450,2022-09-21_17h06.52.164,vts_reward_expectancy,2022.2.4,Win32,60.0024001,Chrome,1366,768,,,,,1,1071,,,,,,,,,,,,,,,,,167,U,triangle,1,0,,,,,,,,,,,,,,,,repeat,number,numRpt,f,0.5945,Hi,,,,,,4,,,,,,,,high,24,0,24,0,1,,,,,,,,,
292450,2022-09-21_17h06.52.164,vts_reward_expectancy,2022.2.4,Win32,60.0024001,Chrome,1366,768,,,,,1,1072,,,,,,,,,,,,,,,,,181,H,star,1,0,,,,,,,,,,,,,,,,switch,letter,lettSwt,j,0.8941,Lo,,,,,,4,,,,,,,,high,25,0,25,0,1,,,,,,,,,
292450,2022-09-21_17h06.52.164,vts_reward_expectancy,2022.2.4,Win32,60.0024001,Chrome,1366,768,,,,,1,1073,,,,,,,,,,,,,,,,,132,D,star,1,0,,,,,,,,,,,,,,,,repeat,letter,lettRpt,j,0.7784,Lo,,,,,,4,,,,,,,,high,26,0,26,0,1,,,,,,,,,
292450,2022-09-21_17h06.52.164,vts_reward_expectancy,2022.2.4,Win32,60.0024001,Chrome,1366,768,,,,,10,1083,,,,,,,,,,,,,,,,,139,F,triangle,1,0,,,,,,,,,,,,,,,,repeat,letter,lettRpt,j,0.9073,Hi,,,,,,4,,,,,,,,high,27,0,27,0,1,,,,,,,,,
292450,2022-09-21_17h06.52.164,vts_reward_expectancy,2022.2.4,Win32,60.0024001,Chrome,1366,768,,,,,0,1083,,,,,,,,,,,,,,,,,125,B,triangle,1,0,,,,,,,,,,,,,,,,repeat,letter,lettRpt,j,1.7603,Hi,,,,,,4,,,,,,,,high,28,0,28,0,1,,,,,,,,,
292450,2022-09-21_17h06.52.164,vts_reward_expectancy,2022.2.4,Win32,60.0024001,Chrome,1366,768,,,,,1,1084,,,,,,,,,,,,,,,,,160,Y,star,1,0,,,,,,,,,,,,,,,,switch,number,numSwt,f,2.7813,Lo,,,,,,4,,,,,,,,high,29,0,29,0,1,,,,,,,,,
292450,2022-09-21_17h06.52.164,vts_reward_expectancy,2022.2.4,Win32,60.0024001,Chrome,1366,768,,,,,10,1094,,,,,,,,,,,,,,,,,174,S,triangle,1,0,,,,,,,,,,,,,,,,switch,letter,lettSwt,k,0.6286,Hi,,,,,,4,,,,,,,,high,30,0,30,0,1,,,,,,,,,
292450,2022-09-21_17h06.52.164,vts_reward_expectancy,2022.2.4,Win32,60.0024001,Chrome,1366,768,,,,,0,1094,,,,,,,,,,,,,,,,,146,W,star,0,0,,,,,,,,,,,,,,,,switch,number,NA,f,0.9285,Hi,,,,,,4,,,,,,,,high,31,0,31,0,1,,,,,,,,,
292450,2022-09-21_17h06.52.164,vts_reward_expectancy,2022.2.4,Win32,60.0024001,Chrome,1366,768,,,,,10,1104,,,,,,,,,,,,,,,,,160,B,triangle,1,1,,,,,,,,,,,,,,,,repeat,number,numRpt,f,0.4107,Hi,,,,,,5,,,,,,space,0.7821,high,0,0,0,0,1,,,,,,,,,
292450,2022-09-21_17h06.52.164,vts_reward_expectancy,2022.2.4,Win32,60.0024001,Chrome,1366,768,,,,,1,1105,,,,,,,,,,,,,,,,,167,H,star,1,0,,,,,,,,,,,,,,,,switch,letter,lettSwt,j,0.5931,Lo,,,,,,5,,,,,,,,high,1,0,1,0,1,,,,,,,,,
292450,2022-09-21_17h06.52.164,vts_reward_expectancy,2022.2.4,Win32,60.0024001,Chrome,1366,768,,,,,10,1115,,,,,,,,,,,,,,,,,146,D,triangle,1,0,,,,,,,,,,,,,,,,switch,number,numSwt,d,0.5345,Hi,,,,,,5,,,,,,,,high,2,0,2,0,1,,,,,,,,,
292450,2022-09-21_17h06.52.164,vts_reward_expectancy,2022.2.4,Win32,60.0024001,Chrome,1366,768,,,,,1,1116,,,,,,,,,,,,,,,,,181,S,star,1,0,,,,,,,,,,,,,,,,switch,letter,lettSwt,k,0.9289,Lo,,,,,,5,,,,,,,,high,3,0,3,0,1,,,,,,,,,
292450,2022-09-21_17h06.52.164,vts_reward_expectancy,2022.2.4,Win32,60.0024001,Chrome,1366,768,,,,,1,1117,,,,,,,,,,,,,,,,,139,W,triangle,1,0,,,,,,,,,,,,,,,,switch,number,numSwt,d,0.5947,Hi,,,,,,5,,,,,,,,high,4,0,4,0,1,,,,,,,,,
292450,2022-09-21_17h06.52.164,vts_reward_expectancy,2022.2.4,Win32,60.0024001,Chrome,1366,768,,,,,1,1118,,,,,,,,,,,,,,,,,125,U,star,1,0,,,,,,,,,,,,,,,,switch,letter,lettSwt,k,0.6575,Lo,,,,,,5,,,,,,,,high,5,0,5,0,1,,,,,,,,,
292450,2022-09-21_17h06.52.164,vts_reward_expectancy,2022.2.4,Win32,60.0024001,Chrome,1366,768,,,,,10,1128,,,,,,,,,,,,,,,,,132,Y,triangle,1,0,,,,,,,,,,,,,,,,switch,number,numSwt,d,0.5787,Hi,,,,,,5,,,,,,,,high,6,0,6,0,1,,,,,,,,,
292450,2022-09-21_17h06.52.164,vts_reward_expectancy,2022.2.4,Win32,60.0024001,Chrome,1366,768,,,,,1,1129,,,,,,,,,,,,,,,,,174,F,star,1,0,,,,,,,,,,,,,,,,switch,letter,lettSwt,j,0.6502,Lo,,,,,,5,,,,,,,,high,7,0,7,0,1,,,,,,,,,
292450,2022-09-21_17h06.52.164,vts_reward_expectancy,2022.2.4,Win32,60.0024001,Chrome,1366,768,,,,,1,1130,,,,,,,,,,,,,,,,,160,B,star,1,0,,,,,,,,,,,,,,,,switch,number,numSwt,f,1.6898,Lo,,,,,,5,,,,,,,,high,8,0,8,0,1,,,,,,,,,
292450,2022-09-21_17h06.52.164,vts_reward_expectancy,2022.2.4,Win32,60.0024001,Chrome,1366,768,,,,,0,1130,,,,,,,,,,,,,,,,,167,H,triangle,1,0,,,,,,,,,,,,,,,,switch,letter,lettSwt,j,0.7831,Hi,,,,,,5,,,,,,,,high,9,0,9,0,1,,,,,,,,,
292450,2022-09-21_17h06.52.164,vts_reward_expectancy,2022.2.4,Win32,60.0024001,Chrome,1366,768,,,,,10,1140,,,,,,,,,,,,,,,,,146,D,triangle,1,0,,,,,,,,,,,,,,,,switch,number,numSwt,d,0.6631,Hi,,,,,,5,,,,,,,,high,10,0,10,0,1,,,,,,,,,
292450,2022-09-21_17h06.52.164,vts_reward_expectancy,2022.2.4,Win32,60.0024001,Chrome,1366,768,,,,,1,1141,,,,,,,,,,,,,,,,,181,S,star,1,0,,,,,,,,,,,,,,,,switch,letter,lettSwt,k,1.1334,Lo,,,,,,5,,,,,,,,high,11,0,11,0,1,,,,,,,,,
292450,2022-09-21_17h06.52.164,vts_reward_expectancy,2022.2.4,Win32,60.0024001,Chrome,1366,768,,,,,0,1141,,,,,,,,,,,,,,,,,139,W,triangle,1,0,,,,,,,,,,,,,,,,repeat,letter,lettRpt,k,0.9415,Hi,,,,,,5,,,,,,,,high,12,0,12,0,1,,,,,,,,,
292450,2022-09-21_17h06.52.164,vts_reward_expectancy,2022.2.4,Win32,60.0024001,Chrome,1366,768,,,,,1,1142,,,,,,,,,,,,,,,,,125,U,star,1,0,,,,,,,,,,,,,,,,switch,number,numSwt,d,1.396,Lo,,,,,,5,,,,,,,,high,13,0,13,0,1,,,,,,,,,
292450,2022-09-21_17h06.52.164,vts_reward_expectancy,2022.2.4,Win32,60.0024001,Chrome,1366,768,,,,,0,1142,,,,,,,,,,,,,,,,,132,Y,triangle,1,0,,,,,,,,,,,,,,,,switch,letter,lettSwt,k,1.0838,Hi,,,,,,5,,,,,,,,high,14,0,14,0,1,,,,,,,,,
292450,2022-09-21_17h06.52.164,vts_reward_expectancy,2022.2.4,Win32,60.0024001,Chrome,1366,768,,,,,10,1152,,,,,,,,,,,,,,,,,174,F,star,1,0,,,,,,,,,,,,,,,,switch,number,numSwt,f,1.0967,Lo,,,,,,5,,,,,,,,high,15,0,15,0,1,,,,,,,,,
292450,2022-09-21_17h06.52.164,vts_reward_expectancy,2022.2.4,Win32,60.0024001,Chrome,1366,768,,,,,0,1152,,,,,,,,,,,,,,,,,146,U,triangle,1,0,,,,,,,,,,,,,,,,repeat,number,numRpt,d,1.6564,Hi,,,,,,5,,,,,,,,high,16,0,16,0,1,,,,,,,,,
292450,2022-09-21_17h06.52.164,vts_reward_expectancy,2022.2.4,Win32,60.0024001,Chrome,1366,768,,,,,10,1162,,,,,,,,,,,,,,,,,181,F,star,1,0,,,,,,,,,,,,,,,,switch,letter,lettSwt,j,1.6113,Lo,,,,,,5,,,,,,,,high,17,0,17,0,1,,,,,,,,,
292450,2022-09-21_17h06.52.164,vts_reward_expectancy,2022.2.4,Win32,60.0024001,Chrome,1366,768,,,,,0,1162,,,,,,,,,,,,,,,,,160,Y,triangle,0,0,,,,,,,,,,,,,,,,switch,number,NA,d,1.2996,Lo,,,,,,5,,,,,,,,high,18,0,18,0,1,,,,,,,,,
292450,2022-09-21_17h06.52.164,vts_reward_expectancy,2022.2.4,Win32,60.0024001,Chrome,1366,768,,,,,1,1163,,,,,,,,,,,,,,,,,125,S,star,1,1,,,,,,,,,,,,,,,,repeat,number,numRpt,d,0.25,Lo,,,,,,5,,,,,,,,high,19,0,19,0,1,,,,,,,,,
292450,2022-09-21_17h06.52.164,vts_reward_expectancy,2022.2.4,Win32,60.0024001,Chrome,1366,768,,,,,0,1163,,,,,,,,,,,,,,,,,174,W,star,0,0,,,,,,,,,,,,,,,,switch,letter,NA,j,0.7843,Lo,,,,,,5,,,,,,,,high,20,0,20,0,1,,,,,,,,,
292450,2022-09-21_17h06.52.164,vts_reward_expectancy,2022.2.4,Win32,60.0024001,Chrome,1366,768,,,,,0,1163,,,,,,,,,,,,,,,,,132,B,triangle,0,1,,,,,,,,,,,,,,,,repeat,letter,NA,k,0.3133,Lo,,,,,,5,,,,,,,,high,21,0,21,0,1,,,,,,,,,
292450,2022-09-21_17h06.52.164,vts_reward_expectancy,2022.2.4,Win32,60.0024001,Chrome,1366,768,,,,,1,1164,,,,,,,,,,,,,,,,,139,H,star,1,1,,,,,,,,,,,,,,,,switch,number,numSwt,d,2.9154,Lo,,,,,,5,,,,,,,,high,22,0,22,0,1,,,,,,,,,
292450,2022-09-21_17h06.52.164,vts_reward_expectancy,2022.2.4,Win32,60.0024001,Chrome,1366,768,,,,,0,1164,,,,,,,,,,,,,,,,,167,D,triangle,1,0,,,,,,,,,,,,,,,,switch,letter,lettSwt,j,0.9287,Hi,,,,,,5,,,,,,,,high,23,0,23,0,1,,,,,,,,,
292450,2022-09-21_17h06.52.164,vts_reward_expectancy,2022.2.4,Win32,60.0024001,Chrome,1366,768,,,,,0,1164,,,,,,,,,,,,,,,,,160,F,star,0,0,,,,,,,,,,,,,,,,repeat,letter,NA,k,0.3143,Hi,,,,,,5,,,,,,,,high,24,0,24,0,1,,,,,,,,,
292450,2022-09-21_17h06.52.164,vts_reward_expectancy,2022.2.4,Win32,60.0024001,Chrome,1366,768,,,,,10,1174,,,,,,,,,,,,,,,,,174,D,triangle,1,1,,,,,,,,,,,,,,,,switch,number,numSwt,f,0.3674,Hi,,,,,,5,,,,,,,,high,25,0,25,0,1,,,,,,,,,
292450,2022-09-21_17h06.52.164,vts_reward_expectancy,2022.2.4,Win32,60.0024001,Chrome,1366,768,,,,,0,1174,,,,,,,,,,,,,,,,,167,H,star,0,0,,,,,,,,,,,,,,,,repeat,number,NA,d,0.4301,Hi,,,,,,5,,,,,,,,high,26,0,26,0,1,,,,,,,,,
292450,2022-09-21_17h06.52.164,vts_reward_expectancy,2022.2.4,Win32,60.0024001,Chrome,1366,768,,,,,0,1174,,,,,,,,,,,,,,,,,132,W,triangle,0,1,,,,,,,,,,,,,,,,repeat,number,NA,f,0.3,Hi,,,,,,5,,,,,,,,high,27,0,27,0,1,,,,,,,,,
292450,2022-09-21_17h06.52.164,vts_reward_expectancy,2022.2.4,Win32,60.0024001,Chrome,1366,768,,,,,0,1174,,,,,,,,,,,,,,,,,125,B,star,0,1,,,,,,,,,,,,,,,,switch,letter,NA,k,0.7579,Hi,,,,,,5,,,,,,,,high,28,0,28,0,1,,,,,,,,,
292450,2022-09-21_17h06.52.164,vts_reward_expectancy,2022.2.4,Win32,60.0024001,Chrome,1366,768,,,,,0,1174,,,,,,,,,,,,,,,,,139,Y,triangle,-1,1,,,,,,,,,,,,,,,,switch,no_choice,NA,,,Hi,,,,,,5,,,,,,,,high,29,0,29,0,1,,,,,,,,,
292450,2022-09-21_17h06.52.164,vts_reward_expectancy,2022.2.4,Win32,60.0024001,Chrome,1366,768,,,,,0,1174,,,,,,,,,,,,,,,,,146,U,triangle,0,0,,,,,,,,,,,,,,,,switch,letter,NA,j,0.7328,Hi,,,,,,5,,,,,,,,high,30,0,30,0,1,,,,,,,,,
292450,2022-09-21_17h06.52.164,vts_reward_expectancy,2022.2.4,Win32,60.0024001,Chrome,1366,768,,,,,1,1175,,,,,,,,,,,,,,,,,181,S,star,1,1,,,,,,,,,,,,,,,,repeat,letter,lettRpt,k,0.9137,Lo,,,,,,5,,,,,,,,high,31,0,31,0,1,,,,,,,,,
292450,2022-09-21_17h06.52.164,vts_reward_expectancy,2022.2.4,Win32,60.0024001,Chrome,1366,768,,,,,,,,,,,,,,,,,,,,,,,,,,,,,,,,,,,,,,,,,,,,,,,,,,,,,,6,,,,,,,,,,,,,,I was to chose d or f for the numbers whether greater or less than 153 and then j or k for closer to A or Z,1,,4,2,,2,1366,768
