participant,date,expName,psychopyVersion,OS,frameRate,browser,xResolution,yResolution,key_resp.keys,key_resp.rt,training_resp.keys,training_resp.rt,points_trial,points_cumul,trainBlock,training.thisRepN,training.thisTrialN,training.thisN,training.thisIndex,training.ran,LTriangleOpac,LCircleOpac,LHexagonOpac,LStarOpac,RTriangleOpac,RCircleOpac,RHexagonOpac,RStarOpac,LShape_ID,RShape_ID,curr_topStim,curr_bottStim,curr_shape,acc,E1,target_resp_prac1.keys,pracBlock,task1_prac_trials.thisRepN,task1_prac_trials.thisTrialN,task1_prac_trials.thisN,task1_prac_trials.thisIndex,task1_prac_trials.ran,target_resp_prac1.rt,target_resp_prac2.keys,target_resp_prac2.rt,task2_praac_trials.thisRepN,task2_praac_trials.thisTrialN,task2_praac_trials.thisN,task2_praac_trials.thisIndex,task2_praac_trials.ran,alt,task,condition,target_resp.keys,target_resp.rt,rewCond,vts_practice_trials.thisRepN,vts_practice_trials.thisTrialN,vts_practice_trials.thisN,vts_practice_trials.thisIndex,vts_practice_trials.ran,blockNum,trials_norew.thisRepN,trials_norew.thisTrialN,trials_norew.thisN,trials_norew.thisIndex,trials_norew.ran,key_resp_2.keys,key_resp_2.rt,rewExpect,trials_rew.thisRepN,trials_rew.thisTrialN,trials_rew.thisN,trials_rew.thisIndex,trials_rew.ran,Q1,Q2,Q2_text,Q3,Q4,Q5_text,Q5,xRes,yRes
295264,2022-09-22_21h38.25.671,vts_reward_expectancy,2022.2.4,MacIntel,62.5,Safari,1440,900,,,,,,,,,,,,,,,,,,,,,,,,,,,,,,,,,,,,,,,,,,,,,,,,,,,,,,,,,,,,,,,,,,,,,,,,,,,,
295264,2022-09-22_21h38.25.671,vts_reward_expectancy,2022.2.4,MacIntel,62.5,Safari,1440,900,space,5.627,,,,,,,,,,,,,,,,,,,,,,,,,,,,,,,,,,,,,,,,,,,,,,,,,,,,,,,,,,,,,,,,,,,,,,,,,,
295264,2022-09-22_21h38.25.671,vts_reward_expectancy,2022.2.4,MacIntel,62.5,Safari,1440,900,,,,,,,,,,,,,,,,,,,,,,,,,,,,,,,,,,,,,,,,,,,,,,,,,,,,,,,,,,,,,,,,,,,,,,,,,,,,
295264,2022-09-22_21h38.25.671,vts_reward_expectancy,2022.2.4,MacIntel,62.5,Safari,1440,900,,,a,7.072,10,10,0,0,0,0,0,1,1,0,0,0,0,1,0,0,triangle,circle,,,,,,,,,,,,,,,,,,,,,,,,,,,,,,,,,,,,,,,,,,,,,,,,,,,,,,
295264,2022-09-22_21h38.25.671,vts_reward_expectancy,2022.2.4,MacIntel,62.5,Safari,1440,900,,,l,1.34,1,11,0,0,1,1,7,1,0,0,1,0,0,1,0,0,hexagon,circle,,,,,,,,,,,,,,,,,,,,,,,,,,,,,,,,,,,,,,,,,,,,,,,,,,,,,,
295264,2022-09-22_21h38.25.671,vts_reward_expectancy,2022.2.4,MacIntel,62.5,Safari,1440,900,,,a,1.646,1,12,0,0,2,2,5,1,0,1,0,0,0,0,0,1,circle,star,,,,,,,,,,,,,,,,,,,,,,,,,,,,,,,,,,,,,,,,,,,,,,,,,,,,,,
295264,2022-09-22_21h38.25.671,vts_reward_expectancy,2022.2.4,MacIntel,62.5,Safari,1440,900,,,l,1.484,10,22,0,0,3,3,11,1,0,0,0,1,0,0,1,0,star,hexagon,,,,,,,,,,,,,,,,,,,,,,,,,,,,,,,,,,,,,,,,,,,,,,,,,,,,,,
295264,2022-09-22_21h38.25.671,vts_reward_expectancy,2022.2.4,MacIntel,62.5,Safari,1440,900,,,a,1.323,1,23,0,0,4,4,6,1,0,0,1,0,1,0,0,0,hexagon,triangle,,,,,,,,,,,,,,,,,,,,,,,,,,,,,,,,,,,,,,,,,,,,,,,,,,,,,,
295264,2022-09-22_21h38.25.671,vts_reward_expectancy,2022.2.4,MacIntel,62.5,Safari,1440,900,,,l,1.342,10,33,0,0,5,5,9,1,0,0,0,1,1,0,0,0,star,triangle,,,,,,,,,,,,,,,,,,,,,,,,,,,,,,,,,,,,,,,,,,,,,,,,,,,,,,
295264,2022-09-22_21h38.25.671,vts_reward_expectancy,2022.2.4,MacIntel,62.5,Safari,1440,900,,,l,2.379,1,34,0,0,6,6,8,1,0,0,1,0,0,0,0,1,hexagon,star,,,,,,,,,,,,,,,,,,,,,,,,,,,,,,,,,,,,,,,,,,,,,,,,,,,,,,
295264,2022-09-22_21h38.25.671,vts_reward_expectancy,2022.2.4,MacIntel,62.5,Safari,1440,900,,,l,1.555,10,44,0,0,7,7,4,1,0,1,0,0,0,0,1,0,circle,hexagon,,,,,,,,,,,,,,,,,,,,,,,,,,,,,,,,,,,,,,,,,,,,,,,,,,,,,,
295264,2022-09-22_21h38.25.671,vts_reward_expectancy,2022.2.4,MacIntel,62.5,Safari,1440,900,,,l,1.805,10,54,0,0,8,8,3,1,0,1,0,0,1,0,0,0,circle,triangle,,,,,,,,,,,,,,,,,,,,,,,,,,,,,,,,,,,,,,,,,,,,,,,,,,,,,,
295264,2022-09-22_21h38.25.671,vts_reward_expectancy,2022.2.4,MacIntel,62.5,Safari,1440,900,,,a,1.719,10,64,0,0,9,9,10,1,0,0,0,1,0,1,0,0,star ,circle,,,,,,,,,,,,,,,,,,,,,,,,,,,,,,,,,,,,,,,,,,,,,,,,,,,,,,
295264,2022-09-22_21h38.25.671,vts_reward_expectancy,2022.2.4,MacIntel,62.5,Safari,1440,900,,,a,2.19,10,74,0,0,10,10,2,1,1,0,0,0,0,0,0,1,triangle,star,,,,,,,,,,,,,,,,,,,,,,,,,,,,,,,,,,,,,,,,,,,,,,,,,,,,,,
295264,2022-09-22_21h38.25.671,vts_reward_expectancy,2022.2.4,MacIntel,62.5,Safari,1440,900,,,l,1.29,1,75,0,0,11,11,1,1,1,0,0,0,0,0,1,0,triangle,hexagon,,,,,,,,,,,,,,,,,,,,,,,,,,,,,,,,,,,,,,,,,,,,,,,,,,,,,,
295264,2022-09-22_21h38.25.671,vts_reward_expectancy,2022.2.4,MacIntel,62.5,Safari,1440,900,,,l,1.79,1,76,0,1,0,12,11,1,0,0,0,1,0,0,1,0,star,hexagon,,,,,,,,,,,,,,,,,,,,,,,,,,,,,,,,,,,,,,,,,,,,,,,,,,,,,,
295264,2022-09-22_21h38.25.671,vts_reward_expectancy,2022.2.4,MacIntel,62.5,Safari,1440,900,,,a,1.7,10,86,0,1,1,13,1,1,1,0,0,0,0,0,1,0,triangle,hexagon,,,,,,,,,,,,,,,,,,,,,,,,,,,,,,,,,,,,,,,,,,,,,,,,,,,,,,
295264,2022-09-22_21h38.25.671,vts_reward_expectancy,2022.2.4,MacIntel,62.5,Safari,1440,900,,,a,1.234,10,96,0,1,2,14,9,1,0,0,0,1,1,0,0,0,star,triangle,,,,,,,,,,,,,,,,,,,,,,,,,,,,,,,,,,,,,,,,,,,,,,,,,,,,,,
295264,2022-09-22_21h38.25.671,vts_reward_expectancy,2022.2.4,MacIntel,62.5,Safari,1440,900,,,l,1.457,1,97,0,1,3,15,4,1,0,1,0,0,0,0,1,0,circle,hexagon,,,,,,,,,,,,,,,,,,,,,,,,,,,,,,,,,,,,,,,,,,,,,,,,,,,,,,
295264,2022-09-22_21h38.25.671,vts_reward_expectancy,2022.2.4,MacIntel,62.5,Safari,1440,900,,,a,1.435,10,107,0,1,4,16,2,1,1,0,0,0,0,0,0,1,triangle,star,,,,,,,,,,,,,,,,,,,,,,,,,,,,,,,,,,,,,,,,,,,,,,,,,,,,,,
295264,2022-09-22_21h38.25.671,vts_reward_expectancy,2022.2.4,MacIntel,62.5,Safari,1440,900,,,l,1.051,10,117,0,1,5,17,3,1,0,1,0,0,1,0,0,0,circle,triangle,,,,,,,,,,,,,,,,,,,,,,,,,,,,,,,,,,,,,,,,,,,,,,,,,,,,,,
295264,2022-09-22_21h38.25.671,vts_reward_expectancy,2022.2.4,MacIntel,62.5,Safari,1440,900,,,a,1.59,1,118,0,1,6,18,5,1,0,1,0,0,0,0,0,1,circle,star,,,,,,,,,,,,,,,,,,,,,,,,,,,,,,,,,,,,,,,,,,,,,,,,,,,,,,
295264,2022-09-22_21h38.25.671,vts_reward_expectancy,2022.2.4,MacIntel,62.5,Safari,1440,900,,,a,2.848,1,119,0,1,7,19,10,1,0,0,0,1,0,1,0,0,star ,circle,,,,,,,,,,,,,,,,,,,,,,,,,,,,,,,,,,,,,,,,,,,,,,,,,,,,,,
295264,2022-09-22_21h38.25.671,vts_reward_expectancy,2022.2.4,MacIntel,62.5,Safari,1440,900,,,l,1.451,10,129,0,1,8,20,6,1,0,0,1,0,1,0,0,0,hexagon,triangle,,,,,,,,,,,,,,,,,,,,,,,,,,,,,,,,,,,,,,,,,,,,,,,,,,,,,,
295264,2022-09-22_21h38.25.671,vts_reward_expectancy,2022.2.4,MacIntel,62.5,Safari,1440,900,,,a,1.202,10,139,0,1,9,21,0,1,1,0,0,0,0,1,0,0,triangle,circle,,,,,,,,,,,,,,,,,,,,,,,,,,,,,,,,,,,,,,,,,,,,,,,,,,,,,,
295264,2022-09-22_21h38.25.671,vts_reward_expectancy,2022.2.4,MacIntel,62.5,Safari,1440,900,,,l,6.797,1,140,0,1,10,22,7,1,0,0,1,0,0,1,0,0,hexagon,circle,,,,,,,,,,,,,,,,,,,,,,,,,,,,,,,,,,,,,,,,,,,,,,,,,,,,,,
295264,2022-09-22_21h38.25.671,vts_reward_expectancy,2022.2.4,MacIntel,62.5,Safari,1440,900,,,l,1.236,1,141,0,1,11,23,8,1,0,0,1,0,0,0,0,1,hexagon,star,,,,,,,,,,,,,,,,,,,,,,,,,,,,,,,,,,,,,,,,,,,,,,,,,,,,,,
295264,2022-09-22_21h38.25.671,vts_reward_expectancy,2022.2.4,MacIntel,62.5,Safari,1440,900,,,a,1.681,10,151,0,2,0,24,8,1,0,0,1,0,0,0,0,1,hexagon,star,,,,,,,,,,,,,,,,,,,,,,,,,,,,,,,,,,,,,,,,,,,,,,,,,,,,,,
295264,2022-09-22_21h38.25.671,vts_reward_expectancy,2022.2.4,MacIntel,62.5,Safari,1440,900,,,a,1.667,1,152,0,2,1,25,7,1,0,0,1,0,0,1,0,0,hexagon,circle,,,,,,,,,,,,,,,,,,,,,,,,,,,,,,,,,,,,,,,,,,,,,,,,,,,,,,
295264,2022-09-22_21h38.25.671,vts_reward_expectancy,2022.2.4,MacIntel,62.5,Safari,1440,900,,,l,1.57,10,162,0,2,2,26,4,1,0,1,0,0,0,0,1,0,circle,hexagon,,,,,,,,,,,,,,,,,,,,,,,,,,,,,,,,,,,,,,,,,,,,,,,,,,,,,,
295264,2022-09-22_21h38.25.671,vts_reward_expectancy,2022.2.4,MacIntel,62.5,Safari,1440,900,,,a,1.732,10,172,0,2,3,27,11,1,0,0,0,1,0,0,1,0,star,hexagon,,,,,,,,,,,,,,,,,,,,,,,,,,,,,,,,,,,,,,,,,,,,,,,,,,,,,,
295264,2022-09-22_21h38.25.671,vts_reward_expectancy,2022.2.4,MacIntel,62.5,Safari,1440,900,,,l,2.019,1,173,0,2,4,28,10,1,0,0,0,1,0,1,0,0,star ,circle,,,,,,,,,,,,,,,,,,,,,,,,,,,,,,,,,,,,,,,,,,,,,,,,,,,,,,
295264,2022-09-22_21h38.25.671,vts_reward_expectancy,2022.2.4,MacIntel,62.5,Safari,1440,900,,,a,0.934,1,174,0,2,5,29,1,1,1,0,0,0,0,0,1,0,triangle,hexagon,,,,,,,,,,,,,,,,,,,,,,,,,,,,,,,,,,,,,,,,,,,,,,,,,,,,,,
295264,2022-09-22_21h38.25.671,vts_reward_expectancy,2022.2.4,MacIntel,62.5,Safari,1440,900,,,a,1.218,1,175,0,2,6,30,3,1,0,1,0,0,1,0,0,0,circle,triangle,,,,,,,,,,,,,,,,,,,,,,,,,,,,,,,,,,,,,,,,,,,,,,,,,,,,,,
295264,2022-09-22_21h38.25.671,vts_reward_expectancy,2022.2.4,MacIntel,62.5,Safari,1440,900,,,a,5.102,10,185,0,2,7,31,2,1,1,0,0,0,0,0,0,1,triangle,star,,,,,,,,,,,,,,,,,,,,,,,,,,,,,,,,,,,,,,,,,,,,,,,,,,,,,,
295264,2022-09-22_21h38.25.671,vts_reward_expectancy,2022.2.4,MacIntel,62.5,Safari,1440,900,,,a,1.035,10,195,0,2,8,32,0,1,1,0,0,0,0,1,0,0,triangle,circle,,,,,,,,,,,,,,,,,,,,,,,,,,,,,,,,,,,,,,,,,,,,,,,,,,,,,,
295264,2022-09-22_21h38.25.671,vts_reward_expectancy,2022.2.4,MacIntel,62.5,Safari,1440,900,,,l,1.355,10,205,0,2,9,33,9,1,0,0,0,1,1,0,0,0,star,triangle,,,,,,,,,,,,,,,,,,,,,,,,,,,,,,,,,,,,,,,,,,,,,,,,,,,,,,
295264,2022-09-22_21h38.25.671,vts_reward_expectancy,2022.2.4,MacIntel,62.5,Safari,1440,900,,,l,4.897,10,215,0,2,10,34,5,1,0,1,0,0,0,0,0,1,circle,star,,,,,,,,,,,,,,,,,,,,,,,,,,,,,,,,,,,,,,,,,,,,,,,,,,,,,,
295264,2022-09-22_21h38.25.671,vts_reward_expectancy,2022.2.4,MacIntel,62.5,Safari,1440,900,,,l,1.532,1,216,0,2,11,35,6,1,0,0,1,0,1,0,0,0,hexagon,triangle,,,,,,,,,,,,,,,,,,,,,,,,,,,,,,,,,,,,,,,,,,,,,,,,,,,,,,
295264,2022-09-22_21h38.25.671,vts_reward_expectancy,2022.2.4,MacIntel,62.5,Safari,1440,900,,,l,1.586,10,226,1,0,0,0,9,1,0,0,0,1,1,0,0,0,star,triangle,,,,,,,,,,,,,,,,,,,,,,,,,,,,,,,,,,,,,,,,,,,,,,,,,,,,,,
295264,2022-09-22_21h38.25.671,vts_reward_expectancy,2022.2.4,MacIntel,62.5,Safari,1440,900,,,a,2.62,10,236,1,0,1,1,8,1,0,0,1,0,0,0,0,1,hexagon,star,,,,,,,,,,,,,,,,,,,,,,,,,,,,,,,,,,,,,,,,,,,,,,,,,,,,,,
295264,2022-09-22_21h38.25.671,vts_reward_expectancy,2022.2.4,MacIntel,62.5,Safari,1440,900,,,a,2.468,1,237,1,0,2,2,4,1,0,1,0,0,0,0,1,0,circle,hexagon,,,,,,,,,,,,,,,,,,,,,,,,,,,,,,,,,,,,,,,,,,,,,,,,,,,,,,
295264,2022-09-22_21h38.25.671,vts_reward_expectancy,2022.2.4,MacIntel,62.5,Safari,1440,900,,,a,1.754,10,247,1,0,3,3,2,1,1,0,0,0,0,0,0,1,triangle,star,,,,,,,,,,,,,,,,,,,,,,,,,,,,,,,,,,,,,,,,,,,,,,,,,,,,,,
295264,2022-09-22_21h38.25.671,vts_reward_expectancy,2022.2.4,MacIntel,62.5,Safari,1440,900,,,l,3.289,1,248,1,0,4,4,7,1,0,0,1,0,0,1,0,0,hexagon,circle,,,,,,,,,,,,,,,,,,,,,,,,,,,,,,,,,,,,,,,,,,,,,,,,,,,,,,
295264,2022-09-22_21h38.25.671,vts_reward_expectancy,2022.2.4,MacIntel,62.5,Safari,1440,900,,,a,1.484,1,249,1,0,5,5,6,1,0,0,1,0,1,0,0,0,hexagon,triangle,,,,,,,,,,,,,,,,,,,,,,,,,,,,,,,,,,,,,,,,,,,,,,,,,,,,,,
295264,2022-09-22_21h38.25.671,vts_reward_expectancy,2022.2.4,MacIntel,62.5,Safari,1440,900,,,l,1.088,10,259,1,0,6,6,5,1,0,1,0,0,0,0,0,1,circle,star,,,,,,,,,,,,,,,,,,,,,,,,,,,,,,,,,,,,,,,,,,,,,,,,,,,,,,
295264,2022-09-22_21h38.25.671,vts_reward_expectancy,2022.2.4,MacIntel,62.5,Safari,1440,900,,,a,15.365,10,269,1,0,7,7,1,1,1,0,0,0,0,0,1,0,triangle,hexagon,,,,,,,,,,,,,,,,,,,,,,,,,,,,,,,,,,,,,,,,,,,,,,,,,,,,,,
295264,2022-09-22_21h38.25.671,vts_reward_expectancy,2022.2.4,MacIntel,62.5,Safari,1440,900,,,l,0.924,10,279,1,0,8,8,3,1,0,1,0,0,1,0,0,0,circle,triangle,,,,,,,,,,,,,,,,,,,,,,,,,,,,,,,,,,,,,,,,,,,,,,,,,,,,,,
295264,2022-09-22_21h38.25.671,vts_reward_expectancy,2022.2.4,MacIntel,62.5,Safari,1440,900,,,a,1.132,10,289,1,0,9,9,0,1,1,0,0,0,0,1,0,0,triangle,circle,,,,,,,,,,,,,,,,,,,,,,,,,,,,,,,,,,,,,,,,,,,,,,,,,,,,,,
295264,2022-09-22_21h38.25.671,vts_reward_expectancy,2022.2.4,MacIntel,62.5,Safari,1440,900,,,l,2.9,10,299,1,0,10,10,11,1,0,0,0,1,0,0,1,0,star,hexagon,,,,,,,,,,,,,,,,,,,,,,,,,,,,,,,,,,,,,,,,,,,,,,,,,,,,,,
295264,2022-09-22_21h38.25.671,vts_reward_expectancy,2022.2.4,MacIntel,62.5,Safari,1440,900,,,a,1.385,10,309,1,0,11,11,10,1,0,0,0,1,0,1,0,0,star ,circle,,,,,,,,,,,,,,,,,,,,,,,,,,,,,,,,,,,,,,,,,,,,,,,,,,,,,,
295264,2022-09-22_21h38.25.671,vts_reward_expectancy,2022.2.4,MacIntel,62.5,Safari,1440,900,,,l,1.431,10,319,1,1,0,12,9,1,0,0,0,1,1,0,0,0,star,triangle,,,,,,,,,,,,,,,,,,,,,,,,,,,,,,,,,,,,,,,,,,,,,,,,,,,,,,
295264,2022-09-22_21h38.25.671,vts_reward_expectancy,2022.2.4,MacIntel,62.5,Safari,1440,900,,,l,1.119,10,329,1,1,1,13,6,1,0,0,1,0,1,0,0,0,hexagon,triangle,,,,,,,,,,,,,,,,,,,,,,,,,,,,,,,,,,,,,,,,,,,,,,,,,,,,,,
295264,2022-09-22_21h38.25.671,vts_reward_expectancy,2022.2.4,MacIntel,62.5,Safari,1440,900,,,a,0.881,10,339,1,1,2,14,0,1,1,0,0,0,0,1,0,0,triangle,circle,,,,,,,,,,,,,,,,,,,,,,,,,,,,,,,,,,,,,,,,,,,,,,,,,,,,,,
295264,2022-09-22_21h38.25.671,vts_reward_expectancy,2022.2.4,MacIntel,62.5,Safari,1440,900,,,a,2.434,10,349,1,1,3,15,10,1,0,0,0,1,0,1,0,0,star ,circle,,,,,,,,,,,,,,,,,,,,,,,,,,,,,,,,,,,,,,,,,,,,,,,,,,,,,,
295264,2022-09-22_21h38.25.671,vts_reward_expectancy,2022.2.4,MacIntel,62.5,Safari,1440,900,,,l,1.218,1,350,1,1,4,16,5,1,0,1,0,0,0,0,0,1,circle,star,,,,,,,,,,,,,,,,,,,,,,,,,,,,,,,,,,,,,,,,,,,,,,,,,,,,,,
295264,2022-09-22_21h38.25.671,vts_reward_expectancy,2022.2.4,MacIntel,62.5,Safari,1440,900,,,a,0.632,1,351,1,1,5,17,1,1,1,0,0,0,0,0,1,0,triangle,hexagon,,,,,,,,,,,,,,,,,,,,,,,,,,,,,,,,,,,,,,,,,,,,,,,,,,,,,,
295264,2022-09-22_21h38.25.671,vts_reward_expectancy,2022.2.4,MacIntel,62.5,Safari,1440,900,,,a,1.603,1,352,1,1,6,18,11,1,0,0,0,1,0,0,1,0,star,hexagon,,,,,,,,,,,,,,,,,,,,,,,,,,,,,,,,,,,,,,,,,,,,,,,,,,,,,,
295264,2022-09-22_21h38.25.671,vts_reward_expectancy,2022.2.4,MacIntel,62.5,Safari,1440,900,,,a,2.103,10,362,1,1,7,19,8,1,0,0,1,0,0,0,0,1,hexagon,star,,,,,,,,,,,,,,,,,,,,,,,,,,,,,,,,,,,,,,,,,,,,,,,,,,,,,,
295264,2022-09-22_21h38.25.671,vts_reward_expectancy,2022.2.4,MacIntel,62.5,Safari,1440,900,,,l,0.935,10,372,1,1,8,20,3,1,0,1,0,0,1,0,0,0,circle,triangle,,,,,,,,,,,,,,,,,,,,,,,,,,,,,,,,,,,,,,,,,,,,,,,,,,,,,,
295264,2022-09-22_21h38.25.671,vts_reward_expectancy,2022.2.4,MacIntel,62.5,Safari,1440,900,,,a,1.034,10,382,1,1,9,21,2,1,1,0,0,0,0,0,0,1,triangle,star,,,,,,,,,,,,,,,,,,,,,,,,,,,,,,,,,,,,,,,,,,,,,,,,,,,,,,
295264,2022-09-22_21h38.25.671,vts_reward_expectancy,2022.2.4,MacIntel,62.5,Safari,1440,900,,,l,3.337,1,383,1,1,10,22,7,1,0,0,1,0,0,1,0,0,hexagon,circle,,,,,,,,,,,,,,,,,,,,,,,,,,,,,,,,,,,,,,,,,,,,,,,,,,,,,,
295264,2022-09-22_21h38.25.671,vts_reward_expectancy,2022.2.4,MacIntel,62.5,Safari,1440,900,,,a,2.285,10,393,1,1,11,23,4,1,0,1,0,0,0,0,1,0,circle,hexagon,,,,,,,,,,,,,,,,,,,,,,,,,,,,,,,,,,,,,,,,,,,,,,,,,,,,,,
295264,2022-09-22_21h38.25.671,vts_reward_expectancy,2022.2.4,MacIntel,62.5,Safari,1440,900,,,a,0.634,10,403,1,2,0,24,0,1,1,0,0,0,0,1,0,0,triangle,circle,,,,,,,,,,,,,,,,,,,,,,,,,,,,,,,,,,,,,,,,,,,,,,,,,,,,,,
295264,2022-09-22_21h38.25.671,vts_reward_expectancy,2022.2.4,MacIntel,62.5,Safari,1440,900,,,a,0.787,10,413,1,2,1,25,2,1,1,0,0,0,0,0,0,1,triangle,star,,,,,,,,,,,,,,,,,,,,,,,,,,,,,,,,,,,,,,,,,,,,,,,,,,,,,,
295264,2022-09-22_21h38.25.671,vts_reward_expectancy,2022.2.4,MacIntel,62.5,Safari,1440,900,,,a,3.165,10,423,1,2,2,26,7,1,0,0,1,0,0,1,0,0,hexagon,circle,,,,,,,,,,,,,,,,,,,,,,,,,,,,,,,,,,,,,,,,,,,,,,,,,,,,,,
295264,2022-09-22_21h38.25.671,vts_reward_expectancy,2022.2.4,MacIntel,62.5,Safari,1440,900,,,l,0.847,10,433,1,2,3,27,3,1,0,1,0,0,1,0,0,0,circle,triangle,,,,,,,,,,,,,,,,,,,,,,,,,,,,,,,,,,,,,,,,,,,,,,,,,,,,,,
295264,2022-09-22_21h38.25.671,vts_reward_expectancy,2022.2.4,MacIntel,62.5,Safari,1440,900,,,l,0.887,10,443,1,2,4,28,6,1,0,0,1,0,1,0,0,0,hexagon,triangle,,,,,,,,,,,,,,,,,,,,,,,,,,,,,,,,,,,,,,,,,,,,,,,,,,,,,,
295264,2022-09-22_21h38.25.671,vts_reward_expectancy,2022.2.4,MacIntel,62.5,Safari,1440,900,,,l,2.247,1,444,1,2,5,29,10,1,0,0,0,1,0,1,0,0,star ,circle,,,,,,,,,,,,,,,,,,,,,,,,,,,,,,,,,,,,,,,,,,,,,,,,,,,,,,
295264,2022-09-22_21h38.25.671,vts_reward_expectancy,2022.2.4,MacIntel,62.5,Safari,1440,900,,,l,1.036,10,454,1,2,6,30,9,1,0,0,0,1,1,0,0,0,star,triangle,,,,,,,,,,,,,,,,,,,,,,,,,,,,,,,,,,,,,,,,,,,,,,,,,,,,,,
295264,2022-09-22_21h38.25.671,vts_reward_expectancy,2022.2.4,MacIntel,62.5,Safari,1440,900,,,a,1.985,1,455,1,2,7,31,4,1,0,1,0,0,0,0,1,0,circle,hexagon,,,,,,,,,,,,,,,,,,,,,,,,,,,,,,,,,,,,,,,,,,,,,,,,,,,,,,
295264,2022-09-22_21h38.25.671,vts_reward_expectancy,2022.2.4,MacIntel,62.5,Safari,1440,900,,,a,0.616,10,465,1,2,8,32,1,1,1,0,0,0,0,0,1,0,triangle,hexagon,,,,,,,,,,,,,,,,,,,,,,,,,,,,,,,,,,,,,,,,,,,,,,,,,,,,,,
295264,2022-09-22_21h38.25.671,vts_reward_expectancy,2022.2.4,MacIntel,62.5,Safari,1440,900,,,l,1.435,1,466,1,2,9,33,5,1,0,1,0,0,0,0,0,1,circle,star,,,,,,,,,,,,,,,,,,,,,,,,,,,,,,,,,,,,,,,,,,,,,,,,,,,,,,
295264,2022-09-22_21h38.25.671,vts_reward_expectancy,2022.2.4,MacIntel,62.5,Safari,1440,900,,,a,3.157,1,467,1,2,10,34,8,1,0,0,1,0,0,0,0,1,hexagon,star,,,,,,,,,,,,,,,,,,,,,,,,,,,,,,,,,,,,,,,,,,,,,,,,,,,,,,
295264,2022-09-22_21h38.25.671,vts_reward_expectancy,2022.2.4,MacIntel,62.5,Safari,1440,900,,,a,0.876,1,468,1,2,11,35,11,1,0,0,0,1,0,0,1,0,star,hexagon,,,,,,,,,,,,,,,,,,,,,,,,,,,,,,,,,,,,,,,,,,,,,,,,,,,,,,
295264,2022-09-22_21h38.25.671,vts_reward_expectancy,2022.2.4,MacIntel,62.5,Safari,1440,900,,,l,1.273,1,469,2,0,0,0,9,1,0,0,0,1,1,0,0,0,star,triangle,,,,,,,,,,,,,,,,,,,,,,,,,,,,,,,,,,,,,,,,,,,,,,,,,,,,,,
295264,2022-09-22_21h38.25.671,vts_reward_expectancy,2022.2.4,MacIntel,62.5,Safari,1440,900,,,l,0.582,10,479,2,0,1,1,3,1,0,1,0,0,1,0,0,0,circle,triangle,,,,,,,,,,,,,,,,,,,,,,,,,,,,,,,,,,,,,,,,,,,,,,,,,,,,,,
295264,2022-09-22_21h38.25.671,vts_reward_expectancy,2022.2.4,MacIntel,62.5,Safari,1440,900,,,a,1.249,10,489,2,0,2,2,7,1,0,0,1,0,0,1,0,0,hexagon,circle,,,,,,,,,,,,,,,,,,,,,,,,,,,,,,,,,,,,,,,,,,,,,,,,,,,,,,
295264,2022-09-22_21h38.25.671,vts_reward_expectancy,2022.2.4,MacIntel,62.5,Safari,1440,900,,,a,3.017,10,499,2,0,3,3,10,1,0,0,0,1,0,1,0,0,star ,circle,,,,,,,,,,,,,,,,,,,,,,,,,,,,,,,,,,,,,,,,,,,,,,,,,,,,,,
295264,2022-09-22_21h38.25.671,vts_reward_expectancy,2022.2.4,MacIntel,62.5,Safari,1440,900,,,l,1.2,10,509,2,0,4,4,11,1,0,0,0,1,0,0,1,0,star,hexagon,,,,,,,,,,,,,,,,,,,,,,,,,,,,,,,,,,,,,,,,,,,,,,,,,,,,,,
295264,2022-09-22_21h38.25.671,vts_reward_expectancy,2022.2.4,MacIntel,62.5,Safari,1440,900,,,l,1.754,10,519,2,0,5,5,4,1,0,1,0,0,0,0,1,0,circle,hexagon,,,,,,,,,,,,,,,,,,,,,,,,,,,,,,,,,,,,,,,,,,,,,,,,,,,,,,
295264,2022-09-22_21h38.25.671,vts_reward_expectancy,2022.2.4,MacIntel,62.5,Safari,1440,900,,,a,1.367,10,529,2,0,6,6,8,1,0,0,1,0,0,0,0,1,hexagon,star,,,,,,,,,,,,,,,,,,,,,,,,,,,,,,,,,,,,,,,,,,,,,,,,,,,,,,
295264,2022-09-22_21h38.25.671,vts_reward_expectancy,2022.2.4,MacIntel,62.5,Safari,1440,900,,,a,0.814,10,539,2,0,7,7,2,1,1,0,0,0,0,0,0,1,triangle,star,,,,,,,,,,,,,,,,,,,,,,,,,,,,,,,,,,,,,,,,,,,,,,,,,,,,,,
295264,2022-09-22_21h38.25.671,vts_reward_expectancy,2022.2.4,MacIntel,62.5,Safari,1440,900,,,l,1.232,10,549,2,0,8,8,6,1,0,0,1,0,1,0,0,0,hexagon,triangle,,,,,,,,,,,,,,,,,,,,,,,,,,,,,,,,,,,,,,,,,,,,,,,,,,,,,,
295264,2022-09-22_21h38.25.671,vts_reward_expectancy,2022.2.4,MacIntel,62.5,Safari,1440,900,,,l,1.716,1,550,2,0,9,9,5,1,0,1,0,0,0,0,0,1,circle,star,,,,,,,,,,,,,,,,,,,,,,,,,,,,,,,,,,,,,,,,,,,,,,,,,,,,,,
295264,2022-09-22_21h38.25.671,vts_reward_expectancy,2022.2.4,MacIntel,62.5,Safari,1440,900,,,a,0.949,10,560,2,0,10,10,0,1,1,0,0,0,0,1,0,0,triangle,circle,,,,,,,,,,,,,,,,,,,,,,,,,,,,,,,,,,,,,,,,,,,,,,,,,,,,,,
295264,2022-09-22_21h38.25.671,vts_reward_expectancy,2022.2.4,MacIntel,62.5,Safari,1440,900,,,l,1.821,10,570,2,0,11,11,1,1,1,0,0,0,0,0,1,0,triangle,hexagon,,,,,,,,,,,,,,,,,,,,,,,,,,,,,,,,,,,,,,,,,,,,,,,,,,,,,,
295264,2022-09-22_21h38.25.671,vts_reward_expectancy,2022.2.4,MacIntel,62.5,Safari,1440,900,,,a,1.7,1,571,2,1,0,12,11,1,0,0,0,1,0,0,1,0,star,hexagon,,,,,,,,,,,,,,,,,,,,,,,,,,,,,,,,,,,,,,,,,,,,,,,,,,,,,,
295264,2022-09-22_21h38.25.671,vts_reward_expectancy,2022.2.4,MacIntel,62.5,Safari,1440,900,,,l,1.402,10,581,2,1,1,13,4,1,0,1,0,0,0,0,1,0,circle,hexagon,,,,,,,,,,,,,,,,,,,,,,,,,,,,,,,,,,,,,,,,,,,,,,,,,,,,,,
295264,2022-09-22_21h38.25.671,vts_reward_expectancy,2022.2.4,MacIntel,62.5,Safari,1440,900,,,l,1.401,1,582,2,1,2,14,5,1,0,1,0,0,0,0,0,1,circle,star,,,,,,,,,,,,,,,,,,,,,,,,,,,,,,,,,,,,,,,,,,,,,,,,,,,,,,
295264,2022-09-22_21h38.25.671,vts_reward_expectancy,2022.2.4,MacIntel,62.5,Safari,1440,900,,,a,0.887,10,592,2,1,3,15,2,1,1,0,0,0,0,0,0,1,triangle,star,,,,,,,,,,,,,,,,,,,,,,,,,,,,,,,,,,,,,,,,,,,,,,,,,,,,,,
295264,2022-09-22_21h38.25.671,vts_reward_expectancy,2022.2.4,MacIntel,62.5,Safari,1440,900,,,l,1.283,10,602,2,1,4,16,7,1,0,0,1,0,0,1,0,0,hexagon,circle,,,,,,,,,,,,,,,,,,,,,,,,,,,,,,,,,,,,,,,,,,,,,,,,,,,,,,
295264,2022-09-22_21h38.25.671,vts_reward_expectancy,2022.2.4,MacIntel,62.5,Safari,1440,900,,,a,0.872,10,612,2,1,5,17,1,1,1,0,0,0,0,0,1,0,triangle,hexagon,,,,,,,,,,,,,,,,,,,,,,,,,,,,,,,,,,,,,,,,,,,,,,,,,,,,,,
295264,2022-09-22_21h38.25.671,vts_reward_expectancy,2022.2.4,MacIntel,62.5,Safari,1440,900,,,a,2.554,10,622,2,1,6,18,6,1,0,0,1,0,1,0,0,0,hexagon,triangle,,,,,,,,,,,,,,,,,,,,,,,,,,,,,,,,,,,,,,,,,,,,,,,,,,,,,,
295264,2022-09-22_21h38.25.671,vts_reward_expectancy,2022.2.4,MacIntel,62.5,Safari,1440,900,,,l,1.438,10,632,2,1,7,19,9,1,0,0,0,1,1,0,0,0,star,triangle,,,,,,,,,,,,,,,,,,,,,,,,,,,,,,,,,,,,,,,,,,,,,,,,,,,,,,
295264,2022-09-22_21h38.25.671,vts_reward_expectancy,2022.2.4,MacIntel,62.5,Safari,1440,900,,,a,1.692,10,642,2,1,8,20,8,1,0,0,1,0,0,0,0,1,hexagon,star,,,,,,,,,,,,,,,,,,,,,,,,,,,,,,,,,,,,,,,,,,,,,,,,,,,,,,
295264,2022-09-22_21h38.25.671,vts_reward_expectancy,2022.2.4,MacIntel,62.5,Safari,1440,900,,,a,0.913,10,652,2,1,9,21,0,1,1,0,0,0,0,1,0,0,triangle,circle,,,,,,,,,,,,,,,,,,,,,,,,,,,,,,,,,,,,,,,,,,,,,,,,,,,,,,
295264,2022-09-22_21h38.25.671,vts_reward_expectancy,2022.2.4,MacIntel,62.5,Safari,1440,900,,,a,1.839,10,662,2,1,10,22,10,1,0,0,0,1,0,1,0,0,star ,circle,,,,,,,,,,,,,,,,,,,,,,,,,,,,,,,,,,,,,,,,,,,,,,,,,,,,,,
295264,2022-09-22_21h38.25.671,vts_reward_expectancy,2022.2.4,MacIntel,62.5,Safari,1440,900,,,l,0.836,10,672,2,1,11,23,3,1,0,1,0,0,1,0,0,0,circle,triangle,,,,,,,,,,,,,,,,,,,,,,,,,,,,,,,,,,,,,,,,,,,,,,,,,,,,,,
295264,2022-09-22_21h38.25.671,vts_reward_expectancy,2022.2.4,MacIntel,62.5,Safari,1440,900,,,a,1.456,10,682,2,2,0,24,10,1,0,0,0,1,0,1,0,0,star ,circle,,,,,,,,,,,,,,,,,,,,,,,,,,,,,,,,,,,,,,,,,,,,,,,,,,,,,,
295264,2022-09-22_21h38.25.671,vts_reward_expectancy,2022.2.4,MacIntel,62.5,Safari,1440,900,,,a,1.253,10,692,2,2,1,25,6,1,0,0,1,0,1,0,0,0,hexagon,triangle,,,,,,,,,,,,,,,,,,,,,,,,,,,,,,,,,,,,,,,,,,,,,,,,,,,,,,
295264,2022-09-22_21h38.25.671,vts_reward_expectancy,2022.2.4,MacIntel,62.5,Safari,1440,900,,,l,1.081,10,702,2,2,2,26,3,1,0,1,0,0,1,0,0,0,circle,triangle,,,,,,,,,,,,,,,,,,,,,,,,,,,,,,,,,,,,,,,,,,,,,,,,,,,,,,
295264,2022-09-22_21h38.25.671,vts_reward_expectancy,2022.2.4,MacIntel,62.5,Safari,1440,900,,,l,1.251,1,703,2,2,3,27,5,1,0,1,0,0,0,0,0,1,circle,star,,,,,,,,,,,,,,,,,,,,,,,,,,,,,,,,,,,,,,,,,,,,,,,,,,,,,,
295264,2022-09-22_21h38.25.671,vts_reward_expectancy,2022.2.4,MacIntel,62.5,Safari,1440,900,,,a,1.435,10,713,2,2,4,28,11,1,0,0,0,1,0,0,1,0,star,hexagon,,,,,,,,,,,,,,,,,,,,,,,,,,,,,,,,,,,,,,,,,,,,,,,,,,,,,,
295264,2022-09-22_21h38.25.671,vts_reward_expectancy,2022.2.4,MacIntel,62.5,Safari,1440,900,,,a,0.999,10,723,2,2,5,29,2,1,1,0,0,0,0,0,0,1,triangle,star,,,,,,,,,,,,,,,,,,,,,,,,,,,,,,,,,,,,,,,,,,,,,,,,,,,,,,
295264,2022-09-22_21h38.25.671,vts_reward_expectancy,2022.2.4,MacIntel,62.5,Safari,1440,900,,,a,0.966,1,724,2,2,6,30,0,1,1,0,0,0,0,1,0,0,triangle,circle,,,,,,,,,,,,,,,,,,,,,,,,,,,,,,,,,,,,,,,,,,,,,,,,,,,,,,
295264,2022-09-22_21h38.25.671,vts_reward_expectancy,2022.2.4,MacIntel,62.5,Safari,1440,900,,,a,1.573,10,734,2,2,7,31,8,1,0,0,1,0,0,0,0,1,hexagon,star,,,,,,,,,,,,,,,,,,,,,,,,,,,,,,,,,,,,,,,,,,,,,,,,,,,,,,
295264,2022-09-22_21h38.25.671,vts_reward_expectancy,2022.2.4,MacIntel,62.5,Safari,1440,900,,,l,0.986,10,744,2,2,8,32,1,1,1,0,0,0,0,0,1,0,triangle,hexagon,,,,,,,,,,,,,,,,,,,,,,,,,,,,,,,,,,,,,,,,,,,,,,,,,,,,,,
295264,2022-09-22_21h38.25.671,vts_reward_expectancy,2022.2.4,MacIntel,62.5,Safari,1440,900,,,l,1.568,10,754,2,2,9,33,9,1,0,0,0,1,1,0,0,0,star,triangle,,,,,,,,,,,,,,,,,,,,,,,,,,,,,,,,,,,,,,,,,,,,,,,,,,,,,,
295264,2022-09-22_21h38.25.671,vts_reward_expectancy,2022.2.4,MacIntel,62.5,Safari,1440,900,,,l,2.118,1,755,2,2,10,34,4,1,0,1,0,0,0,0,1,0,circle,hexagon,,,,,,,,,,,,,,,,,,,,,,,,,,,,,,,,,,,,,,,,,,,,,,,,,,,,,,
295264,2022-09-22_21h38.25.671,vts_reward_expectancy,2022.2.4,MacIntel,62.5,Safari,1440,900,,,a,0.959,1,756,2,2,11,35,7,1,0,0,1,0,0,1,0,0,hexagon,circle,,,,,,,,,,,,,,,,,,,,,,,,,,,,,,,,,,,,,,,,,,,,,,,,,,,,,,
295264,2022-09-22_21h38.25.671,vts_reward_expectancy,2022.2.4,MacIntel,62.5,Safari,1440,900,,,,,,,,,,,,,,,,,,,,,,,139,S,star,0,0,,0,0,0,0,0,1,,,,,,,,,,,,,,,,,,,,,,,,,,,,,,,,,,,,,,,,,,
295264,2022-09-22_21h38.25.671,vts_reward_expectancy,2022.2.4,MacIntel,62.5,Safari,1440,900,,,,,,,,,,,,,,,,,,,,,,,167,F,hexagon,1,1,f,0,1,0,1,0,1,0.767,,,,,,,,,,,,,,,,,,,,,,,,,,,,,,,,,,,,,,,,,
295264,2022-09-22_21h38.25.671,vts_reward_expectancy,2022.2.4,MacIntel,62.5,Safari,1440,900,,,,,,,,,,,,,,,,,,,,,,,174,B,circle,1,0,f,0,2,0,2,0,1,0.813,,,,,,,,,,,,,,,,,,,,,,,,,,,,,,,,,,,,,,,,,
295264,2022-09-22_21h38.25.671,vts_reward_expectancy,2022.2.4,MacIntel,62.5,Safari,1440,900,,,,,,,,,,,,,,,,,,,,,,,146,H,triangle,1,0,d,0,3,0,3,0,1,1.142,,,,,,,,,,,,,,,,,,,,,,,,,,,,,,,,,,,,,,,,,
295264,2022-09-22_21h38.25.671,vts_reward_expectancy,2022.2.4,MacIntel,62.5,Safari,1440,900,,,,,,,,,,,,,,,,,,,,,,,132,D,star,1,0,d,0,4,0,4,0,1,0.791,,,,,,,,,,,,,,,,,,,,,,,,,,,,,,,,,,,,,,,,,
295264,2022-09-22_21h38.25.671,vts_reward_expectancy,2022.2.4,MacIntel,62.5,Safari,1440,900,,,,,,,,,,,,,,,,,,,,,,,160,W,hexagon,1,0,f,0,5,0,5,0,1,1.056,,,,,,,,,,,,,,,,,,,,,,,,,,,,,,,,,,,,,,,,,
295264,2022-09-22_21h38.25.671,vts_reward_expectancy,2022.2.4,MacIntel,62.5,Safari,1440,900,,,,,,,,,,,,,,,,,,,,,,,125,Y,circle,1,0,d,0,6,0,6,0,1,0.715,,,,,,,,,,,,,,,,,,,,,,,,,,,,,,,,,,,,,,,,,
295264,2022-09-22_21h38.25.671,vts_reward_expectancy,2022.2.4,MacIntel,62.5,Safari,1440,900,,,,,,,,,,,,,,,,,,,,,,,181,U,triangle,1,0,f,0,7,0,7,0,1,0.711,,,,,,,,,,,,,,,,,,,,,,,,,,,,,,,,,,,,,,,,,
295264,2022-09-22_21h38.25.671,vts_reward_expectancy,2022.2.4,MacIntel,62.5,Safari,1440,900,,,,,,,,,,,,,,,,,,,,,,,139,S,star,1,0,d,0,8,0,8,0,1,1.376,,,,,,,,,,,,,,,,,,,,,,,,,,,,,,,,,,,,,,,,,
295264,2022-09-22_21h38.25.671,vts_reward_expectancy,2022.2.4,MacIntel,62.5,Safari,1440,900,,,,,,,,,,,,,,,,,,,,,,,167,F,triangle,0,0,d,0,9,0,9,0,1,1.197,,,,,,,,,,,,,,,,,,,,,,,,,,,,,,,,,,,,,,,,,
295264,2022-09-22_21h38.25.671,vts_reward_expectancy,2022.2.4,MacIntel,62.5,Safari,1440,900,,,,,,,,,,,,,,,,,,,,,,,125,S,hexagon,1,1,d,1,0,0,0,0,1,0.795,,,,,,,,,,,,,,,,,,,,,,,,,,,,,,,,,,,,,,,,,
295264,2022-09-22_21h38.25.671,vts_reward_expectancy,2022.2.4,MacIntel,62.5,Safari,1440,900,,,,,,,,,,,,,,,,,,,,,,,132,W,triangle,1,0,d,1,1,0,1,0,1,0.857,,,,,,,,,,,,,,,,,,,,,,,,,,,,,,,,,,,,,,,,,
295264,2022-09-22_21h38.25.671,vts_reward_expectancy,2022.2.4,MacIntel,62.5,Safari,1440,900,,,,,,,,,,,,,,,,,,,,,,,160,D,star,1,0,f,1,2,0,2,0,1,0.762,,,,,,,,,,,,,,,,,,,,,,,,,,,,,,,,,,,,,,,,,
295264,2022-09-22_21h38.25.671,vts_reward_expectancy,2022.2.4,MacIntel,62.5,Safari,1440,900,,,,,,,,,,,,,,,,,,,,,,,167,Y,circle,1,0,f,1,3,0,3,0,1,0.696,,,,,,,,,,,,,,,,,,,,,,,,,,,,,,,,,,,,,,,,,
295264,2022-09-22_21h38.25.671,vts_reward_expectancy,2022.2.4,MacIntel,62.5,Safari,1440,900,,,,,,,,,,,,,,,,,,,,,,,139,F,hexagon,1,0,d,1,4,0,4,0,1,0.615,,,,,,,,,,,,,,,,,,,,,,,,,,,,,,,,,,,,,,,,,
295264,2022-09-22_21h38.25.671,vts_reward_expectancy,2022.2.4,MacIntel,62.5,Safari,1440,900,,,,,,,,,,,,,,,,,,,,,,,181,U,triangle,1,0,f,1,5,0,5,0,1,0.76,,,,,,,,,,,,,,,,,,,,,,,,,,,,,,,,,,,,,,,,,
295264,2022-09-22_21h38.25.671,vts_reward_expectancy,2022.2.4,MacIntel,62.5,Safari,1440,900,,,,,,,,,,,,,,,,,,,,,,,174,B,star,1,0,f,1,6,0,6,0,1,0.779,,,,,,,,,,,,,,,,,,,,,,,,,,,,,,,,,,,,,,,,,
295264,2022-09-22_21h38.25.671,vts_reward_expectancy,2022.2.4,MacIntel,62.5,Safari,1440,900,,,,,,,,,,,,,,,,,,,,,,,146,H,circle,1,0,d,1,7,0,7,0,1,1.346,,,,,,,,,,,,,,,,,,,,,,,,,,,,,,,,,,,,,,,,,
295264,2022-09-22_21h38.25.671,vts_reward_expectancy,2022.2.4,MacIntel,62.5,Safari,1440,900,,,,,,,,,,,,,,,,,,,,,,,125,S,star,1,0,d,1,8,0,8,0,1,0.478,,,,,,,,,,,,,,,,,,,,,,,,,,,,,,,,,,,,,,,,,
295264,2022-09-22_21h38.25.671,vts_reward_expectancy,2022.2.4,MacIntel,62.5,Safari,1440,900,,,,,,,,,,,,,,,,,,,,,,,132,W,hexagon,1,0,d,1,9,0,9,0,1,0.883,,,,,,,,,,,,,,,,,,,,,,,,,,,,,,,,,,,,,,,,,
295264,2022-09-22_21h38.25.671,vts_reward_expectancy,2022.2.4,MacIntel,62.5,Safari,1440,900,,,,,,,,,,,,,,,,,,,,,,,167,D,star,1,0,,2,,,,,,,j,2.411,0,0,0,0,1,,,,,,,,,,,,,,,,,,,,,,,,,,,,,,,,,,
295264,2022-09-22_21h38.25.671,vts_reward_expectancy,2022.2.4,MacIntel,62.5,Safari,1440,900,,,,,,,,,,,,,,,,,,,,,,,160,H,hexagon,1,0,,2,,,,,,,j,1.379,1,0,1,0,1,,,,,,,,,,,,,,,,,,,,,,,,,,,,,,,,,,
295264,2022-09-22_21h38.25.671,vts_reward_expectancy,2022.2.4,MacIntel,62.5,Safari,1440,900,,,,,,,,,,,,,,,,,,,,,,,146,Y,triangle,1,0,,2,,,,,,,k,0.809,2,0,2,0,1,,,,,,,,,,,,,,,,,,,,,,,,,,,,,,,,,,
295264,2022-09-22_21h38.25.671,vts_reward_expectancy,2022.2.4,MacIntel,62.5,Safari,1440,900,,,,,,,,,,,,,,,,,,,,,,,125,B,circle,1,0,,2,,,,,,,j,0.846,3,0,3,0,1,,,,,,,,,,,,,,,,,,,,,,,,,,,,,,,,,,
295264,2022-09-22_21h38.25.671,vts_reward_expectancy,2022.2.4,MacIntel,62.5,Safari,1440,900,,,,,,,,,,,,,,,,,,,,,,,139,F,star,1,0,,2,,,,,,,j,1.545,4,0,4,0,1,,,,,,,,,,,,,,,,,,,,,,,,,,,,,,,,,,
295264,2022-09-22_21h38.25.671,vts_reward_expectancy,2022.2.4,MacIntel,62.5,Safari,1440,900,,,,,,,,,,,,,,,,,,,,,,,174,W,hexagon,1,0,,2,,,,,,,k,0.735,5,0,5,0,1,,,,,,,,,,,,,,,,,,,,,,,,,,,,,,,,,,
295264,2022-09-22_21h38.25.671,vts_reward_expectancy,2022.2.4,MacIntel,62.5,Safari,1440,900,,,,,,,,,,,,,,,,,,,,,,,132,S,triangle,1,0,,2,,,,,,,k,1.234,6,0,6,0,1,,,,,,,,,,,,,,,,,,,,,,,,,,,,,,,,,,
295264,2022-09-22_21h38.25.671,vts_reward_expectancy,2022.2.4,MacIntel,62.5,Safari,1440,900,,,,,,,,,,,,,,,,,,,,,,,181,U,circle,1,0,,2,,,,,,,k,0.828,7,0,7,0,1,,,,,,,,,,,,,,,,,,,,,,,,,,,,,,,,,,
295264,2022-09-22_21h38.25.671,vts_reward_expectancy,2022.2.4,MacIntel,62.5,Safari,1440,900,,,,,,,,,,,,,,,,,,,,,,,167,D,circle,1,0,,2,,,,,,,j,0.711,8,0,8,0,1,,,,,,,,,,,,,,,,,,,,,,,,,,,,,,,,,,
295264,2022-09-22_21h38.25.671,vts_reward_expectancy,2022.2.4,MacIntel,62.5,Safari,1440,900,,,,,,,,,,,,,,,,,,,,,,,160,H,hexagon,1,0,,2,,,,,,,j,1.331,9,0,9,0,1,,,,,,,,,,,,,,,,,,,,,,,,,,,,,,,,,,
295264,2022-09-22_21h38.25.671,vts_reward_expectancy,2022.2.4,MacIntel,62.5,Safari,1440,900,,,,,0,756,,,,,,,,,,,,,,,,,146,H,star,1,0,,3,,,,,,,,,,,,,,-1,number,NA,d,2.609,vtsPrac,0,0,0,0,1,,,,,,,,,,,,,,,,,,,,,,,
295264,2022-09-22_21h38.25.671,vts_reward_expectancy,2022.2.4,MacIntel,62.5,Safari,1440,900,,,,,0,756,,,,,,,,,,,,,,,,,167,F,circle,1,0,,3,,,,,,,,,,,,,,repeat,number,numRpt,f,1.043,vtsPrac,1,0,1,0,1,,,,,,,,,,,,,,,,,,,,,,,
295264,2022-09-22_21h38.25.671,vts_reward_expectancy,2022.2.4,MacIntel,62.5,Safari,1440,900,,,,,0,756,,,,,,,,,,,,,,,,,132,W,star,1,0,,3,,,,,,,,,,,,,,repeat,number,numRpt,d,0.613,vtsPrac,2,0,2,0,1,,,,,,,,,,,,,,,,,,,,,,,
295264,2022-09-22_21h38.25.671,vts_reward_expectancy,2022.2.4,MacIntel,62.5,Safari,1440,900,,,,,0,756,,,,,,,,,,,,,,,,,160,S,circle,1,0,,3,,,,,,,,,,,,,,switch,letter,lettSwt,k,0.773,vtsPrac,3,0,3,0,1,,,,,,,,,,,,,,,,,,,,,,,
295264,2022-09-22_21h38.25.671,vts_reward_expectancy,2022.2.4,MacIntel,62.5,Safari,1440,900,,,,,0,756,,,,,,,,,,,,,,,,,146,H,triangle,1,0,,3,,,,,,,,,,,,,,repeat,letter,lettRpt,j,0.963,vtsPrac,4,0,4,0,1,,,,,,,,,,,,,,,,,,,,,,,
295264,2022-09-22_21h38.25.671,vts_reward_expectancy,2022.2.4,MacIntel,62.5,Safari,1440,900,,,,,0,756,,,,,,,,,,,,,,,,,167,F,star,1,0,,3,,,,,,,,,,,,,,switch,number,numSwt,f,1.513,vtsPrac,5,0,5,0,1,,,,,,,,,,,,,,,,,,,,,,,
295264,2022-09-22_21h38.25.671,vts_reward_expectancy,2022.2.4,MacIntel,62.5,Safari,1440,900,,,,,0,756,,,,,,,,,,,,,,,,,132,W,circle,1,0,,3,,,,,,,,,,,,,,switch,letter,lettSwt,k,0.629,vtsPrac,6,0,6,0,1,,,,,,,,,,,,,,,,,,,,,,,
295264,2022-09-22_21h38.25.671,vts_reward_expectancy,2022.2.4,MacIntel,62.5,Safari,1440,900,,,,,0,756,,,,,,,,,,,,,,,,,160,S,triangle,1,0,,3,,,,,,,,,,,,,,switch,number,numSwt,f,1.948,vtsPrac,7,0,7,0,1,,,,,,,,,,,,,,,,,,,,,,,
295264,2022-09-22_21h38.25.671,vts_reward_expectancy,2022.2.4,MacIntel,62.5,Safari,1440,900,,,,,0,756,,,,,,,,,,,,,,,,,167,F,circle,1,0,,3,,,,,,,,,,,,,,repeat,number,numRpt,f,0.669,vtsPrac,8,0,8,0,1,,,,,,,,,,,,,,,,,,,,,,,
295264,2022-09-22_21h38.25.671,vts_reward_expectancy,2022.2.4,MacIntel,62.5,Safari,1440,900,,,,,0,756,,,,,,,,,,,,,,,,,132,D,hexagon,1,0,,3,,,,,,,,,,,,,,switch,letter,lettSwt,j,0.696,vtsPrac,9,0,9,0,1,,,,,,,,,,,,,,,,,,,,,,,
295264,2022-09-22_21h38.25.671,vts_reward_expectancy,2022.2.4,MacIntel,62.5,Safari,1440,900,,,,,0,756,,,,,,,,,,,,,,,,,174,W,circle,1,0,,3,,,,,,,,,,,,,,repeat,letter,lettRpt,k,0.696,vtsPrac,10,0,10,0,1,,,,,,,,,,,,,,,,,,,,,,,
295264,2022-09-22_21h38.25.671,vts_reward_expectancy,2022.2.4,MacIntel,62.5,Safari,1440,900,,,,,0,756,,,,,,,,,,,,,,,,,125,Y,triangle,1,0,,3,,,,,,,,,,,,,,repeat,letter,lettRpt,k,0.664,vtsPrac,11,0,11,0,1,,,,,,,,,,,,,,,,,,,,,,,
295264,2022-09-22_21h38.25.671,vts_reward_expectancy,2022.2.4,MacIntel,62.5,Safari,1440,900,,,,,0,756,,,,,,,,,,,,,,,,,132,Y,triangle,1,0,,3,,,,,,,,,,,,,,repeat,letter,lettRpt,k,0.703,vtsPrac,12,0,12,0,1,,,,,,,,,,,,,,,,,,,,,,,
295264,2022-09-22_21h38.25.671,vts_reward_expectancy,2022.2.4,MacIntel,62.5,Safari,1440,900,,,,,0,756,,,,,,,,,,,,,,,,,139,D,circle,1,0,,3,,,,,,,,,,,,,,repeat,letter,lettRpt,j,1.05,vtsPrac,13,0,13,0,1,,,,,,,,,,,,,,,,,,,,,,,
295264,2022-09-22_21h38.25.671,vts_reward_expectancy,2022.2.4,MacIntel,62.5,Safari,1440,900,,,,,0,756,,,,,,,,,,,,,,,,,160,S,circle,1,0,,3,,,,,,,,,,,,,,switch,number,numSwt,f,0.886,vtsPrac,14,0,14,0,1,,,,,,,,,,,,,,,,,,,,,,,
295264,2022-09-22_21h38.25.671,vts_reward_expectancy,2022.2.4,MacIntel,62.5,Safari,1440,900,,,,,0,756,,,,,,,,,,,,,,,,,146,F,triangle,0,0,,3,,,,,,,,,,,,,,repeat,number,NA,f,1.039,vtsPrac,15,0,15,0,1,,,,,,,,,,,,,,,,,,,,,,,
295264,2022-09-22_21h38.25.671,vts_reward_expectancy,2022.2.4,MacIntel,62.5,Safari,1440,900,,,,,,,,,,,,,,,,,,,,,,,,,,,,,,,,,,,,,,,,,,,,,,,,,,,,,,,,,,,,,,,,,,,,,,,,,,,,
295264,2022-09-22_21h38.25.671,vts_reward_expectancy,2022.2.4,MacIntel,62.5,Safari,1440,900,,,,,,,,,,,,,,,,,,,,,,,,,,,,,,,,,,,,,,,,,,,,,,,,,,,,,,,,,,,,,,,,,,,,,,,,,,,,
295264,2022-09-22_21h38.25.671,vts_reward_expectancy,2022.2.4,MacIntel,62.5,Safari,1440,900,,,,,0,756,,,,,,,,,,,,,,,,,167,U,circle,1,1,,,,,,,,,,,,,,,,repeat,number,numRpt,f,0.871,noRew,,,,,,0,0,0,0,0,1,,,,,,,,,,,,,,,,,
295264,2022-09-22_21h38.25.671,vts_reward_expectancy,2022.2.4,MacIntel,62.5,Safari,1440,900,,,,,0,756,,,,,,,,,,,,,,,,,139,W,hexagon,1,0,,,,,,,,,,,,,,,,repeat,number,numRpt,d,0.561,noRew,,,,,,0,1,0,1,0,1,,,,,,,,,,,,,,,,,
295264,2022-09-22_21h38.25.671,vts_reward_expectancy,2022.2.4,MacIntel,62.5,Safari,1440,900,,,,,0,756,,,,,,,,,,,,,,,,,181,H,circle,1,0,,,,,,,,,,,,,,,,repeat,number,numRpt,f,0.643,noRew,,,,,,0,2,0,2,0,1,,,,,,,,,,,,,,,,,
295264,2022-09-22_21h38.25.671,vts_reward_expectancy,2022.2.4,MacIntel,62.5,Safari,1440,900,,,,,0,756,,,,,,,,,,,,,,,,,146,F,hexagon,1,0,,,,,,,,,,,,,,,,repeat,number,numRpt,d,1.824,noRew,,,,,,0,3,0,3,0,1,,,,,,,,,,,,,,,,,
295264,2022-09-22_21h38.25.671,vts_reward_expectancy,2022.2.4,MacIntel,62.5,Safari,1440,900,,,,,0,756,,,,,,,,,,,,,,,,,167,U,triangle,1,0,,,,,,,,,,,,,,,,switch,letter,lettSwt,k,0.644,noRew,,,,,,0,4,0,4,0,1,,,,,,,,,,,,,,,,,
295264,2022-09-22_21h38.25.671,vts_reward_expectancy,2022.2.4,MacIntel,62.5,Safari,1440,900,,,,,0,756,,,,,,,,,,,,,,,,,139,W,star,1,0,,,,,,,,,,,,,,,,repeat,letter,lettRpt,k,0.61,noRew,,,,,,0,5,0,5,0,1,,,,,,,,,,,,,,,,,
295264,2022-09-22_21h38.25.671,vts_reward_expectancy,2022.2.4,MacIntel,62.5,Safari,1440,900,,,,,0,756,,,,,,,,,,,,,,,,,181,H,circle,1,0,,,,,,,,,,,,,,,,repeat,letter,lettRpt,j,1.681,noRew,,,,,,0,6,0,6,0,1,,,,,,,,,,,,,,,,,
295264,2022-09-22_21h38.25.671,vts_reward_expectancy,2022.2.4,MacIntel,62.5,Safari,1440,900,,,,,0,756,,,,,,,,,,,,,,,,,146,F,hexagon,1,0,,,,,,,,,,,,,,,,switch,number,numSwt,d,2.58,noRew,,,,,,0,7,0,7,0,1,,,,,,,,,,,,,,,,,
295264,2022-09-22_21h38.25.671,vts_reward_expectancy,2022.2.4,MacIntel,62.5,Safari,1440,900,,,,,0,756,,,,,,,,,,,,,,,,,160,Y,triangle,1,0,,,,,,,,,,,,,,,,switch,letter,lettSwt,k,1.208,noRew,,,,,,0,8,0,8,0,1,,,,,,,,,,,,,,,,,
295264,2022-09-22_21h38.25.671,vts_reward_expectancy,2022.2.4,MacIntel,62.5,Safari,1440,900,,,,,0,756,,,,,,,,,,,,,,,,,125,B,hexagon,1,0,,,,,,,,,,,,,,,,repeat,letter,lettRpt,j,0.576,noRew,,,,,,0,9,0,9,0,1,,,,,,,,,,,,,,,,,
295264,2022-09-22_21h38.25.671,vts_reward_expectancy,2022.2.4,MacIntel,62.5,Safari,1440,900,,,,,0,756,,,,,,,,,,,,,,,,,139,S,circle,1,0,,,,,,,,,,,,,,,,repeat,letter,lettRpt,k,1.374,noRew,,,,,,0,10,0,10,0,1,,,,,,,,,,,,,,,,,
295264,2022-09-22_21h38.25.671,vts_reward_expectancy,2022.2.4,MacIntel,62.5,Safari,1440,900,,,,,0,756,,,,,,,,,,,,,,,,,146,W,star,1,0,,,,,,,,,,,,,,,,repeat,letter,lettRpt,k,0.803,noRew,,,,,,0,11,0,11,0,1,,,,,,,,,,,,,,,,,
295264,2022-09-22_21h38.25.671,vts_reward_expectancy,2022.2.4,MacIntel,62.5,Safari,1440,900,,,,,0,756,,,,,,,,,,,,,,,,,160,F,star,1,0,,,,,,,,,,,,,,,,switch,number,numSwt,f,0.681,noRew,,,,,,0,12,0,12,0,1,,,,,,,,,,,,,,,,,
295264,2022-09-22_21h38.25.671,vts_reward_expectancy,2022.2.4,MacIntel,62.5,Safari,1440,900,,,,,0,756,,,,,,,,,,,,,,,,,139,D,triangle,1,0,,,,,,,,,,,,,,,,repeat,number,numRpt,d,0.827,noRew,,,,,,0,13,0,13,0,1,,,,,,,,,,,,,,,,,
295264,2022-09-22_21h38.25.671,vts_reward_expectancy,2022.2.4,MacIntel,62.5,Safari,1440,900,,,,,0,756,,,,,,,,,,,,,,,,,181,B,circle,1,0,,,,,,,,,,,,,,,,switch,letter,lettSwt,j,0.595,noRew,,,,,,0,14,0,14,0,1,,,,,,,,,,,,,,,,,
295264,2022-09-22_21h38.25.671,vts_reward_expectancy,2022.2.4,MacIntel,62.5,Safari,1440,900,,,,,0,756,,,,,,,,,,,,,,,,,125,W,triangle,1,0,,,,,,,,,,,,,,,,repeat,letter,lettRpt,k,1.142,noRew,,,,,,0,15,0,15,0,1,,,,,,,,,,,,,,,,,
295264,2022-09-22_21h38.25.671,vts_reward_expectancy,2022.2.4,MacIntel,62.5,Safari,1440,900,,,,,0,756,,,,,,,,,,,,,,,,,174,B,star,1,0,,,,,,,,,,,,,,,,repeat,letter,lettRpt,j,0.559,noRew,,,,,,0,16,0,16,0,1,,,,,,,,,,,,,,,,,
295264,2022-09-22_21h38.25.671,vts_reward_expectancy,2022.2.4,MacIntel,62.5,Safari,1440,900,,,,,0,756,,,,,,,,,,,,,,,,,160,S,hexagon,1,0,,,,,,,,,,,,,,,,switch,number,numSwt,f,1.335,noRew,,,,,,0,17,0,17,0,1,,,,,,,,,,,,,,,,,
295264,2022-09-22_21h38.25.671,vts_reward_expectancy,2022.2.4,MacIntel,62.5,Safari,1440,900,,,,,0,756,,,,,,,,,,,,,,,,,139,Y,hexagon,1,0,,,,,,,,,,,,,,,,repeat,number,numRpt,d,0.528,noRew,,,,,,0,18,0,18,0,1,,,,,,,,,,,,,,,,,
295264,2022-09-22_21h38.25.671,vts_reward_expectancy,2022.2.4,MacIntel,62.5,Safari,1440,900,,,,,0,756,,,,,,,,,,,,,,,,,167,H,circle,1,0,,,,,,,,,,,,,,,,repeat,number,numRpt,f,1.283,noRew,,,,,,0,19,0,19,0,1,,,,,,,,,,,,,,,,,
295264,2022-09-22_21h38.25.671,vts_reward_expectancy,2022.2.4,MacIntel,62.5,Safari,1440,900,,,,,0,756,,,,,,,,,,,,,,,,,174,D,circle,1,0,,,,,,,,,,,,,,,,switch,letter,lettSwt,j,0.631,noRew,,,,,,0,20,0,20,0,1,,,,,,,,,,,,,,,,,
295264,2022-09-22_21h38.25.671,vts_reward_expectancy,2022.2.4,MacIntel,62.5,Safari,1440,900,,,,,0,756,,,,,,,,,,,,,,,,,160,Y,triangle,1,0,,,,,,,,,,,,,,,,repeat,letter,lettRpt,k,0.577,noRew,,,,,,0,21,0,21,0,1,,,,,,,,,,,,,,,,,
295264,2022-09-22_21h38.25.671,vts_reward_expectancy,2022.2.4,MacIntel,62.5,Safari,1440,900,,,,,0,756,,,,,,,,,,,,,,,,,181,F,circle,1,0,,,,,,,,,,,,,,,,switch,number,numSwt,f,1.297,noRew,,,,,,0,22,0,22,0,1,,,,,,,,,,,,,,,,,
295264,2022-09-22_21h38.25.671,vts_reward_expectancy,2022.2.4,MacIntel,62.5,Safari,1440,900,,,,,0,756,,,,,,,,,,,,,,,,,139,S,triangle,1,0,,,,,,,,,,,,,,,,repeat,number,numRpt,d,1.244,noRew,,,,,,0,23,0,23,0,1,,,,,,,,,,,,,,,,,
295264,2022-09-22_21h38.25.671,vts_reward_expectancy,2022.2.4,MacIntel,62.5,Safari,1440,900,,,,,0,756,,,,,,,,,,,,,,,,,132,U,triangle,1,0,,,,,,,,,,,,,,,,switch,letter,lettSwt,k,0.659,noRew,,,,,,0,24,0,24,0,1,,,,,,,,,,,,,,,,,
295264,2022-09-22_21h38.25.671,vts_reward_expectancy,2022.2.4,MacIntel,62.5,Safari,1440,900,,,,,0,756,,,,,,,,,,,,,,,,,181,S,hexagon,1,0,,,,,,,,,,,,,,,,switch,number,numSwt,f,1.177,noRew,,,,,,0,25,0,25,0,1,,,,,,,,,,,,,,,,,
295264,2022-09-22_21h38.25.671,vts_reward_expectancy,2022.2.4,MacIntel,62.5,Safari,1440,900,,,,,0,756,,,,,,,,,,,,,,,,,139,D,triangle,1,0,,,,,,,,,,,,,,,,switch,letter,lettSwt,j,0.676,noRew,,,,,,0,26,0,26,0,1,,,,,,,,,,,,,,,,,
295264,2022-09-22_21h38.25.671,vts_reward_expectancy,2022.2.4,MacIntel,62.5,Safari,1440,900,,,,,0,756,,,,,,,,,,,,,,,,,160,W,hexagon,1,0,,,,,,,,,,,,,,,,repeat,letter,lettRpt,k,0.48,noRew,,,,,,0,27,0,27,0,1,,,,,,,,,,,,,,,,,
295264,2022-09-22_21h38.25.671,vts_reward_expectancy,2022.2.4,MacIntel,62.5,Safari,1440,900,,,,,0,756,,,,,,,,,,,,,,,,,132,U,star,1,0,,,,,,,,,,,,,,,,repeat,letter,lettRpt,k,0.647,noRew,,,,,,0,28,0,28,0,1,,,,,,,,,,,,,,,,,
295264,2022-09-22_21h38.25.671,vts_reward_expectancy,2022.2.4,MacIntel,62.5,Safari,1440,900,,,,,0,756,,,,,,,,,,,,,,,,,174,Y,triangle,1,0,,,,,,,,,,,,,,,,repeat,letter,lettRpt,k,0.583,noRew,,,,,,0,29,0,29,0,1,,,,,,,,,,,,,,,,,
295264,2022-09-22_21h38.25.671,vts_reward_expectancy,2022.2.4,MacIntel,62.5,Safari,1440,900,,,,,0,756,,,,,,,,,,,,,,,,,139,H,circle,1,0,,,,,,,,,,,,,,,,switch,number,numSwt,d,1.446,noRew,,,,,,0,30,0,30,0,1,,,,,,,,,,,,,,,,,
295264,2022-09-22_21h38.25.671,vts_reward_expectancy,2022.2.4,MacIntel,62.5,Safari,1440,900,,,,,0,756,,,,,,,,,,,,,,,,,181,D,star,1,0,,,,,,,,,,,,,,,,repeat,number,numRpt,f,0.662,noRew,,,,,,0,31,0,31,0,1,,,,,,,,,,,,,,,,,
295264,2022-09-22_21h38.25.671,vts_reward_expectancy,2022.2.4,MacIntel,62.5,Safari,1440,900,,,,,0,756,,,,,,,,,,,,,,,,,146,W,hexagon,1,0,,,,,,,,,,,,,,,,repeat,number,numRpt,d,1.243,noRew,,,,,,0,32,0,32,0,1,,,,,,,,,,,,,,,,,
295264,2022-09-22_21h38.25.671,vts_reward_expectancy,2022.2.4,MacIntel,62.5,Safari,1440,900,,,,,0,756,,,,,,,,,,,,,,,,,132,B,circle,1,0,,,,,,,,,,,,,,,,switch,letter,lettSwt,j,0.615,noRew,,,,,,0,33,0,33,0,1,,,,,,,,,,,,,,,,,
295264,2022-09-22_21h38.25.671,vts_reward_expectancy,2022.2.4,MacIntel,62.5,Safari,1440,900,,,,,0,756,,,,,,,,,,,,,,,,,181,H,hexagon,1,0,,,,,,,,,,,,,,,,switch,number,numSwt,f,1.194,noRew,,,,,,0,34,0,34,0,1,,,,,,,,,,,,,,,,,
295264,2022-09-22_21h38.25.671,vts_reward_expectancy,2022.2.4,MacIntel,62.5,Safari,1440,900,,,,,0,756,,,,,,,,,,,,,,,,,174,F,triangle,1,0,,,,,,,,,,,,,,,,repeat,number,numRpt,f,1.218,noRew,,,,,,0,35,0,35,0,1,,,,,,,,,,,,,,,,,
295264,2022-09-22_21h38.25.671,vts_reward_expectancy,2022.2.4,MacIntel,62.5,Safari,1440,900,,,,,0,756,,,,,,,,,,,,,,,,,132,W,hexagon,1,0,,,,,,,,,,,,,,,,switch,letter,lettSwt,k,0.59,noRew,,,,,,0,36,0,36,0,1,,,,,,,,,,,,,,,,,
295264,2022-09-22_21h38.25.671,vts_reward_expectancy,2022.2.4,MacIntel,62.5,Safari,1440,900,,,,,0,756,,,,,,,,,,,,,,,,,174,Y,star,1,0,,,,,,,,,,,,,,,,repeat,letter,lettRpt,k,0.6,noRew,,,,,,0,37,0,37,0,1,,,,,,,,,,,,,,,,,
295264,2022-09-22_21h38.25.671,vts_reward_expectancy,2022.2.4,MacIntel,62.5,Safari,1440,900,,,,,0,756,,,,,,,,,,,,,,,,,125,U,triangle,1,0,,,,,,,,,,,,,,,,repeat,letter,lettRpt,k,0.793,noRew,,,,,,0,38,0,38,0,1,,,,,,,,,,,,,,,,,
295264,2022-09-22_21h38.25.671,vts_reward_expectancy,2022.2.4,MacIntel,62.5,Safari,1440,900,,,,,0,756,,,,,,,,,,,,,,,,,146,D,hexagon,1,0,,,,,,,,,,,,,,,,repeat,letter,lettRpt,j,0.524,noRew,,,,,,0,39,0,39,0,1,,,,,,,,,,,,,,,,,
295264,2022-09-22_21h38.25.671,vts_reward_expectancy,2022.2.4,MacIntel,62.5,Safari,1440,900,,,,,0,756,,,,,,,,,,,,,,,,,139,D,star,1,0,,,,,,,,,,,,,,,,repeat,letter,lettRpt,j,1.177,noRew,,,,,,0,40,0,40,0,1,,,,,,,,,,,,,,,,,
295264,2022-09-22_21h38.25.671,vts_reward_expectancy,2022.2.4,MacIntel,62.5,Safari,1440,900,,,,,0,756,,,,,,,,,,,,,,,,,132,W,circle,1,0,,,,,,,,,,,,,,,,switch,number,numSwt,d,0.714,noRew,,,,,,0,41,0,41,0,1,,,,,,,,,,,,,,,,,
295264,2022-09-22_21h38.25.671,vts_reward_expectancy,2022.2.4,MacIntel,62.5,Safari,1440,900,,,,,0,756,,,,,,,,,,,,,,,,,167,F,triangle,1,0,,,,,,,,,,,,,,,,repeat,number,numRpt,f,0.562,noRew,,,,,,0,42,0,42,0,1,,,,,,,,,,,,,,,,,
295264,2022-09-22_21h38.25.671,vts_reward_expectancy,2022.2.4,MacIntel,62.5,Safari,1440,900,,,,,0,756,,,,,,,,,,,,,,,,,174,U,star,1,0,,,,,,,,,,,,,,,,repeat,number,numRpt,f,0.625,noRew,,,,,,0,43,0,43,0,1,,,,,,,,,,,,,,,,,
295264,2022-09-22_21h38.25.671,vts_reward_expectancy,2022.2.4,MacIntel,62.5,Safari,1440,900,,,,,0,756,,,,,,,,,,,,,,,,,160,S,circle,1,0,,,,,,,,,,,,,,,,repeat,number,numRpt,f,0.92,noRew,,,,,,0,44,0,44,0,1,,,,,,,,,,,,,,,,,
295264,2022-09-22_21h38.25.671,vts_reward_expectancy,2022.2.4,MacIntel,62.5,Safari,1440,900,,,,,0,756,,,,,,,,,,,,,,,,,132,D,star,1,0,,,,,,,,,,,,,,,,switch,letter,lettSwt,j,0.672,noRew,,,,,,0,45,0,45,0,1,,,,,,,,,,,,,,,,,
295264,2022-09-22_21h38.25.671,vts_reward_expectancy,2022.2.4,MacIntel,62.5,Safari,1440,900,,,,,0,756,,,,,,,,,,,,,,,,,125,B,circle,1,0,,,,,,,,,,,,,,,,repeat,letter,lettRpt,j,0.544,noRew,,,,,,0,46,0,46,0,1,,,,,,,,,,,,,,,,,
295264,2022-09-22_21h38.25.671,vts_reward_expectancy,2022.2.4,MacIntel,62.5,Safari,1440,900,,,,,0,756,,,,,,,,,,,,,,,,,146,H,triangle,1,0,,,,,,,,,,,,,,,,switch,number,numSwt,d,0.665,noRew,,,,,,0,47,0,47,0,1,,,,,,,,,,,,,,,,,
295264,2022-09-22_21h38.25.671,vts_reward_expectancy,2022.2.4,MacIntel,62.5,Safari,1440,900,,,,,0,756,,,,,,,,,,,,,,,,,132,S,star,1,0,,,,,,,,,,,,,,,,repeat,number,numRpt,d,1.414,noRew,,,,,,0,48,0,48,0,1,,,,,,,,,,,,,,,,,
295264,2022-09-22_21h38.25.671,vts_reward_expectancy,2022.2.4,MacIntel,62.5,Safari,1440,900,,,,,0,756,,,,,,,,,,,,,,,,,146,U,circle,1,0,,,,,,,,,,,,,,,,switch,letter,lettSwt,k,0.633,noRew,,,,,,0,49,0,49,0,1,,,,,,,,,,,,,,,,,
295264,2022-09-22_21h38.25.671,vts_reward_expectancy,2022.2.4,MacIntel,62.5,Safari,1440,900,,,,,0,756,,,,,,,,,,,,,,,,,139,F,hexagon,1,0,,,,,,,,,,,,,,,,switch,number,numSwt,d,1.062,noRew,,,,,,0,50,0,50,0,1,,,,,,,,,,,,,,,,,
295264,2022-09-22_21h38.25.671,vts_reward_expectancy,2022.2.4,MacIntel,62.5,Safari,1440,900,,,,,0,756,,,,,,,,,,,,,,,,,174,D,triangle,1,0,,,,,,,,,,,,,,,,switch,letter,lettSwt,j,0.693,noRew,,,,,,0,51,0,51,0,1,,,,,,,,,,,,,,,,,
295264,2022-09-22_21h38.25.671,vts_reward_expectancy,2022.2.4,MacIntel,62.5,Safari,1440,900,,,,,0,756,,,,,,,,,,,,,,,,,181,W,triangle,1,0,,,,,,,,,,,,,,,,repeat,letter,lettRpt,k,0.512,noRew,,,,,,0,52,0,52,0,1,,,,,,,,,,,,,,,,,
295264,2022-09-22_21h38.25.671,vts_reward_expectancy,2022.2.4,MacIntel,62.5,Safari,1440,900,,,,,0,756,,,,,,,,,,,,,,,,,146,F,hexagon,1,0,,,,,,,,,,,,,,,,switch,number,numSwt,d,1.913,noRew,,,,,,0,53,0,53,0,1,,,,,,,,,,,,,,,,,
295264,2022-09-22_21h38.25.671,vts_reward_expectancy,2022.2.4,MacIntel,62.5,Safari,1440,900,,,,,0,756,,,,,,,,,,,,,,,,,139,B,triangle,1,0,,,,,,,,,,,,,,,,switch,letter,lettSwt,j,1.057,noRew,,,,,,0,54,0,54,0,1,,,,,,,,,,,,,,,,,
295264,2022-09-22_21h38.25.671,vts_reward_expectancy,2022.2.4,MacIntel,62.5,Safari,1440,900,,,,,0,756,,,,,,,,,,,,,,,,,125,U,hexagon,1,0,,,,,,,,,,,,,,,,repeat,letter,lettRpt,k,0.626,noRew,,,,,,0,55,0,55,0,1,,,,,,,,,,,,,,,,,
295264,2022-09-22_21h38.25.671,vts_reward_expectancy,2022.2.4,MacIntel,62.5,Safari,1440,900,,,,,0,756,,,,,,,,,,,,,,,,,174,F,triangle,1,0,,,,,,,,,,,,,,,,repeat,letter,lettRpt,j,1.078,noRew,,,,,,0,56,0,56,0,1,,,,,,,,,,,,,,,,,
295264,2022-09-22_21h38.25.671,vts_reward_expectancy,2022.2.4,MacIntel,62.5,Safari,1440,900,,,,,0,756,,,,,,,,,,,,,,,,,139,U,star,1,0,,,,,,,,,,,,,,,,repeat,letter,lettRpt,k,0.711,noRew,,,,,,0,57,0,57,0,1,,,,,,,,,,,,,,,,,
295264,2022-09-22_21h38.25.671,vts_reward_expectancy,2022.2.4,MacIntel,62.5,Safari,1440,900,,,,,0,756,,,,,,,,,,,,,,,,,160,W,hexagon,1,0,,,,,,,,,,,,,,,,repeat,letter,lettRpt,k,1.178,noRew,,,,,,0,58,0,58,0,1,,,,,,,,,,,,,,,,,
295264,2022-09-22_21h38.25.671,vts_reward_expectancy,2022.2.4,MacIntel,62.5,Safari,1440,900,,,,,0,756,,,,,,,,,,,,,,,,,181,D,star,1,0,,,,,,,,,,,,,,,,switch,number,numSwt,f,0.725,noRew,,,,,,0,59,0,59,0,1,,,,,,,,,,,,,,,,,
295264,2022-09-22_21h38.25.671,vts_reward_expectancy,2022.2.4,MacIntel,62.5,Safari,1440,900,,,,,0,756,,,,,,,,,,,,,,,,,174,Y,hexagon,1,0,,,,,,,,,,,,,,,,repeat,number,numRpt,f,1.263,noRew,,,,,,0,60,0,60,0,1,,,,,,,,,,,,,,,,,
295264,2022-09-22_21h38.25.671,vts_reward_expectancy,2022.2.4,MacIntel,62.5,Safari,1440,900,,,,,0,756,,,,,,,,,,,,,,,,,167,F,circle,1,0,,,,,,,,,,,,,,,,repeat,number,numRpt,f,0.844,noRew,,,,,,0,61,0,61,0,1,,,,,,,,,,,,,,,,,
295264,2022-09-22_21h38.25.671,vts_reward_expectancy,2022.2.4,MacIntel,62.5,Safari,1440,900,,,,,0,756,,,,,,,,,,,,,,,,,160,S,hexagon,1,0,,,,,,,,,,,,,,,,repeat,number,numRpt,f,0.699,noRew,,,,,,0,62,0,62,0,1,,,,,,,,,,,,,,,,,
295264,2022-09-22_21h38.25.671,vts_reward_expectancy,2022.2.4,MacIntel,62.5,Safari,1440,900,,,,,0,756,,,,,,,,,,,,,,,,,181,U,circle,1,0,,,,,,,,,,,,,,,,switch,letter,lettSwt,k,0.543,noRew,,,,,,0,63,0,63,0,1,,,,,,,,,,,,,,,,,
295264,2022-09-22_21h38.25.671,vts_reward_expectancy,2022.2.4,MacIntel,62.5,Safari,1440,900,,,,,,,,,,,,,,,,,,,,,,,,,,,,,,,,,,,,,,,,,,,,,,,,,,,,,,,,,,,,,,,,,,,,,,,,,,,,
295264,2022-09-22_21h38.25.671,vts_reward_expectancy,2022.2.4,MacIntel,62.5,Safari,1440,900,,,,,0,756,,,,,,,,,,,,,,,,,167,Y,hexagon,1,0,,,,,,,,,,,,,,,,repeat,letter,lettRpt,k,0.947,Hi,,,,,,0,,,,,,space,11.658,low,0,0,0,0,1,,,,,,,,,
295264,2022-09-22_21h38.25.671,vts_reward_expectancy,2022.2.4,MacIntel,62.5,Safari,1440,900,,,,,10,766,,,,,,,,,,,,,,,,,146,U,star,1,0,,,,,,,,,,,,,,,,repeat,letter,lettRpt,k,0.511,Lo,,,,,,0,,,,,,,,low,1,0,1,0,1,,,,,,,,,
295264,2022-09-22_21h38.25.671,vts_reward_expectancy,2022.2.4,MacIntel,62.5,Safari,1440,900,,,,,1,767,,,,,,,,,,,,,,,,,132,B,hexagon,1,0,,,,,,,,,,,,,,,,repeat,letter,lettRpt,j,0.543,Hi,,,,,,0,,,,,,,,low,2,0,2,0,1,,,,,,,,,
295264,2022-09-22_21h38.25.671,vts_reward_expectancy,2022.2.4,MacIntel,62.5,Safari,1440,900,,,,,1,768,,,,,,,,,,,,,,,,,181,H,star,1,0,,,,,,,,,,,,,,,,switch,number,numSwt,f,0.61,Lo,,,,,,0,,,,,,,,low,3,0,3,0,1,,,,,,,,,
295264,2022-09-22_21h38.25.671,vts_reward_expectancy,2022.2.4,MacIntel,62.5,Safari,1440,900,,,,,0,768,,,,,,,,,,,,,,,,,139,F,hexagon,1,0,,,,,,,,,,,,,,,,switch,letter,lettSwt,j,0.878,Hi,,,,,,0,,,,,,,,low,4,0,4,0,1,,,,,,,,,
295264,2022-09-22_21h38.25.671,vts_reward_expectancy,2022.2.4,MacIntel,62.5,Safari,1440,900,,,,,1,769,,,,,,,,,,,,,,,,,125,S,star,1,0,,,,,,,,,,,,,,,,switch,number,numSwt,d,0.592,Lo,,,,,,0,,,,,,,,low,5,0,5,0,1,,,,,,,,,
295264,2022-09-22_21h38.25.671,vts_reward_expectancy,2022.2.4,MacIntel,62.5,Safari,1440,900,,,,,10,779,,,,,,,,,,,,,,,,,174,D,star,1,0,,,,,,,,,,,,,,,,switch,letter,lettSwt,j,0.624,Lo,,,,,,0,,,,,,,,low,6,0,6,0,1,,,,,,,,,
295264,2022-09-22_21h38.25.671,vts_reward_expectancy,2022.2.4,MacIntel,62.5,Safari,1440,900,,,,,0,779,,,,,,,,,,,,,,,,,160,W,hexagon,1,0,,,,,,,,,,,,,,,,repeat,letter,lettRpt,k,0.79,Hi,,,,,,0,,,,,,,,low,7,0,7,0,1,,,,,,,,,
295264,2022-09-22_21h38.25.671,vts_reward_expectancy,2022.2.4,MacIntel,62.5,Safari,1440,900,,,,,10,789,,,,,,,,,,,,,,,,,167,Y,hexagon,1,0,,,,,,,,,,,,,,,,repeat,letter,lettRpt,k,0.566,Hi,,,,,,0,,,,,,,,low,8,0,8,0,1,,,,,,,,,
295264,2022-09-22_21h38.25.671,vts_reward_expectancy,2022.2.4,MacIntel,62.5,Safari,1440,900,,,,,1,790,,,,,,,,,,,,,,,,,146,U,star,1,0,,,,,,,,,,,,,,,,repeat,letter,lettRpt,k,0.813,Lo,,,,,,0,,,,,,,,low,9,0,9,0,1,,,,,,,,,
295264,2022-09-22_21h38.25.671,vts_reward_expectancy,2022.2.4,MacIntel,62.5,Safari,1440,900,,,,,10,800,,,,,,,,,,,,,,,,,132,B,star,1,0,,,,,,,,,,,,,,,,switch,number,numSwt,d,0.698,Lo,,,,,,0,,,,,,,,low,10,0,10,0,1,,,,,,,,,
295264,2022-09-22_21h38.25.671,vts_reward_expectancy,2022.2.4,MacIntel,62.5,Safari,1440,900,,,,,0,800,,,,,,,,,,,,,,,,,181,H,hexagon,0,0,,,,,,,,,,,,,,,,switch,letter,NA,k,0.792,Lo,,,,,,0,,,,,,,,low,11,0,11,0,1,,,,,,,,,
295264,2022-09-22_21h38.25.671,vts_reward_expectancy,2022.2.4,MacIntel,62.5,Safari,1440,900,,,,,0,800,,,,,,,,,,,,,,,,,139,F,hexagon,1,1,,,,,,,,,,,,,,,,repeat,letter,lettRpt,j,0.708,Hi,,,,,,0,,,,,,,,low,12,0,12,0,1,,,,,,,,,
295264,2022-09-22_21h38.25.671,vts_reward_expectancy,2022.2.4,MacIntel,62.5,Safari,1440,900,,,,,1,801,,,,,,,,,,,,,,,,,125,S,star,1,0,,,,,,,,,,,,,,,,switch,number,numSwt,d,0.613,Lo,,,,,,0,,,,,,,,low,13,0,13,0,1,,,,,,,,,
295264,2022-09-22_21h38.25.671,vts_reward_expectancy,2022.2.4,MacIntel,62.5,Safari,1440,900,,,,,10,811,,,,,,,,,,,,,,,,,174,D,hexagon,1,0,,,,,,,,,,,,,,,,switch,letter,lettSwt,j,0.63,Hi,,,,,,0,,,,,,,,low,14,0,14,0,1,,,,,,,,,
295264,2022-09-22_21h38.25.671,vts_reward_expectancy,2022.2.4,MacIntel,62.5,Safari,1440,900,,,,,1,812,,,,,,,,,,,,,,,,,160,W,star,1,0,,,,,,,,,,,,,,,,repeat,letter,lettRpt,k,0.674,Lo,,,,,,0,,,,,,,,low,15,0,15,0,1,,,,,,,,,
295264,2022-09-22_21h38.25.671,vts_reward_expectancy,2022.2.4,MacIntel,62.5,Safari,1440,900,,,,,1,813,,,,,,,,,,,,,,,,,174,U,hexagon,1,0,,,,,,,,,,,,,,,,repeat,letter,lettRpt,k,0.51,Hi,,,,,,0,,,,,,,,low,16,0,16,0,1,,,,,,,,,
295264,2022-09-22_21h38.25.671,vts_reward_expectancy,2022.2.4,MacIntel,62.5,Safari,1440,900,,,,,10,823,,,,,,,,,,,,,,,,,132,W,star,1,0,,,,,,,,,,,,,,,,switch,number,numSwt,d,0.553,Lo,,,,,,0,,,,,,,,low,17,0,17,0,1,,,,,,,,,
295264,2022-09-22_21h38.25.671,vts_reward_expectancy,2022.2.4,MacIntel,62.5,Safari,1440,900,,,,,1,824,,,,,,,,,,,,,,,,,146,Y,star,1,0,,,,,,,,,,,,,,,,repeat,number,numRpt,d,1.127,Lo,,,,,,0,,,,,,,,low,18,0,18,0,1,,,,,,,,,
295264,2022-09-22_21h38.25.671,vts_reward_expectancy,2022.2.4,MacIntel,62.5,Safari,1440,900,,,,,10,834,,,,,,,,,,,,,,,,,160,D,hexagon,1,0,,,,,,,,,,,,,,,,repeat,number,numRpt,f,0.596,Hi,,,,,,0,,,,,,,,low,19,0,19,0,1,,,,,,,,,
295264,2022-09-22_21h38.25.671,vts_reward_expectancy,2022.2.4,MacIntel,62.5,Safari,1440,900,,,,,0,834,,,,,,,,,,,,,,,,,181,B,hexagon,0,0,,,,,,,,,,,,,,,,repeat,number,NA,d,0.615,Hi,,,,,,0,,,,,,,,low,20,0,20,0,1,,,,,,,,,
295264,2022-09-22_21h38.25.671,vts_reward_expectancy,2022.2.4,MacIntel,62.5,Safari,1440,900,,,,,10,844,,,,,,,,,,,,,,,,,125,S,star,1,1,,,,,,,,,,,,,,,,repeat,number,numRpt,d,0.528,Lo,,,,,,0,,,,,,,,low,21,0,21,0,1,,,,,,,,,
295264,2022-09-22_21h38.25.671,vts_reward_expectancy,2022.2.4,MacIntel,62.5,Safari,1440,900,,,,,0,844,,,,,,,,,,,,,,,,,139,H,hexagon,1,0,,,,,,,,,,,,,,,,repeat,number,numRpt,d,0.96,Hi,,,,,,0,,,,,,,,low,22,0,22,0,1,,,,,,,,,
295264,2022-09-22_21h38.25.671,vts_reward_expectancy,2022.2.4,MacIntel,62.5,Safari,1440,900,,,,,1,845,,,,,,,,,,,,,,,,,167,F,star,1,0,,,,,,,,,,,,,,,,repeat,number,numRpt,f,0.916,Lo,,,,,,0,,,,,,,,low,23,0,23,0,1,,,,,,,,,
295264,2022-09-22_21h38.25.671,vts_reward_expectancy,2022.2.4,MacIntel,62.5,Safari,1440,900,,,,,10,855,,,,,,,,,,,,,,,,,132,Y,star,1,0,,,,,,,,,,,,,,,,repeat,number,numRpt,d,0.659,Lo,,,,,,0,,,,,,,,low,24,0,24,0,1,,,,,,,,,
295264,2022-09-22_21h38.25.671,vts_reward_expectancy,2022.2.4,MacIntel,62.5,Safari,1440,900,,,,,0,855,,,,,,,,,,,,,,,,,181,H,hexagon,1,0,,,,,,,,,,,,,,,,switch,letter,lettSwt,j,0.746,Hi,,,,,,0,,,,,,,,low,25,0,25,0,1,,,,,,,,,
295264,2022-09-22_21h38.25.671,vts_reward_expectancy,2022.2.4,MacIntel,62.5,Safari,1440,900,,,,,0,855,,,,,,,,,,,,,,,,,160,F,hexagon,1,0,,,,,,,,,,,,,,,,repeat,letter,lettRpt,j,0.742,Hi,,,,,,0,,,,,,,,low,26,0,26,0,1,,,,,,,,,
295264,2022-09-22_21h38.25.671,vts_reward_expectancy,2022.2.4,MacIntel,62.5,Safari,1440,900,,,,,1,856,,,,,,,,,,,,,,,,,146,U,star,1,0,,,,,,,,,,,,,,,,switch,number,numSwt,d,1.194,Lo,,,,,,0,,,,,,,,low,27,0,27,0,1,,,,,,,,,
295264,2022-09-22_21h38.25.671,vts_reward_expectancy,2022.2.4,MacIntel,62.5,Safari,1440,900,,,,,1,857,,,,,,,,,,,,,,,,,174,B,star,1,0,,,,,,,,,,,,,,,,repeat,number,numRpt,f,0.657,Lo,,,,,,0,,,,,,,,low,28,0,28,0,1,,,,,,,,,
295264,2022-09-22_21h38.25.671,vts_reward_expectancy,2022.2.4,MacIntel,62.5,Safari,1440,900,,,,,1,858,,,,,,,,,,,,,,,,,139,W,hexagon,1,0,,,,,,,,,,,,,,,,switch,letter,lettSwt,k,0.512,Hi,,,,,,0,,,,,,,,low,29,0,29,0,1,,,,,,,,,
295264,2022-09-22_21h38.25.671,vts_reward_expectancy,2022.2.4,MacIntel,62.5,Safari,1440,900,,,,,10,868,,,,,,,,,,,,,,,,,167,D,hexagon,1,0,,,,,,,,,,,,,,,,switch,number,numSwt,f,0.664,Hi,,,,,,0,,,,,,,,low,30,0,30,0,1,,,,,,,,,
295264,2022-09-22_21h38.25.671,vts_reward_expectancy,2022.2.4,MacIntel,62.5,Safari,1440,900,,,,,1,869,,,,,,,,,,,,,,,,,125,S,star,1,0,,,,,,,,,,,,,,,,repeat,number,numRpt,d,0.564,Lo,,,,,,0,,,,,,,,low,31,0,31,0,1,,,,,,,,,
295264,2022-09-22_21h38.25.671,vts_reward_expectancy,2022.2.4,MacIntel,62.5,Safari,1440,900,,,,,0,869,,,,,,,,,,,,,,,,,167,D,triangle,1,0,,,,,,,,,,,,,,,,switch,letter,lettSwt,j,0.911,Hi,,,,,,1,,,,,,space,1.034,high,0,0,0,0,1,,,,,,,,,
295264,2022-09-22_21h38.25.671,vts_reward_expectancy,2022.2.4,MacIntel,62.5,Safari,1440,900,,,,,1,870,,,,,,,,,,,,,,,,,181,H,circle,1,0,,,,,,,,,,,,,,,,repeat,letter,lettRpt,j,0.843,Lo,,,,,,1,,,,,,,,high,1,0,1,0,1,,,,,,,,,
295264,2022-09-22_21h38.25.671,vts_reward_expectancy,2022.2.4,MacIntel,62.5,Safari,1440,900,,,,,0,870,,,,,,,,,,,,,,,,,146,B,triangle,1,0,,,,,,,,,,,,,,,,repeat,letter,lettRpt,j,0.649,Hi,,,,,,1,,,,,,,,high,2,0,2,0,1,,,,,,,,,
295264,2022-09-22_21h38.25.671,vts_reward_expectancy,2022.2.4,MacIntel,62.5,Safari,1440,900,,,,,10,880,,,,,,,,,,,,,,,,,160,Y,circle,1,0,,,,,,,,,,,,,,,,switch,number,numSwt,f,0.645,Lo,,,,,,1,,,,,,,,high,3,0,3,0,1,,,,,,,,,
295264,2022-09-22_21h38.25.671,vts_reward_expectancy,2022.2.4,MacIntel,62.5,Safari,1440,900,,,,,1,881,,,,,,,,,,,,,,,,,139,F,triangle,1,0,,,,,,,,,,,,,,,,repeat,number,numRpt,d,0.479,Hi,,,,,,1,,,,,,,,high,4,0,4,0,1,,,,,,,,,
295264,2022-09-22_21h38.25.671,vts_reward_expectancy,2022.2.4,MacIntel,62.5,Safari,1440,900,,,,,1,882,,,,,,,,,,,,,,,,,174,S,circle,1,0,,,,,,,,,,,,,,,,repeat,number,numRpt,f,0.514,Lo,,,,,,1,,,,,,,,high,5,0,5,0,1,,,,,,,,,
295264,2022-09-22_21h38.25.671,vts_reward_expectancy,2022.2.4,MacIntel,62.5,Safari,1440,900,,,,,10,892,,,,,,,,,,,,,,,,,125,W,triangle,1,0,,,,,,,,,,,,,,,,switch,letter,lettSwt,k,0.468,Hi,,,,,,1,,,,,,,,high,6,0,6,0,1,,,,,,,,,
295264,2022-09-22_21h38.25.671,vts_reward_expectancy,2022.2.4,MacIntel,62.5,Safari,1440,900,,,,,1,893,,,,,,,,,,,,,,,,,132,U,circle,1,0,,,,,,,,,,,,,,,,switch,number,numSwt,d,0.624,Lo,,,,,,1,,,,,,,,high,7,0,7,0,1,,,,,,,,,
295264,2022-09-22_21h38.25.671,vts_reward_expectancy,2022.2.4,MacIntel,62.5,Safari,1440,900,,,,,10,903,,,,,,,,,,,,,,,,,167,D,circle,1,0,,,,,,,,,,,,,,,,switch,letter,lettSwt,j,0.496,Lo,,,,,,1,,,,,,,,high,8,0,8,0,1,,,,,,,,,
295264,2022-09-22_21h38.25.671,vts_reward_expectancy,2022.2.4,MacIntel,62.5,Safari,1440,900,,,,,0,903,,,,,,,,,,,,,,,,,181,H,triangle,1,0,,,,,,,,,,,,,,,,repeat,letter,lettRpt,j,0.823,Hi,,,,,,1,,,,,,,,high,9,0,9,0,1,,,,,,,,,
295264,2022-09-22_21h38.25.671,vts_reward_expectancy,2022.2.4,MacIntel,62.5,Safari,1440,900,,,,,10,913,,,,,,,,,,,,,,,,,146,B,triangle,1,0,,,,,,,,,,,,,,,,repeat,letter,lettRpt,j,0.509,Hi,,,,,,1,,,,,,,,high,10,0,10,0,1,,,,,,,,,
295264,2022-09-22_21h38.25.671,vts_reward_expectancy,2022.2.4,MacIntel,62.5,Safari,1440,900,,,,,1,914,,,,,,,,,,,,,,,,,160,Y,circle,1,0,,,,,,,,,,,,,,,,repeat,letter,lettRpt,k,0.61,Lo,,,,,,1,,,,,,,,high,11,0,11,0,1,,,,,,,,,
295264,2022-09-22_21h38.25.671,vts_reward_expectancy,2022.2.4,MacIntel,62.5,Safari,1440,900,,,,,1,915,,,,,,,,,,,,,,,,,139,F,circle,1,0,,,,,,,,,,,,,,,,switch,number,numSwt,d,0.978,Lo,,,,,,1,,,,,,,,high,12,0,12,0,1,,,,,,,,,
295264,2022-09-22_21h38.25.671,vts_reward_expectancy,2022.2.4,MacIntel,62.5,Safari,1440,900,,,,,0,915,,,,,,,,,,,,,,,,,174,S,triangle,1,0,,,,,,,,,,,,,,,,switch,letter,lettSwt,k,0.795,Hi,,,,,,1,,,,,,,,high,13,0,13,0,1,,,,,,,,,
295264,2022-09-22_21h38.25.671,vts_reward_expectancy,2022.2.4,MacIntel,62.5,Safari,1440,900,,,,,1,916,,,,,,,,,,,,,,,,,125,W,circle,1,0,,,,,,,,,,,,,,,,repeat,letter,lettRpt,k,0.496,Lo,,,,,,1,,,,,,,,high,14,0,14,0,1,,,,,,,,,
295264,2022-09-22_21h38.25.671,vts_reward_expectancy,2022.2.4,MacIntel,62.5,Safari,1440,900,,,,,0,916,,,,,,,,,,,,,,,,,132,U,triangle,1,0,,,,,,,,,,,,,,,,switch,number,numSwt,d,0.732,Hi,,,,,,1,,,,,,,,high,15,0,15,0,1,,,,,,,,,
295264,2022-09-22_21h38.25.671,vts_reward_expectancy,2022.2.4,MacIntel,62.5,Safari,1440,900,,,,,1,917,,,,,,,,,,,,,,,,,167,Y,circle,1,0,,,,,,,,,,,,,,,,repeat,number,numRpt,f,0.527,Lo,,,,,,1,,,,,,,,high,16,0,16,0,1,,,,,,,,,
295264,2022-09-22_21h38.25.671,vts_reward_expectancy,2022.2.4,MacIntel,62.5,Safari,1440,900,,,,,0,917,,,,,,,,,,,,,,,,,132,F,triangle,1,0,,,,,,,,,,,,,,,,switch,letter,lettSwt,j,1.095,Hi,,,,,,1,,,,,,,,high,17,0,17,0,1,,,,,,,,,
295264,2022-09-22_21h38.25.671,vts_reward_expectancy,2022.2.4,MacIntel,62.5,Safari,1440,900,,,,,1,918,,,,,,,,,,,,,,,,,174,B,triangle,1,0,,,,,,,,,,,,,,,,repeat,letter,lettRpt,j,0.544,Hi,,,,,,1,,,,,,,,high,18,0,18,0,1,,,,,,,,,
295264,2022-09-22_21h38.25.671,vts_reward_expectancy,2022.2.4,MacIntel,62.5,Safari,1440,900,,,,,1,919,,,,,,,,,,,,,,,,,125,D,circle,1,0,,,,,,,,,,,,,,,,repeat,letter,lettRpt,j,0.594,Lo,,,,,,1,,,,,,,,high,19,0,19,0,1,,,,,,,,,
295264,2022-09-22_21h38.25.671,vts_reward_expectancy,2022.2.4,MacIntel,62.5,Safari,1440,900,,,,,0,919,,,,,,,,,,,,,,,,,181,S,triangle,1,0,,,,,,,,,,,,,,,,switch,number,numSwt,f,0.61,Hi,,,,,,1,,,,,,,,high,20,0,20,0,1,,,,,,,,,
295264,2022-09-22_21h38.25.671,vts_reward_expectancy,2022.2.4,MacIntel,62.5,Safari,1440,900,,,,,10,929,,,,,,,,,,,,,,,,,139,H,circle,1,0,,,,,,,,,,,,,,,,repeat,number,numRpt,d,0.361,Lo,,,,,,1,,,,,,,,high,21,0,21,0,1,,,,,,,,,
295264,2022-09-22_21h38.25.671,vts_reward_expectancy,2022.2.4,MacIntel,62.5,Safari,1440,900,,,,,0,929,,,,,,,,,,,,,,,,,146,U,triangle,1,0,,,,,,,,,,,,,,,,repeat,number,numRpt,d,0.76,Hi,,,,,,1,,,,,,,,high,22,0,22,0,1,,,,,,,,,
295264,2022-09-22_21h38.25.671,vts_reward_expectancy,2022.2.4,MacIntel,62.5,Safari,1440,900,,,,,1,930,,,,,,,,,,,,,,,,,160,W,circle,1,0,,,,,,,,,,,,,,,,repeat,number,numRpt,f,0.479,Lo,,,,,,1,,,,,,,,high,23,0,23,0,1,,,,,,,,,
295264,2022-09-22_21h38.25.671,vts_reward_expectancy,2022.2.4,MacIntel,62.5,Safari,1440,900,,,,,10,940,,,,,,,,,,,,,,,,,125,F,triangle,1,0,,,,,,,,,,,,,,,,repeat,number,numRpt,d,0.446,Hi,,,,,,1,,,,,,,,high,24,0,24,0,1,,,,,,,,,
295264,2022-09-22_21h38.25.671,vts_reward_expectancy,2022.2.4,MacIntel,62.5,Safari,1440,900,,,,,1,941,,,,,,,,,,,,,,,,,132,Y,circle,1,0,,,,,,,,,,,,,,,,switch,letter,lettSwt,k,0.46,Lo,,,,,,1,,,,,,,,high,25,0,25,0,1,,,,,,,,,
295264,2022-09-22_21h38.25.671,vts_reward_expectancy,2022.2.4,MacIntel,62.5,Safari,1440,900,,,,,10,951,,,,,,,,,,,,,,,,,181,S,triangle,1,0,,,,,,,,,,,,,,,,switch,number,numSwt,f,0.579,Hi,,,,,,1,,,,,,,,high,26,0,26,0,1,,,,,,,,,
295264,2022-09-22_21h38.25.671,vts_reward_expectancy,2022.2.4,MacIntel,62.5,Safari,1440,900,,,,,1,952,,,,,,,,,,,,,,,,,167,U,circle,1,0,,,,,,,,,,,,,,,,repeat,number,numRpt,f,0.695,Lo,,,,,,1,,,,,,,,high,27,0,27,0,1,,,,,,,,,
295264,2022-09-22_21h38.25.671,vts_reward_expectancy,2022.2.4,MacIntel,62.5,Safari,1440,900,,,,,1,953,,,,,,,,,,,,,,,,,174,W,triangle,1,0,,,,,,,,,,,,,,,,repeat,number,numRpt,f,0.577,Hi,,,,,,1,,,,,,,,high,28,0,28,0,1,,,,,,,,,
295264,2022-09-22_21h38.25.671,vts_reward_expectancy,2022.2.4,MacIntel,62.5,Safari,1440,900,,,,,1,954,,,,,,,,,,,,,,,,,146,H,circle,1,0,,,,,,,,,,,,,,,,switch,letter,lettSwt,j,0.696,Lo,,,,,,1,,,,,,,,high,29,0,29,0,1,,,,,,,,,
295264,2022-09-22_21h38.25.671,vts_reward_expectancy,2022.2.4,MacIntel,62.5,Safari,1440,900,,,,,0,954,,,,,,,,,,,,,,,,,139,B,triangle,1,0,,,,,,,,,,,,,,,,switch,number,numSwt,d,0.629,Hi,,,,,,1,,,,,,,,high,30,0,30,0,1,,,,,,,,,
295264,2022-09-22_21h38.25.671,vts_reward_expectancy,2022.2.4,MacIntel,62.5,Safari,1440,900,,,,,10,964,,,,,,,,,,,,,,,,,160,D,circle,1,0,,,,,,,,,,,,,,,,repeat,number,numRpt,f,0.544,Lo,,,,,,1,,,,,,,,high,31,0,31,0,1,,,,,,,,,
295264,2022-09-22_21h38.25.671,vts_reward_expectancy,2022.2.4,MacIntel,62.5,Safari,1440,900,,,,,0,964,,,,,,,,,,,,,,,,,132,D,triangle,1,0,,,,,,,,,,,,,,,,repeat,number,numRpt,d,0.55,Hi,,,,,,2,,,,,,space,1.63,high,0,0,0,0,1,,,,,,,,,
295264,2022-09-22_21h38.25.671,vts_reward_expectancy,2022.2.4,MacIntel,62.5,Safari,1440,900,,,,,10,974,,,,,,,,,,,,,,,,,125,H,circle,1,0,,,,,,,,,,,,,,,,repeat,number,numRpt,d,0.527,Lo,,,,,,2,,,,,,,,high,1,0,1,0,1,,,,,,,,,
295264,2022-09-22_21h38.25.671,vts_reward_expectancy,2022.2.4,MacIntel,62.5,Safari,1440,900,,,,,0,974,,,,,,,,,,,,,,,,,174,W,triangle,1,0,,,,,,,,,,,,,,,,switch,letter,lettSwt,k,0.496,Hi,,,,,,2,,,,,,,,high,2,0,2,0,1,,,,,,,,,
295264,2022-09-22_21h38.25.671,vts_reward_expectancy,2022.2.4,MacIntel,62.5,Safari,1440,900,,,,,1,975,,,,,,,,,,,,,,,,,160,B,circle,1,0,,,,,,,,,,,,,,,,repeat,letter,lettRpt,j,0.606,Lo,,,,,,2,,,,,,,,high,3,0,3,0,1,,,,,,,,,
295264,2022-09-22_21h38.25.671,vts_reward_expectancy,2022.2.4,MacIntel,62.5,Safari,1440,900,,,,,10,985,,,,,,,,,,,,,,,,,139,Y,triangle,1,0,,,,,,,,,,,,,,,,repeat,letter,lettRpt,k,0.527,Hi,,,,,,2,,,,,,,,high,4,0,4,0,1,,,,,,,,,
295264,2022-09-22_21h38.25.671,vts_reward_expectancy,2022.2.4,MacIntel,62.5,Safari,1440,900,,,,,10,995,,,,,,,,,,,,,,,,,146,U,circle,1,0,,,,,,,,,,,,,,,,switch,number,numSwt,d,0.91,Lo,,,,,,2,,,,,,,,high,5,0,5,0,1,,,,,,,,,
295264,2022-09-22_21h38.25.671,vts_reward_expectancy,2022.2.4,MacIntel,62.5,Safari,1440,900,,,,,0,995,,,,,,,,,,,,,,,,,167,F,triangle,1,0,,,,,,,,,,,,,,,,repeat,number,numRpt,f,0.596,Hi,,,,,,2,,,,,,,,high,6,0,6,0,1,,,,,,,,,
295264,2022-09-22_21h38.25.671,vts_reward_expectancy,2022.2.4,MacIntel,62.5,Safari,1440,900,,,,,10,1005,,,,,,,,,,,,,,,,,181,S,circle,1,0,,,,,,,,,,,,,,,,repeat,number,numRpt,f,1.027,Lo,,,,,,2,,,,,,,,high,7,0,7,0,1,,,,,,,,,
295264,2022-09-22_21h38.25.671,vts_reward_expectancy,2022.2.4,MacIntel,62.5,Safari,1440,900,,,,,0,1005,,,,,,,,,,,,,,,,,132,D,triangle,1,0,,,,,,,,,,,,,,,,switch,letter,lettSwt,j,0.628,Hi,,,,,,2,,,,,,,,high,8,0,8,0,1,,,,,,,,,
295264,2022-09-22_21h38.25.671,vts_reward_expectancy,2022.2.4,MacIntel,62.5,Safari,1440,900,,,,,1,1006,,,,,,,,,,,,,,,,,125,H,circle,1,0,,,,,,,,,,,,,,,,repeat,letter,lettRpt,j,0.828,Lo,,,,,,2,,,,,,,,high,9,0,9,0,1,,,,,,,,,
295264,2022-09-22_21h38.25.671,vts_reward_expectancy,2022.2.4,MacIntel,62.5,Safari,1440,900,,,,,10,1016,,,,,,,,,,,,,,,,,174,W,triangle,1,0,,,,,,,,,,,,,,,,switch,number,numSwt,f,0.562,Hi,,,,,,2,,,,,,,,high,10,0,10,0,1,,,,,,,,,
295264,2022-09-22_21h38.25.671,vts_reward_expectancy,2022.2.4,MacIntel,62.5,Safari,1440,900,,,,,1,1017,,,,,,,,,,,,,,,,,160,B,circle,1,0,,,,,,,,,,,,,,,,repeat,number,numRpt,f,0.528,Lo,,,,,,2,,,,,,,,high,11,0,11,0,1,,,,,,,,,
295264,2022-09-22_21h38.25.671,vts_reward_expectancy,2022.2.4,MacIntel,62.5,Safari,1440,900,,,,,10,1027,,,,,,,,,,,,,,,,,139,Y,circle,1,0,,,,,,,,,,,,,,,,switch,letter,lettSwt,k,0.544,Lo,,,,,,2,,,,,,,,high,12,0,12,0,1,,,,,,,,,
295264,2022-09-22_21h38.25.671,vts_reward_expectancy,2022.2.4,MacIntel,62.5,Safari,1440,900,,,,,0,1027,,,,,,,,,,,,,,,,,146,U,triangle,1,0,,,,,,,,,,,,,,,,repeat,letter,lettRpt,k,0.611,Hi,,,,,,2,,,,,,,,high,13,0,13,0,1,,,,,,,,,
295264,2022-09-22_21h38.25.671,vts_reward_expectancy,2022.2.4,MacIntel,62.5,Safari,1440,900,,,,,10,1037,,,,,,,,,,,,,,,,,167,F,circle,1,0,,,,,,,,,,,,,,,,switch,number,numSwt,f,0.528,Lo,,,,,,2,,,,,,,,high,14,0,14,0,1,,,,,,,,,
295264,2022-09-22_21h38.25.671,vts_reward_expectancy,2022.2.4,MacIntel,62.5,Safari,1440,900,,,,,0,1037,,,,,,,,,,,,,,,,,181,S,triangle,1,0,,,,,,,,,,,,,,,,repeat,number,numRpt,f,0.51,Hi,,,,,,2,,,,,,,,high,15,0,15,0,1,,,,,,,,,
295264,2022-09-22_21h38.25.671,vts_reward_expectancy,2022.2.4,MacIntel,62.5,Safari,1440,900,,,,,10,1047,,,,,,,,,,,,,,,,,125,Y,triangle,1,0,,,,,,,,,,,,,,,,switch,letter,lettSwt,k,0.477,Hi,,,,,,2,,,,,,,,high,16,0,16,0,1,,,,,,,,,
295264,2022-09-22_21h38.25.671,vts_reward_expectancy,2022.2.4,MacIntel,62.5,Safari,1440,900,,,,,1,1048,,,,,,,,,,,,,,,,,174,B,circle,1,0,,,,,,,,,,,,,,,,switch,number,numSwt,f,0.527,Lo,,,,,,2,,,,,,,,high,17,0,17,0,1,,,,,,,,,
295264,2022-09-22_21h38.25.671,vts_reward_expectancy,2022.2.4,MacIntel,62.5,Safari,1440,900,,,,,10,1058,,,,,,,,,,,,,,,,,139,W,circle,1,0,,,,,,,,,,,,,,,,switch,letter,lettSwt,k,0.525,Lo,,,,,,2,,,,,,,,high,18,0,18,0,1,,,,,,,,,
295264,2022-09-22_21h38.25.671,vts_reward_expectancy,2022.2.4,MacIntel,62.5,Safari,1440,900,,,,,0,1058,,,,,,,,,,,,,,,,,160,S,triangle,1,0,,,,,,,,,,,,,,,,switch,number,numSwt,f,1.229,Hi,,,,,,2,,,,,,,,high,19,0,19,0,1,,,,,,,,,
295264,2022-09-22_21h38.25.671,vts_reward_expectancy,2022.2.4,MacIntel,62.5,Safari,1440,900,,,,,10,1068,,,,,,,,,,,,,,,,,132,F,circle,1,0,,,,,,,,,,,,,,,,repeat,number,numRpt,d,0.542,Lo,,,,,,2,,,,,,,,high,20,0,20,0,1,,,,,,,,,
295264,2022-09-22_21h38.25.671,vts_reward_expectancy,2022.2.4,MacIntel,62.5,Safari,1440,900,,,,,0,1068,,,,,,,,,,,,,,,,,146,H,triangle,1,0,,,,,,,,,,,,,,,,switch,letter,lettSwt,j,0.662,Hi,,,,,,2,,,,,,,,high,21,0,21,0,1,,,,,,,,,
295264,2022-09-22_21h38.25.671,vts_reward_expectancy,2022.2.4,MacIntel,62.5,Safari,1440,900,,,,,1,1069,,,,,,,,,,,,,,,,,167,D,circle,1,0,,,,,,,,,,,,,,,,switch,number,numSwt,f,0.592,Lo,,,,,,2,,,,,,,,high,22,0,22,0,1,,,,,,,,,
295264,2022-09-22_21h38.25.671,vts_reward_expectancy,2022.2.4,MacIntel,62.5,Safari,1440,900,,,,,0,1069,,,,,,,,,,,,,,,,,181,U,triangle,1,0,,,,,,,,,,,,,,,,switch,letter,lettSwt,k,0.545,Hi,,,,,,2,,,,,,,,high,23,0,23,0,1,,,,,,,,,
295264,2022-09-22_21h38.25.671,vts_reward_expectancy,2022.2.4,MacIntel,62.5,Safari,1440,900,,,,,1,1070,,,,,,,,,,,,,,,,,132,U,circle,1,0,,,,,,,,,,,,,,,,repeat,letter,lettRpt,k,0.535,Lo,,,,,,2,,,,,,,,high,24,0,24,0,1,,,,,,,,,
295264,2022-09-22_21h38.25.671,vts_reward_expectancy,2022.2.4,MacIntel,62.5,Safari,1440,900,,,,,0,1070,,,,,,,,,,,,,,,,,181,H,triangle,1,0,,,,,,,,,,,,,,,,switch,number,numSwt,f,0.695,Hi,,,,,,2,,,,,,,,high,25,0,25,0,1,,,,,,,,,
295264,2022-09-22_21h38.25.671,vts_reward_expectancy,2022.2.4,MacIntel,62.5,Safari,1440,900,,,,,1,1071,,,,,,,,,,,,,,,,,139,F,circle,1,0,,,,,,,,,,,,,,,,repeat,number,numRpt,d,0.559,Lo,,,,,,2,,,,,,,,high,26,0,26,0,1,,,,,,,,,
295264,2022-09-22_21h38.25.671,vts_reward_expectancy,2022.2.4,MacIntel,62.5,Safari,1440,900,,,,,10,1081,,,,,,,,,,,,,,,,,160,B,triangle,1,0,,,,,,,,,,,,,,,,switch,letter,lettSwt,j,0.445,Hi,,,,,,2,,,,,,,,high,27,0,27,0,1,,,,,,,,,
295264,2022-09-22_21h38.25.671,vts_reward_expectancy,2022.2.4,MacIntel,62.5,Safari,1440,900,,,,,0,1081,,,,,,,,,,,,,,,,,174,D,triangle,1,0,,,,,,,,,,,,,,,,repeat,letter,lettRpt,j,0.765,Hi,,,,,,2,,,,,,,,high,28,0,28,0,1,,,,,,,,,
295264,2022-09-22_21h38.25.671,vts_reward_expectancy,2022.2.4,MacIntel,62.5,Safari,1440,900,,,,,10,1091,,,,,,,,,,,,,,,,,167,Y,circle,1,0,,,,,,,,,,,,,,,,repeat,letter,lettRpt,k,0.462,Lo,,,,,,2,,,,,,,,high,29,0,29,0,1,,,,,,,,,
295264,2022-09-22_21h38.25.671,vts_reward_expectancy,2022.2.4,MacIntel,62.5,Safari,1440,900,,,,,1,1092,,,,,,,,,,,,,,,,,146,W,circle,1,0,,,,,,,,,,,,,,,,switch,number,numSwt,d,0.527,Lo,,,,,,2,,,,,,,,high,30,0,30,0,1,,,,,,,,,
295264,2022-09-22_21h38.25.671,vts_reward_expectancy,2022.2.4,MacIntel,62.5,Safari,1440,900,,,,,0,1092,,,,,,,,,,,,,,,,,125,S,triangle,1,0,,,,,,,,,,,,,,,,repeat,number,numRpt,d,1.376,Hi,,,,,,2,,,,,,,,high,31,0,31,0,1,,,,,,,,,
295264,2022-09-22_21h38.25.671,vts_reward_expectancy,2022.2.4,MacIntel,62.5,Safari,1440,900,,,,,1,1093,,,,,,,,,,,,,,,,,167,F,circle,1,0,,,,,,,,,,,,,,,,repeat,number,numRpt,f,1.062,Lo,,,,,,3,,,,,,space,0.913,high,0,0,0,0,1,,,,,,,,,
295264,2022-09-22_21h38.25.671,vts_reward_expectancy,2022.2.4,MacIntel,62.5,Safari,1440,900,,,,,0,1093,,,,,,,,,,,,,,,,,132,W,triangle,1,0,,,,,,,,,,,,,,,,switch,letter,lettSwt,k,0.612,Hi,,,,,,3,,,,,,,,high,1,0,1,0,1,,,,,,,,,
295264,2022-09-22_21h38.25.671,vts_reward_expectancy,2022.2.4,MacIntel,62.5,Safari,1440,900,,,,,1,1094,,,,,,,,,,,,,,,,,174,B,circle,1,0,,,,,,,,,,,,,,,,repeat,letter,lettRpt,j,0.45,Lo,,,,,,3,,,,,,,,high,2,0,2,0,1,,,,,,,,,
295264,2022-09-22_21h38.25.671,vts_reward_expectancy,2022.2.4,MacIntel,62.5,Safari,1440,900,,,,,1,1095,,,,,,,,,,,,,,,,,139,H,triangle,1,0,,,,,,,,,,,,,,,,switch,number,numSwt,d,0.527,Hi,,,,,,3,,,,,,,,high,3,0,3,0,1,,,,,,,,,
295264,2022-09-22_21h38.25.671,vts_reward_expectancy,2022.2.4,MacIntel,62.5,Safari,1440,900,,,,,1,1096,,,,,,,,,,,,,,,,,181,S,circle,1,0,,,,,,,,,,,,,,,,repeat,number,numRpt,f,0.984,Lo,,,,,,3,,,,,,,,high,4,0,4,0,1,,,,,,,,,
295264,2022-09-22_21h38.25.671,vts_reward_expectancy,2022.2.4,MacIntel,62.5,Safari,1440,900,,,,,0,1096,,,,,,,,,,,,,,,,,160,D,triangle,1,0,,,,,,,,,,,,,,,,switch,letter,lettSwt,j,0.544,Hi,,,,,,3,,,,,,,,high,5,0,5,0,1,,,,,,,,,
295264,2022-09-22_21h38.25.671,vts_reward_expectancy,2022.2.4,MacIntel,62.5,Safari,1440,900,,,,,0,1096,,,,,,,,,,,,,,,,,146,Y,triangle,1,0,,,,,,,,,,,,,,,,repeat,letter,lettRpt,k,0.594,Hi,,,,,,3,,,,,,,,high,6,0,6,0,1,,,,,,,,,
295264,2022-09-22_21h38.25.671,vts_reward_expectancy,2022.2.4,MacIntel,62.5,Safari,1440,900,,,,,1,1097,,,,,,,,,,,,,,,,,125,U,circle,1,0,,,,,,,,,,,,,,,,repeat,letter,lettRpt,k,0.593,Lo,,,,,,3,,,,,,,,high,7,0,7,0,1,,,,,,,,,
295264,2022-09-22_21h38.25.671,vts_reward_expectancy,2022.2.4,MacIntel,62.5,Safari,1440,900,,,,,1,1098,,,,,,,,,,,,,,,,,167,F,circle,1,0,,,,,,,,,,,,,,,,switch,number,numSwt,f,0.594,Lo,,,,,,3,,,,,,,,high,8,0,8,0,1,,,,,,,,,
295264,2022-09-22_21h38.25.671,vts_reward_expectancy,2022.2.4,MacIntel,62.5,Safari,1440,900,,,,,10,1108,,,,,,,,,,,,,,,,,132,W,triangle,1,0,,,,,,,,,,,,,,,,repeat,number,numRpt,d,0.395,Hi,,,,,,3,,,,,,,,high,9,0,9,0,1,,,,,,,,,
295264,2022-09-22_21h38.25.671,vts_reward_expectancy,2022.2.4,MacIntel,62.5,Safari,1440,900,,,,,10,1118,,,,,,,,,,,,,,,,,174,B,circle,1,0,,,,,,,,,,,,,,,,repeat,number,numRpt,f,0.576,Lo,,,,,,3,,,,,,,,high,10,0,10,0,1,,,,,,,,,
295264,2022-09-22_21h38.25.671,vts_reward_expectancy,2022.2.4,MacIntel,62.5,Safari,1440,900,,,,,1,1119,,,,,,,,,,,,,,,,,139,H,triangle,1,0,,,,,,,,,,,,,,,,repeat,number,numRpt,d,0.445,Hi,,,,,,3,,,,,,,,high,11,0,11,0,1,,,,,,,,,
295264,2022-09-22_21h38.25.671,vts_reward_expectancy,2022.2.4,MacIntel,62.5,Safari,1440,900,,,,,1,1120,,,,,,,,,,,,,,,,,181,S,circle,1,0,,,,,,,,,,,,,,,,switch,letter,lettSwt,k,0.742,Lo,,,,,,3,,,,,,,,high,12,0,12,0,1,,,,,,,,,
295264,2022-09-22_21h38.25.671,vts_reward_expectancy,2022.2.4,MacIntel,62.5,Safari,1440,900,,,,,0,1120,,,,,,,,,,,,,,,,,160,D,triangle,1,0,,,,,,,,,,,,,,,,switch,number,numSwt,f,0.628,Hi,,,,,,3,,,,,,,,high,13,0,13,0,1,,,,,,,,,
295264,2022-09-22_21h38.25.671,vts_reward_expectancy,2022.2.4,MacIntel,62.5,Safari,1440,900,,,,,0,1120,,,,,,,,,,,,,,,,,146,Y,triangle,1,0,,,,,,,,,,,,,,,,switch,letter,lettSwt,k,0.578,Hi,,,,,,3,,,,,,,,high,14,0,14,0,1,,,,,,,,,
295264,2022-09-22_21h38.25.671,vts_reward_expectancy,2022.2.4,MacIntel,62.5,Safari,1440,900,,,,,1,1121,,,,,,,,,,,,,,,,,125,U,circle,1,0,,,,,,,,,,,,,,,,repeat,letter,lettRpt,k,0.495,Lo,,,,,,3,,,,,,,,high,15,0,15,0,1,,,,,,,,,
295264,2022-09-22_21h38.25.671,vts_reward_expectancy,2022.2.4,MacIntel,62.5,Safari,1440,900,,,,,1,1122,,,,,,,,,,,,,,,,,174,D,triangle,1,0,,,,,,,,,,,,,,,,repeat,letter,lettRpt,j,0.445,Hi,,,,,,3,,,,,,,,high,16,0,16,0,1,,,,,,,,,
295264,2022-09-22_21h38.25.671,vts_reward_expectancy,2022.2.4,MacIntel,62.5,Safari,1440,900,,,,,1,1123,,,,,,,,,,,,,,,,,132,Y,circle,1,0,,,,,,,,,,,,,,,,switch,number,numSwt,d,0.828,Lo,,,,,,3,,,,,,,,high,17,0,17,0,1,,,,,,,,,
295264,2022-09-22_21h38.25.671,vts_reward_expectancy,2022.2.4,MacIntel,62.5,Safari,1440,900,,,,,10,1133,,,,,,,,,,,,,,,,,160,U,triangle,1,0,,,,,,,,,,,,,,,,repeat,number,numRpt,f,0.444,Hi,,,,,,3,,,,,,,,high,18,0,18,0,1,,,,,,,,,
295264,2022-09-22_21h38.25.671,vts_reward_expectancy,2022.2.4,MacIntel,62.5,Safari,1440,900,,,,,1,1134,,,,,,,,,,,,,,,,,181,H,circle,1,0,,,,,,,,,,,,,,,,repeat,number,numRpt,f,0.478,Lo,,,,,,3,,,,,,,,high,19,0,19,0,1,,,,,,,,,
295264,2022-09-22_21h38.25.671,vts_reward_expectancy,2022.2.4,MacIntel,62.5,Safari,1440,900,,,,,1,1135,,,,,,,,,,,,,,,,,125,S,circle,1,0,,,,,,,,,,,,,,,,repeat,number,numRpt,d,0.396,Lo,,,,,,3,,,,,,,,high,20,0,20,0,1,,,,,,,,,
295264,2022-09-22_21h38.25.671,vts_reward_expectancy,2022.2.4,MacIntel,62.5,Safari,1440,900,,,,,0,1135,,,,,,,,,,,,,,,,,146,W,triangle,1,0,,,,,,,,,,,,,,,,repeat,number,numRpt,d,0.912,Hi,,,,,,3,,,,,,,,high,21,0,21,0,1,,,,,,,,,
295264,2022-09-22_21h38.25.671,vts_reward_expectancy,2022.2.4,MacIntel,62.5,Safari,1440,900,,,,,1,1136,,,,,,,,,,,,,,,,,167,F,circle,1,0,,,,,,,,,,,,,,,,switch,letter,lettSwt,j,0.808,Lo,,,,,,3,,,,,,,,high,22,0,22,0,1,,,,,,,,,
295264,2022-09-22_21h38.25.671,vts_reward_expectancy,2022.2.4,MacIntel,62.5,Safari,1440,900,,,,,0,1136,,,,,,,,,,,,,,,,,139,B,triangle,1,0,,,,,,,,,,,,,,,,switch,number,numSwt,d,0.614,Hi,,,,,,3,,,,,,,,high,23,0,23,0,1,,,,,,,,,
295264,2022-09-22_21h38.25.671,vts_reward_expectancy,2022.2.4,MacIntel,62.5,Safari,1440,900,,,,,1,1137,,,,,,,,,,,,,,,,,132,S,circle,1,0,,,,,,,,,,,,,,,,switch,letter,lettSwt,k,0.641,Lo,,,,,,3,,,,,,,,high,24,0,24,0,1,,,,,,,,,
295264,2022-09-22_21h38.25.671,vts_reward_expectancy,2022.2.4,MacIntel,62.5,Safari,1440,900,,,,,10,1147,,,,,,,,,,,,,,,,,146,Y,triangle,1,0,,,,,,,,,,,,,,,,repeat,letter,lettRpt,k,0.477,Hi,,,,,,3,,,,,,,,high,25,0,25,0,1,,,,,,,,,
295264,2022-09-22_21h38.25.671,vts_reward_expectancy,2022.2.4,MacIntel,62.5,Safari,1440,900,,,,,1,1148,,,,,,,,,,,,,,,,,181,W,circle,1,0,,,,,,,,,,,,,,,,switch,number,numSwt,f,0.56,Lo,,,,,,3,,,,,,,,high,26,0,26,0,1,,,,,,,,,
295264,2022-09-22_21h38.25.671,vts_reward_expectancy,2022.2.4,MacIntel,62.5,Safari,1440,900,,,,,0,1148,,,,,,,,,,,,,,,,,174,U,triangle,1,0,,,,,,,,,,,,,,,,switch,letter,lettSwt,k,0.558,Hi,,,,,,3,,,,,,,,high,27,0,27,0,1,,,,,,,,,
295264,2022-09-22_21h38.25.671,vts_reward_expectancy,2022.2.4,MacIntel,62.5,Safari,1440,900,,,,,1,1149,,,,,,,,,,,,,,,,,139,D,circle,1,0,,,,,,,,,,,,,,,,switch,number,numSwt,d,0.561,Lo,,,,,,3,,,,,,,,high,28,0,28,0,1,,,,,,,,,
295264,2022-09-22_21h38.25.671,vts_reward_expectancy,2022.2.4,MacIntel,62.5,Safari,1440,900,,,,,0,1149,,,,,,,,,,,,,,,,,167,F,triangle,1,0,,,,,,,,,,,,,,,,repeat,number,numRpt,f,0.561,Hi,,,,,,3,,,,,,,,high,29,0,29,0,1,,,,,,,,,
295264,2022-09-22_21h38.25.671,vts_reward_expectancy,2022.2.4,MacIntel,62.5,Safari,1440,900,,,,,10,1159,,,,,,,,,,,,,,,,,125,B,circle,1,0,,,,,,,,,,,,,,,,repeat,number,numRpt,d,0.81,Lo,,,,,,3,,,,,,,,high,30,0,30,0,1,,,,,,,,,
295264,2022-09-22_21h38.25.671,vts_reward_expectancy,2022.2.4,MacIntel,62.5,Safari,1440,900,,,,,0,1159,,,,,,,,,,,,,,,,,160,H,triangle,1,0,,,,,,,,,,,,,,,,repeat,number,numRpt,f,1.377,Hi,,,,,,3,,,,,,,,high,31,0,31,0,1,,,,,,,,,
295264,2022-09-22_21h38.25.671,vts_reward_expectancy,2022.2.4,MacIntel,62.5,Safari,1440,900,,,,,0,1159,,,,,,,,,,,,,,,,,167,W,hexagon,1,0,,,,,,,,,,,,,,,,switch,letter,lettSwt,k,0.778,Hi,,,,,,4,,,,,,space,0.914,low,0,0,0,0,1,,,,,,,,,
295264,2022-09-22_21h38.25.671,vts_reward_expectancy,2022.2.4,MacIntel,62.5,Safari,1440,900,,,,,10,1169,,,,,,,,,,,,,,,,,139,S,star,1,0,,,,,,,,,,,,,,,,switch,number,numSwt,d,1.111,Lo,,,,,,4,,,,,,,,low,1,0,1,0,1,,,,,,,,,
295264,2022-09-22_21h38.25.671,vts_reward_expectancy,2022.2.4,MacIntel,62.5,Safari,1440,900,,,,,10,1179,,,,,,,,,,,,,,,,,174,Y,hexagon,1,0,,,,,,,,,,,,,,,,switch,letter,lettSwt,k,0.494,Hi,,,,,,4,,,,,,,,low,2,0,2,0,1,,,,,,,,,
295264,2022-09-22_21h38.25.671,vts_reward_expectancy,2022.2.4,MacIntel,62.5,Safari,1440,900,,,,,1,1180,,,,,,,,,,,,,,,,,181,D,star,1,0,,,,,,,,,,,,,,,,switch,number,numSwt,f,0.542,Lo,,,,,,4,,,,,,,,low,3,0,3,0,1,,,,,,,,,
295264,2022-09-22_21h38.25.671,vts_reward_expectancy,2022.2.4,MacIntel,62.5,Safari,1440,900,,,,,1,1181,,,,,,,,,,,,,,,,,160,U,star,1,0,,,,,,,,,,,,,,,,repeat,number,numRpt,f,0.762,Lo,,,,,,4,,,,,,,,low,4,0,4,0,1,,,,,,,,,
295264,2022-09-22_21h38.25.671,vts_reward_expectancy,2022.2.4,MacIntel,62.5,Safari,1440,900,,,,,0,1181,,,,,,,,,,,,,,,,,132,B,hexagon,1,0,,,,,,,,,,,,,,,,repeat,number,numRpt,d,0.613,Hi,,,,,,4,,,,,,,,low,5,0,5,0,1,,,,,,,,,
295264,2022-09-22_21h38.25.671,vts_reward_expectancy,2022.2.4,MacIntel,62.5,Safari,1440,900,,,,,0,1181,,,,,,,,,,,,,,,,,146,F,hexagon,0,0,,,,,,,,,,,,,,,,repeat,number,NA,f,0.781,Hi,,,,,,4,,,,,,,,low,6,0,6,0,1,,,,,,,,,
295264,2022-09-22_21h38.25.671,vts_reward_expectancy,2022.2.4,MacIntel,62.5,Safari,1440,900,,,,,1,1182,,,,,,,,,,,,,,,,,125,H,star,1,1,,,,,,,,,,,,,,,,repeat,number,numRpt,d,1.346,Lo,,,,,,4,,,,,,,,low,7,0,7,0,1,,,,,,,,,
295264,2022-09-22_21h38.25.671,vts_reward_expectancy,2022.2.4,MacIntel,62.5,Safari,1440,900,,,,,1,1183,,,,,,,,,,,,,,,,,167,W,star,1,0,,,,,,,,,,,,,,,,repeat,number,numRpt,f,0.678,Lo,,,,,,4,,,,,,,,low,8,0,8,0,1,,,,,,,,,
295264,2022-09-22_21h38.25.671,vts_reward_expectancy,2022.2.4,MacIntel,62.5,Safari,1440,900,,,,,0,1183,,,,,,,,,,,,,,,,,139,S,hexagon,1,0,,,,,,,,,,,,,,,,switch,letter,lettSwt,k,0.645,Hi,,,,,,4,,,,,,,,low,9,0,9,0,1,,,,,,,,,
295264,2022-09-22_21h38.25.671,vts_reward_expectancy,2022.2.4,MacIntel,62.5,Safari,1440,900,,,,,1,1184,,,,,,,,,,,,,,,,,174,Y,star,1,0,,,,,,,,,,,,,,,,repeat,letter,lettRpt,k,0.794,Lo,,,,,,4,,,,,,,,low,10,0,10,0,1,,,,,,,,,
295264,2022-09-22_21h38.25.671,vts_reward_expectancy,2022.2.4,MacIntel,62.5,Safari,1440,900,,,,,0,1184,,,,,,,,,,,,,,,,,181,D,hexagon,1,0,,,,,,,,,,,,,,,,switch,number,numSwt,f,0.782,Hi,,,,,,4,,,,,,,,low,11,0,11,0,1,,,,,,,,,
295264,2022-09-22_21h38.25.671,vts_reward_expectancy,2022.2.4,MacIntel,62.5,Safari,1440,900,,,,,10,1194,,,,,,,,,,,,,,,,,160,U,star,1,0,,,,,,,,,,,,,,,,switch,letter,lettSwt,k,0.727,Lo,,,,,,4,,,,,,,,low,12,0,12,0,1,,,,,,,,,
295264,2022-09-22_21h38.25.671,vts_reward_expectancy,2022.2.4,MacIntel,62.5,Safari,1440,900,,,,,0,1194,,,,,,,,,,,,,,,,,132,B,hexagon,1,0,,,,,,,,,,,,,,,,repeat,letter,lettRpt,j,0.928,Hi,,,,,,4,,,,,,,,low,13,0,13,0,1,,,,,,,,,
295264,2022-09-22_21h38.25.671,vts_reward_expectancy,2022.2.4,MacIntel,62.5,Safari,1440,900,,,,,10,1204,,,,,,,,,,,,,,,,,146,F,star,1,0,,,,,,,,,,,,,,,,repeat,letter,lettRpt,j,0.881,Lo,,,,,,4,,,,,,,,low,14,0,14,0,1,,,,,,,,,
295264,2022-09-22_21h38.25.671,vts_reward_expectancy,2022.2.4,MacIntel,62.5,Safari,1440,900,,,,,10,1214,,,,,,,,,,,,,,,,,125,H,hexagon,1,0,,,,,,,,,,,,,,,,switch,number,numSwt,d,0.513,Hi,,,,,,4,,,,,,,,low,15,0,15,0,1,,,,,,,,,
295264,2022-09-22_21h38.25.671,vts_reward_expectancy,2022.2.4,MacIntel,62.5,Safari,1440,900,,,,,10,1224,,,,,,,,,,,,,,,,,160,Y,star,1,0,,,,,,,,,,,,,,,,switch,letter,lettSwt,k,0.545,Lo,,,,,,4,,,,,,,,low,16,0,16,0,1,,,,,,,,,
295264,2022-09-22_21h38.25.671,vts_reward_expectancy,2022.2.4,MacIntel,62.5,Safari,1440,900,,,,,0,1224,,,,,,,,,,,,,,,,,139,W,hexagon,1,0,,,,,,,,,,,,,,,,repeat,letter,lettRpt,k,0.576,Hi,,,,,,4,,,,,,,,low,17,0,17,0,1,,,,,,,,,
295264,2022-09-22_21h38.25.671,vts_reward_expectancy,2022.2.4,MacIntel,62.5,Safari,1440,900,,,,,0,1224,,,,,,,,,,,,,,,,,125,D,hexagon,1,0,,,,,,,,,,,,,,,,repeat,letter,lettRpt,j,1.795,Hi,,,,,,4,,,,,,,,low,18,0,18,0,1,,,,,,,,,
295264,2022-09-22_21h38.25.671,vts_reward_expectancy,2022.2.4,MacIntel,62.5,Safari,1440,900,,,,,1,1225,,,,,,,,,,,,,,,,,174,H,star,1,0,,,,,,,,,,,,,,,,switch,number,numSwt,f,0.844,Lo,,,,,,4,,,,,,,,low,19,0,19,0,1,,,,,,,,,
295264,2022-09-22_21h38.25.671,vts_reward_expectancy,2022.2.4,MacIntel,62.5,Safari,1440,900,,,,,0,1225,,,,,,,,,,,,,,,,,146,F,star,0,0,,,,,,,,,,,,,,,,switch,letter,NA,k,0.495,Lo,,,,,,4,,,,,,,,low,20,0,20,0,1,,,,,,,,,
295264,2022-09-22_21h38.25.671,vts_reward_expectancy,2022.2.4,MacIntel,62.5,Safari,1440,900,,,,,0,1225,,,,,,,,,,,,,,,,,181,U,hexagon,1,1,,,,,,,,,,,,,,,,repeat,letter,lettRpt,k,0.469,Hi,,,,,,4,,,,,,,,low,21,0,21,0,1,,,,,,,,,
295264,2022-09-22_21h38.25.671,vts_reward_expectancy,2022.2.4,MacIntel,62.5,Safari,1440,900,,,,,0,1225,,,,,,,,,,,,,,,,,167,B,hexagon,1,0,,,,,,,,,,,,,,,,repeat,letter,lettRpt,j,0.677,Hi,,,,,,4,,,,,,,,low,22,0,22,0,1,,,,,,,,,
295264,2022-09-22_21h38.25.671,vts_reward_expectancy,2022.2.4,MacIntel,62.5,Safari,1440,900,,,,,1,1226,,,,,,,,,,,,,,,,,132,S,star,1,0,,,,,,,,,,,,,,,,switch,number,numSwt,d,0.462,Lo,,,,,,4,,,,,,,,low,23,0,23,0,1,,,,,,,,,
295264,2022-09-22_21h38.25.671,vts_reward_expectancy,2022.2.4,MacIntel,62.5,Safari,1440,900,,,,,10,1236,,,,,,,,,,,,,,,,,125,H,star,1,0,,,,,,,,,,,,,,,,repeat,number,numRpt,d,0.527,Lo,,,,,,4,,,,,,,,low,24,0,24,0,1,,,,,,,,,
295264,2022-09-22_21h38.25.671,vts_reward_expectancy,2022.2.4,MacIntel,62.5,Safari,1440,900,,,,,0,1236,,,,,,,,,,,,,,,,,132,S,hexagon,1,0,,,,,,,,,,,,,,,,repeat,number,numRpt,d,0.674,Hi,,,,,,4,,,,,,,,low,25,0,25,0,1,,,,,,,,,
295264,2022-09-22_21h38.25.671,vts_reward_expectancy,2022.2.4,MacIntel,62.5,Safari,1440,900,,,,,10,1246,,,,,,,,,,,,,,,,,160,W,hexagon,1,0,,,,,,,,,,,,,,,,repeat,number,numRpt,f,0.428,Hi,,,,,,4,,,,,,,,low,26,0,26,0,1,,,,,,,,,
295264,2022-09-22_21h38.25.671,vts_reward_expectancy,2022.2.4,MacIntel,62.5,Safari,1440,900,,,,,10,1256,,,,,,,,,,,,,,,,,167,F,star,1,0,,,,,,,,,,,,,,,,repeat,number,numRpt,f,0.643,Lo,,,,,,4,,,,,,,,low,27,0,27,0,1,,,,,,,,,
295264,2022-09-22_21h38.25.671,vts_reward_expectancy,2022.2.4,MacIntel,62.5,Safari,1440,900,,,,,1,1257,,,,,,,,,,,,,,,,,146,D,hexagon,1,0,,,,,,,,,,,,,,,,switch,letter,lettSwt,j,0.491,Hi,,,,,,4,,,,,,,,low,28,0,28,0,1,,,,,,,,,
295264,2022-09-22_21h38.25.671,vts_reward_expectancy,2022.2.4,MacIntel,62.5,Safari,1440,900,,,,,1,1258,,,,,,,,,,,,,,,,,181,U,star,1,0,,,,,,,,,,,,,,,,repeat,letter,lettRpt,k,0.516,Lo,,,,,,4,,,,,,,,low,29,0,29,0,1,,,,,,,,,
295264,2022-09-22_21h38.25.671,vts_reward_expectancy,2022.2.4,MacIntel,62.5,Safari,1440,900,,,,,10,1268,,,,,,,,,,,,,,,,,139,B,hexagon,1,0,,,,,,,,,,,,,,,,switch,number,numSwt,d,0.51,Hi,,,,,,4,,,,,,,,low,30,0,30,0,1,,,,,,,,,
295264,2022-09-22_21h38.25.671,vts_reward_expectancy,2022.2.4,MacIntel,62.5,Safari,1440,900,,,,,1,1269,,,,,,,,,,,,,,,,,174,Y,star,1,0,,,,,,,,,,,,,,,,repeat,number,numRpt,f,0.428,Lo,,,,,,4,,,,,,,,low,31,0,31,0,1,,,,,,,,,
295264,2022-09-22_21h38.25.671,vts_reward_expectancy,2022.2.4,MacIntel,62.5,Safari,1440,900,,,,,10,1279,,,,,,,,,,,,,,,,,160,S,hexagon,1,0,,,,,,,,,,,,,,,,repeat,number,numRpt,f,0.49,Hi,,,,,,5,,,,,,space,70.462,low,0,0,0,0,1,,,,,,,,,
295264,2022-09-22_21h38.25.671,vts_reward_expectancy,2022.2.4,MacIntel,62.5,Safari,1440,900,,,,,1,1280,,,,,,,,,,,,,,,,,146,B,star,1,0,,,,,,,,,,,,,,,,repeat,number,numRpt,d,0.663,Lo,,,,,,5,,,,,,,,low,1,0,1,0,1,,,,,,,,,
295264,2022-09-22_21h38.25.671,vts_reward_expectancy,2022.2.4,MacIntel,62.5,Safari,1440,900,,,,,0,1280,,,,,,,,,,,,,,,,,132,F,hexagon,1,0,,,,,,,,,,,,,,,,repeat,number,numRpt,d,0.597,Hi,,,,,,5,,,,,,,,low,2,0,2,0,1,,,,,,,,,
295264,2022-09-22_21h38.25.671,vts_reward_expectancy,2022.2.4,MacIntel,62.5,Safari,1440,900,,,,,1,1281,,,,,,,,,,,,,,,,,181,D,star,1,0,,,,,,,,,,,,,,,,switch,letter,lettSwt,j,0.764,Lo,,,,,,5,,,,,,,,low,3,0,3,0,1,,,,,,,,,
295264,2022-09-22_21h38.25.671,vts_reward_expectancy,2022.2.4,MacIntel,62.5,Safari,1440,900,,,,,0,1281,,,,,,,,,,,,,,,,,167,H,hexagon,0,0,,,,,,,,,,,,,,,,switch,number,NA,d,0.968,Lo,,,,,,5,,,,,,,,low,4,0,4,0,1,,,,,,,,,
295264,2022-09-22_21h38.25.671,vts_reward_expectancy,2022.2.4,MacIntel,62.5,Safari,1440,900,,,,,10,1291,,,,,,,,,,,,,,,,,174,W,star,1,1,,,,,,,,,,,,,,,,repeat,number,numRpt,f,0.73,Lo,,,,,,5,,,,,,,,low,5,0,5,0,1,,,,,,,,,
295264,2022-09-22_21h38.25.671,vts_reward_expectancy,2022.2.4,MacIntel,62.5,Safari,1440,900,,,,,0,1291,,,,,,,,,,,,,,,,,139,Y,hexagon,1,0,,,,,,,,,,,,,,,,repeat,number,numRpt,d,0.698,Hi,,,,,,5,,,,,,,,low,6,0,6,0,1,,,,,,,,,
295264,2022-09-22_21h38.25.671,vts_reward_expectancy,2022.2.4,MacIntel,62.5,Safari,1440,900,,,,,1,1292,,,,,,,,,,,,,,,,,125,U,star,1,0,,,,,,,,,,,,,,,,repeat,number,numRpt,d,0.48,Lo,,,,,,5,,,,,,,,low,7,0,7,0,1,,,,,,,,,
295264,2022-09-22_21h38.25.671,vts_reward_expectancy,2022.2.4,MacIntel,62.5,Safari,1440,900,,,,,1,1293,,,,,,,,,,,,,,,,,160,S,star,1,0,,,,,,,,,,,,,,,,switch,letter,lettSwt,k,0.742,Lo,,,,,,5,,,,,,,,low,8,0,8,0,1,,,,,,,,,
295264,2022-09-22_21h38.25.671,vts_reward_expectancy,2022.2.4,MacIntel,62.5,Safari,1440,900,,,,,0,1293,,,,,,,,,,,,,,,,,146,B,hexagon,1,0,,,,,,,,,,,,,,,,switch,number,numSwt,d,0.928,Hi,,,,,,5,,,,,,,,low,9,0,9,0,1,,,,,,,,,
295264,2022-09-22_21h38.25.671,vts_reward_expectancy,2022.2.4,MacIntel,62.5,Safari,1440,900,,,,,10,1303,,,,,,,,,,,,,,,,,132,F,star,1,0,,,,,,,,,,,,,,,,switch,letter,lettSwt,j,0.73,Lo,,,,,,5,,,,,,,,low,10,0,10,0,1,,,,,,,,,
295264,2022-09-22_21h38.25.671,vts_reward_expectancy,2022.2.4,MacIntel,62.5,Safari,1440,900,,,,,1,1304,,,,,,,,,,,,,,,,,181,D,hexagon,1,0,,,,,,,,,,,,,,,,switch,number,numSwt,f,0.508,Hi,,,,,,5,,,,,,,,low,11,0,11,0,1,,,,,,,,,
295264,2022-09-22_21h38.25.671,vts_reward_expectancy,2022.2.4,MacIntel,62.5,Safari,1440,900,,,,,10,1314,,,,,,,,,,,,,,,,,167,H,hexagon,1,0,,,,,,,,,,,,,,,,repeat,number,numRpt,f,0.489,Hi,,,,,,5,,,,,,,,low,12,0,12,0,1,,,,,,,,,
295264,2022-09-22_21h38.25.671,vts_reward_expectancy,2022.2.4,MacIntel,62.5,Safari,1440,900,,,,,1,1315,,,,,,,,,,,,,,,,,174,W,star,1,0,,,,,,,,,,,,,,,,switch,letter,lettSwt,k,0.461,Lo,,,,,,5,,,,,,,,low,13,0,13,0,1,,,,,,,,,
295264,2022-09-22_21h38.25.671,vts_reward_expectancy,2022.2.4,MacIntel,62.5,Safari,1440,900,,,,,10,1325,,,,,,,,,,,,,,,,,139,Y,hexagon,1,0,,,,,,,,,,,,,,,,repeat,letter,lettRpt,k,0.56,Hi,,,,,,5,,,,,,,,low,14,0,14,0,1,,,,,,,,,
295264,2022-09-22_21h38.25.671,vts_reward_expectancy,2022.2.4,MacIntel,62.5,Safari,1440,900,,,,,1,1326,,,,,,,,,,,,,,,,,125,U,star,1,0,,,,,,,,,,,,,,,,repeat,letter,lettRpt,k,0.608,Lo,,,,,,5,,,,,,,,low,15,0,15,0,1,,,,,,,,,
295264,2022-09-22_21h38.25.671,vts_reward_expectancy,2022.2.4,MacIntel,62.5,Safari,1440,900,,,,,0,1326,,,,,,,,,,,,,,,,,125,U,star,0,0,,,,,,,,,,,,,,,,repeat,letter,NA,j,0.623,Lo,,,,,,5,,,,,,,,low,16,0,16,0,1,,,,,,,,,
295264,2022-09-22_21h38.25.671,vts_reward_expectancy,2022.2.4,MacIntel,62.5,Safari,1440,900,,,,,0,1326,,,,,,,,,,,,,,,,,167,Y,hexagon,1,1,,,,,,,,,,,,,,,,switch,number,numSwt,f,0.834,Hi,,,,,,5,,,,,,,,low,17,0,17,0,1,,,,,,,,,
295264,2022-09-22_21h38.25.671,vts_reward_expectancy,2022.2.4,MacIntel,62.5,Safari,1440,900,,,,,1,1327,,,,,,,,,,,,,,,,,132,H,star,1,0,,,,,,,,,,,,,,,,repeat,number,numRpt,d,1.171,Lo,,,,,,5,,,,,,,,low,18,0,18,0,1,,,,,,,,,
295264,2022-09-22_21h38.25.671,vts_reward_expectancy,2022.2.4,MacIntel,62.5,Safari,1440,900,,,,,0,1327,,,,,,,,,,,,,,,,,139,D,hexagon,1,0,,,,,,,,,,,,,,,,repeat,number,numRpt,d,0.586,Hi,,,,,,5,,,,,,,,low,19,0,19,0,1,,,,,,,,,
295264,2022-09-22_21h38.25.671,vts_reward_expectancy,2022.2.4,MacIntel,62.5,Safari,1440,900,,,,,10,1337,,,,,,,,,,,,,,,,,181,F,star,1,0,,,,,,,,,,,,,,,,repeat,number,numRpt,f,1.098,Lo,,,,,,5,,,,,,,,low,20,0,20,0,1,,,,,,,,,
295264,2022-09-22_21h38.25.671,vts_reward_expectancy,2022.2.4,MacIntel,62.5,Safari,1440,900,,,,,0,1337,,,,,,,,,,,,,,,,,174,W,hexagon,1,0,,,,,,,,,,,,,,,,repeat,number,numRpt,f,0.613,Hi,,,,,,5,,,,,,,,low,21,0,21,0,1,,,,,,,,,
295264,2022-09-22_21h38.25.671,vts_reward_expectancy,2022.2.4,MacIntel,62.5,Safari,1440,900,,,,,10,1347,,,,,,,,,,,,,,,,,146,S,hexagon,1,0,,,,,,,,,,,,,,,,repeat,number,numRpt,d,0.48,Hi,,,,,,5,,,,,,,,low,22,0,22,0,1,,,,,,,,,
295264,2022-09-22_21h38.25.671,vts_reward_expectancy,2022.2.4,MacIntel,62.5,Safari,1440,900,,,,,1,1348,,,,,,,,,,,,,,,,,160,B,star,1,0,,,,,,,,,,,,,,,,repeat,number,numRpt,f,0.558,Lo,,,,,,5,,,,,,,,low,23,0,23,0,1,,,,,,,,,
295264,2022-09-22_21h38.25.671,vts_reward_expectancy,2022.2.4,MacIntel,62.5,Safari,1440,900,,,,,0,1348,,,,,,,,,,,,,,,,,125,D,hexagon,1,0,,,,,,,,,,,,,,,,switch,letter,lettSwt,j,1.423,Hi,,,,,,5,,,,,,,,low,24,0,24,0,1,,,,,,,,,
295264,2022-09-22_21h38.25.671,vts_reward_expectancy,2022.2.4,MacIntel,62.5,Safari,1440,900,,,,,10,1358,,,,,,,,,,,,,,,,,174,H,star,1,0,,,,,,,,,,,,,,,,repeat,letter,lettRpt,j,0.662,Lo,,,,,,5,,,,,,,,low,25,0,25,0,1,,,,,,,,,
295264,2022-09-22_21h38.25.671,vts_reward_expectancy,2022.2.4,MacIntel,62.5,Safari,1440,900,,,,,10,1368,,,,,,,,,,,,,,,,,181,S,star,1,0,,,,,,,,,,,,,,,,switch,number,numSwt,f,1.203,Lo,,,,,,5,,,,,,,,low,26,0,26,0,1,,,,,,,,,
295264,2022-09-22_21h38.25.671,vts_reward_expectancy,2022.2.4,MacIntel,62.5,Safari,1440,900,,,,,0,1368,,,,,,,,,,,,,,,,,160,B,hexagon,1,0,,,,,,,,,,,,,,,,switch,letter,lettSwt,j,0.535,Hi,,,,,,5,,,,,,,,low,27,0,27,0,1,,,,,,,,,
295264,2022-09-22_21h38.25.671,vts_reward_expectancy,2022.2.4,MacIntel,62.5,Safari,1440,900,,,,,10,1378,,,,,,,,,,,,,,,,,146,U,hexagon,1,0,,,,,,,,,,,,,,,,repeat,letter,lettRpt,k,0.418,Hi,,,,,,5,,,,,,,,low,28,0,28,0,1,,,,,,,,,
295264,2022-09-22_21h38.25.671,vts_reward_expectancy,2022.2.4,MacIntel,62.5,Safari,1440,900,,,,,10,1388,,,,,,,,,,,,,,,,,167,W,star,1,0,,,,,,,,,,,,,,,,switch,number,numSwt,f,0.646,Lo,,,,,,5,,,,,,,,low,29,0,29,0,1,,,,,,,,,
295264,2022-09-22_21h38.25.671,vts_reward_expectancy,2022.2.4,MacIntel,62.5,Safari,1440,900,,,,,1,1389,,,,,,,,,,,,,,,,,132,Y,hexagon,1,0,,,,,,,,,,,,,,,,repeat,number,numRpt,d,0.44,Hi,,,,,,5,,,,,,,,low,30,0,30,0,1,,,,,,,,,
295264,2022-09-22_21h38.25.671,vts_reward_expectancy,2022.2.4,MacIntel,62.5,Safari,1440,900,,,,,1,1390,,,,,,,,,,,,,,,,,139,F,star,1,0,,,,,,,,,,,,,,,,switch,letter,lettSwt,j,0.864,Lo,,,,,,5,,,,,,,,low,31,0,31,0,1,,,,,,,,,
295264,2022-09-22_21h38.25.671,vts_reward_expectancy,2022.2.4,MacIntel,62.5,Safari,1440,900,,,,,,,,,,,,,,,,,,,,,,,,,,,,,,,,,,,,,,,,,,,,,,,,,,,,,,6,,,,,,,,,,,,,,choose whether a number was above 153 or below or if a letter was closer to a or z in a short amount of time. ,2,the part with the shapes,5,3,,2,1440,900
