participant,date,expName,psychopyVersion,OS,frameRate,browser,xResolution,yResolution,key_resp.keys,key_resp.rt,training_resp.keys,training_resp.rt,points_trial,points_cumul,trainBlock,training.thisRepN,training.thisTrialN,training.thisN,training.thisIndex,training.ran,LTriangleOpac,LCircleOpac,LHexagonOpac,LStarOpac,RTriangleOpac,RCircleOpac,RHexagonOpac,RStarOpac,LShape_ID,RShape_ID,curr_topStim,curr_bottStim,curr_shape,acc,E1,target_resp_prac1.keys,target_resp_prac1.rt,pracBlock,task1_prac_trials.thisRepN,task1_prac_trials.thisTrialN,task1_prac_trials.thisN,task1_prac_trials.thisIndex,task1_prac_trials.ran,target_resp_prac2.keys,target_resp_prac2.rt,task2_praac_trials.thisRepN,task2_praac_trials.thisTrialN,task2_praac_trials.thisN,task2_praac_trials.thisIndex,task2_praac_trials.ran,alt,task,condition,target_resp.keys,target_resp.rt,rewCond,vts_practice_trials.thisRepN,vts_practice_trials.thisTrialN,vts_practice_trials.thisN,vts_practice_trials.thisIndex,vts_practice_trials.ran,blockNum,trials_norew.thisRepN,trials_norew.thisTrialN,trials_norew.thisN,trials_norew.thisIndex,trials_norew.ran,key_resp_2.keys,key_resp_2.rt,rewExpect,trials_rew.thisRepN,trials_rew.thisTrialN,trials_rew.thisN,trials_rew.thisIndex,trials_rew.ran,Q1,Q2,Q2_text,Q3,Q4,Q5_text,Q5,xRes,yRes
295096,2022-10-06_19h58.18.901,vts_reward_expectancy,2022.2.4,Win32,62.09251785,Chrome,1280,720,,,,,,,,,,,,,,,,,,,,,,,,,,,,,,,,,,,,,,,,,,,,,,,,,,,,,,,,,,,,,,,,,,,,,,,,,,,,
295096,2022-10-06_19h58.18.901,vts_reward_expectancy,2022.2.4,Win32,62.09251785,Chrome,1280,720,space,1.2924,,,,,,,,,,,,,,,,,,,,,,,,,,,,,,,,,,,,,,,,,,,,,,,,,,,,,,,,,,,,,,,,,,,,,,,,,,
295096,2022-10-06_19h58.18.901,vts_reward_expectancy,2022.2.4,Win32,62.09251785,Chrome,1280,720,,,,,,,,,,,,,,,,,,,,,,,,,,,,,,,,,,,,,,,,,,,,,,,,,,,,,,,,,,,,,,,,,,,,,,,,,,,,
295096,2022-10-06_19h58.18.901,vts_reward_expectancy,2022.2.4,Win32,62.09251785,Chrome,1280,720,,,a,3.6496,10,10,0,0,0,0,8,1,0,0,1,0,0,0,0,1,hexagon,star,,,,,,,,,,,,,,,,,,,,,,,,,,,,,,,,,,,,,,,,,,,,,,,,,,,,,,
295096,2022-10-06_19h58.18.901,vts_reward_expectancy,2022.2.4,Win32,62.09251785,Chrome,1280,720,,,l,2.2717,10,20,0,0,1,1,11,1,0,0,0,1,0,0,1,0,star,hexagon,,,,,,,,,,,,,,,,,,,,,,,,,,,,,,,,,,,,,,,,,,,,,,,,,,,,,,
295096,2022-10-06_19h58.18.901,vts_reward_expectancy,2022.2.4,Win32,62.09251785,Chrome,1280,720,,,l,2.5326,1,21,0,0,2,2,3,1,0,1,0,0,1,0,0,0,circle,triangle,,,,,,,,,,,,,,,,,,,,,,,,,,,,,,,,,,,,,,,,,,,,,,,,,,,,,,
295096,2022-10-06_19h58.18.901,vts_reward_expectancy,2022.2.4,Win32,62.09251785,Chrome,1280,720,,,a,0.8515,1,22,0,0,3,3,1,1,1,0,0,0,0,0,1,0,triangle,hexagon,,,,,,,,,,,,,,,,,,,,,,,,,,,,,,,,,,,,,,,,,,,,,,,,,,,,,,
295096,2022-10-06_19h58.18.901,vts_reward_expectancy,2022.2.4,Win32,62.09251785,Chrome,1280,720,,,a,1.3168,10,32,0,0,4,4,2,1,1,0,0,0,0,0,0,1,triangle,star,,,,,,,,,,,,,,,,,,,,,,,,,,,,,,,,,,,,,,,,,,,,,,,,,,,,,,
295096,2022-10-06_19h58.18.901,vts_reward_expectancy,2022.2.4,Win32,62.09251785,Chrome,1280,720,,,a,0.9672,10,42,0,0,5,5,0,1,1,0,0,0,0,1,0,0,triangle,circle,,,,,,,,,,,,,,,,,,,,,,,,,,,,,,,,,,,,,,,,,,,,,,,,,,,,,,
295096,2022-10-06_19h58.18.901,vts_reward_expectancy,2022.2.4,Win32,62.09251785,Chrome,1280,720,,,a,1.1185,10,52,0,0,6,6,7,1,0,0,1,0,0,1,0,0,hexagon,circle,,,,,,,,,,,,,,,,,,,,,,,,,,,,,,,,,,,,,,,,,,,,,,,,,,,,,,
295096,2022-10-06_19h58.18.901,vts_reward_expectancy,2022.2.4,Win32,62.09251785,Chrome,1280,720,,,a,1.583,10,62,0,0,7,7,5,1,0,1,0,0,0,0,0,1,circle,star,,,,,,,,,,,,,,,,,,,,,,,,,,,,,,,,,,,,,,,,,,,,,,,,,,,,,,
295096,2022-10-06_19h58.18.901,vts_reward_expectancy,2022.2.4,Win32,62.09251785,Chrome,1280,720,,,a,1.34,10,72,0,0,8,8,4,1,0,1,0,0,0,0,1,0,circle,hexagon,,,,,,,,,,,,,,,,,,,,,,,,,,,,,,,,,,,,,,,,,,,,,,,,,,,,,,
295096,2022-10-06_19h58.18.901,vts_reward_expectancy,2022.2.4,Win32,62.09251785,Chrome,1280,720,,,l,1.5077,10,82,0,0,9,9,9,1,0,0,0,1,1,0,0,0,star,triangle,,,,,,,,,,,,,,,,,,,,,,,,,,,,,,,,,,,,,,,,,,,,,,,,,,,,,,
295096,2022-10-06_19h58.18.901,vts_reward_expectancy,2022.2.4,Win32,62.09251785,Chrome,1280,720,,,a,4.5329,10,92,0,0,10,10,10,1,0,0,0,1,0,1,0,0,star ,circle,,,,,,,,,,,,,,,,,,,,,,,,,,,,,,,,,,,,,,,,,,,,,,,,,,,,,,
295096,2022-10-06_19h58.18.901,vts_reward_expectancy,2022.2.4,Win32,62.09251785,Chrome,1280,720,,,l,1.5771,10,102,0,0,11,11,6,1,0,0,1,0,1,0,0,0,hexagon,triangle,,,,,,,,,,,,,,,,,,,,,,,,,,,,,,,,,,,,,,,,,,,,,,,,,,,,,,
295096,2022-10-06_19h58.18.901,vts_reward_expectancy,2022.2.4,Win32,62.09251785,Chrome,1280,720,,,l,1.4513,1,103,0,1,0,12,3,1,0,1,0,0,1,0,0,0,circle,triangle,,,,,,,,,,,,,,,,,,,,,,,,,,,,,,,,,,,,,,,,,,,,,,,,,,,,,,
295096,2022-10-06_19h58.18.901,vts_reward_expectancy,2022.2.4,Win32,62.09251785,Chrome,1280,720,,,a,1.4426,1,104,0,1,1,13,11,1,0,0,0,1,0,0,1,0,star,hexagon,,,,,,,,,,,,,,,,,,,,,,,,,,,,,,,,,,,,,,,,,,,,,,,,,,,,,,
295096,2022-10-06_19h58.18.901,vts_reward_expectancy,2022.2.4,Win32,62.09251785,Chrome,1280,720,,,l,2.0275,1,105,0,1,2,14,9,1,0,0,0,1,1,0,0,0,star,triangle,,,,,,,,,,,,,,,,,,,,,,,,,,,,,,,,,,,,,,,,,,,,,,,,,,,,,,
295096,2022-10-06_19h58.18.901,vts_reward_expectancy,2022.2.4,Win32,62.09251785,Chrome,1280,720,,,l,2.1575,1,106,0,1,3,15,8,1,0,0,1,0,0,0,0,1,hexagon,star,,,,,,,,,,,,,,,,,,,,,,,,,,,,,,,,,,,,,,,,,,,,,,,,,,,,,,
295096,2022-10-06_19h58.18.901,vts_reward_expectancy,2022.2.4,Win32,62.09251785,Chrome,1280,720,,,a,2.1167,1,107,0,1,4,16,7,1,0,0,1,0,0,1,0,0,hexagon,circle,,,,,,,,,,,,,,,,,,,,,,,,,,,,,,,,,,,,,,,,,,,,,,,,,,,,,,
295096,2022-10-06_19h58.18.901,vts_reward_expectancy,2022.2.4,Win32,62.09251785,Chrome,1280,720,,,a,1.1335,1,108,0,1,5,17,4,1,0,1,0,0,0,0,1,0,circle,hexagon,,,,,,,,,,,,,,,,,,,,,,,,,,,,,,,,,,,,,,,,,,,,,,,,,,,,,,
295096,2022-10-06_19h58.18.901,vts_reward_expectancy,2022.2.4,Win32,62.09251785,Chrome,1280,720,,,l,0.906,10,118,0,1,6,18,10,1,0,0,0,1,0,1,0,0,star ,circle,,,,,,,,,,,,,,,,,,,,,,,,,,,,,,,,,,,,,,,,,,,,,,,,,,,,,,
295096,2022-10-06_19h58.18.901,vts_reward_expectancy,2022.2.4,Win32,62.09251785,Chrome,1280,720,,,l,1.7385,10,128,0,1,7,19,6,1,0,0,1,0,1,0,0,0,hexagon,triangle,,,,,,,,,,,,,,,,,,,,,,,,,,,,,,,,,,,,,,,,,,,,,,,,,,,,,,
295096,2022-10-06_19h58.18.901,vts_reward_expectancy,2022.2.4,Win32,62.09251785,Chrome,1280,720,,,a,2.9241,10,138,0,1,8,20,0,1,1,0,0,0,0,1,0,0,triangle,circle,,,,,,,,,,,,,,,,,,,,,,,,,,,,,,,,,,,,,,,,,,,,,,,,,,,,,,
295096,2022-10-06_19h58.18.901,vts_reward_expectancy,2022.2.4,Win32,62.09251785,Chrome,1280,720,,,a,1.6179,10,148,0,1,9,21,2,1,1,0,0,0,0,0,0,1,triangle,star,,,,,,,,,,,,,,,,,,,,,,,,,,,,,,,,,,,,,,,,,,,,,,,,,,,,,,
295096,2022-10-06_19h58.18.901,vts_reward_expectancy,2022.2.4,Win32,62.09251785,Chrome,1280,720,,,l,2.3521,1,149,0,1,10,22,5,1,0,1,0,0,0,0,0,1,circle,star,,,,,,,,,,,,,,,,,,,,,,,,,,,,,,,,,,,,,,,,,,,,,,,,,,,,,,
295096,2022-10-06_19h58.18.901,vts_reward_expectancy,2022.2.4,Win32,62.09251785,Chrome,1280,720,,,l,1.6017,10,159,0,1,11,23,1,1,1,0,0,0,0,0,1,0,triangle,hexagon,,,,,,,,,,,,,,,,,,,,,,,,,,,,,,,,,,,,,,,,,,,,,,,,,,,,,,
295096,2022-10-06_19h58.18.901,vts_reward_expectancy,2022.2.4,Win32,62.09251785,Chrome,1280,720,,,a,4.8272,1,160,0,2,0,24,4,1,0,1,0,0,0,0,1,0,circle,hexagon,,,,,,,,,,,,,,,,,,,,,,,,,,,,,,,,,,,,,,,,,,,,,,,,,,,,,,
295096,2022-10-06_19h58.18.901,vts_reward_expectancy,2022.2.4,Win32,62.09251785,Chrome,1280,720,,,l,0.7706,10,170,0,2,1,25,6,1,0,0,1,0,1,0,0,0,hexagon,triangle,,,,,,,,,,,,,,,,,,,,,,,,,,,,,,,,,,,,,,,,,,,,,,,,,,,,,,
295096,2022-10-06_19h58.18.901,vts_reward_expectancy,2022.2.4,Win32,62.09251785,Chrome,1280,720,,,a,1.6007,10,180,0,2,2,26,7,1,0,0,1,0,0,1,0,0,hexagon,circle,,,,,,,,,,,,,,,,,,,,,,,,,,,,,,,,,,,,,,,,,,,,,,,,,,,,,,
295096,2022-10-06_19h58.18.901,vts_reward_expectancy,2022.2.4,Win32,62.09251785,Chrome,1280,720,,,l,1.0344,1,181,0,2,3,27,8,1,0,0,1,0,0,0,0,1,hexagon,star,,,,,,,,,,,,,,,,,,,,,,,,,,,,,,,,,,,,,,,,,,,,,,,,,,,,,,
295096,2022-10-06_19h58.18.901,vts_reward_expectancy,2022.2.4,Win32,62.09251785,Chrome,1280,720,,,a,1.6094,1,182,0,2,4,28,11,1,0,0,0,1,0,0,1,0,star,hexagon,,,,,,,,,,,,,,,,,,,,,,,,,,,,,,,,,,,,,,,,,,,,,,,,,,,,,,
295096,2022-10-06_19h58.18.901,vts_reward_expectancy,2022.2.4,Win32,62.09251785,Chrome,1280,720,,,a,0.8515,1,183,0,2,5,29,1,1,1,0,0,0,0,0,1,0,triangle,hexagon,,,,,,,,,,,,,,,,,,,,,,,,,,,,,,,,,,,,,,,,,,,,,,,,,,,,,,
295096,2022-10-06_19h58.18.901,vts_reward_expectancy,2022.2.4,Win32,62.09251785,Chrome,1280,720,,,l,0.4378,10,193,0,2,6,30,9,1,0,0,0,1,1,0,0,0,star,triangle,,,,,,,,,,,,,,,,,,,,,,,,,,,,,,,,,,,,,,,,,,,,,,,,,,,,,,
295096,2022-10-06_19h58.18.901,vts_reward_expectancy,2022.2.4,Win32,62.09251785,Chrome,1280,720,,,a,0.8559,1,194,0,2,7,31,5,1,0,1,0,0,0,0,0,1,circle,star,,,,,,,,,,,,,,,,,,,,,,,,,,,,,,,,,,,,,,,,,,,,,,,,,,,,,,
295096,2022-10-06_19h58.18.901,vts_reward_expectancy,2022.2.4,Win32,62.09251785,Chrome,1280,720,,,l,1.4062,10,204,0,2,8,32,0,1,1,0,0,0,0,1,0,0,triangle,circle,,,,,,,,,,,,,,,,,,,,,,,,,,,,,,,,,,,,,,,,,,,,,,,,,,,,,,
295096,2022-10-06_19h58.18.901,vts_reward_expectancy,2022.2.4,Win32,62.09251785,Chrome,1280,720,,,l,1.0662,1,205,0,2,9,33,10,1,0,0,0,1,0,1,0,0,star ,circle,,,,,,,,,,,,,,,,,,,,,,,,,,,,,,,,,,,,,,,,,,,,,,,,,,,,,,
295096,2022-10-06_19h58.18.901,vts_reward_expectancy,2022.2.4,Win32,62.09251785,Chrome,1280,720,,,a,1.3509,10,215,0,2,10,34,2,1,1,0,0,0,0,0,0,1,triangle,star,,,,,,,,,,,,,,,,,,,,,,,,,,,,,,,,,,,,,,,,,,,,,,,,,,,,,,
295096,2022-10-06_19h58.18.901,vts_reward_expectancy,2022.2.4,Win32,62.09251785,Chrome,1280,720,,,l,1.85,10,225,0,2,11,35,3,1,0,1,0,0,1,0,0,0,circle,triangle,,,,,,,,,,,,,,,,,,,,,,,,,,,,,,,,,,,,,,,,,,,,,,,,,,,,,,
295096,2022-10-06_19h58.18.901,vts_reward_expectancy,2022.2.4,Win32,62.09251785,Chrome,1280,720,,,l,1.4331,1,226,1,0,0,0,8,1,0,0,1,0,0,0,0,1,hexagon,star,,,,,,,,,,,,,,,,,,,,,,,,,,,,,,,,,,,,,,,,,,,,,,,,,,,,,,
295096,2022-10-06_19h58.18.901,vts_reward_expectancy,2022.2.4,Win32,62.09251785,Chrome,1280,720,,,a,0.9403,1,227,1,0,1,1,1,1,1,0,0,0,0,0,1,0,triangle,hexagon,,,,,,,,,,,,,,,,,,,,,,,,,,,,,,,,,,,,,,,,,,,,,,,,,,,,,,
295096,2022-10-06_19h58.18.901,vts_reward_expectancy,2022.2.4,Win32,62.09251785,Chrome,1280,720,,,l,7.0933,1,228,1,0,2,2,0,1,1,0,0,0,0,1,0,0,triangle,circle,,,,,,,,,,,,,,,,,,,,,,,,,,,,,,,,,,,,,,,,,,,,,,,,,,,,,,
295096,2022-10-06_19h58.18.901,vts_reward_expectancy,2022.2.4,Win32,62.09251785,Chrome,1280,720,,,l,1.601,10,238,1,0,3,3,6,1,0,0,1,0,1,0,0,0,hexagon,triangle,,,,,,,,,,,,,,,,,,,,,,,,,,,,,,,,,,,,,,,,,,,,,,,,,,,,,,
295096,2022-10-06_19h58.18.901,vts_reward_expectancy,2022.2.4,Win32,62.09251785,Chrome,1280,720,,,a,1.4875,10,248,1,0,4,4,10,1,0,0,0,1,0,1,0,0,star ,circle,,,,,,,,,,,,,,,,,,,,,,,,,,,,,,,,,,,,,,,,,,,,,,,,,,,,,,
295096,2022-10-06_19h58.18.901,vts_reward_expectancy,2022.2.4,Win32,62.09251785,Chrome,1280,720,,,l,4.0442,1,249,1,0,5,5,9,1,0,0,0,1,1,0,0,0,star,triangle,,,,,,,,,,,,,,,,,,,,,,,,,,,,,,,,,,,,,,,,,,,,,,,,,,,,,,
295096,2022-10-06_19h58.18.901,vts_reward_expectancy,2022.2.4,Win32,62.09251785,Chrome,1280,720,,,a,2.2546,1,250,1,0,6,6,2,1,1,0,0,0,0,0,0,1,triangle,star,,,,,,,,,,,,,,,,,,,,,,,,,,,,,,,,,,,,,,,,,,,,,,,,,,,,,,
295096,2022-10-06_19h58.18.901,vts_reward_expectancy,2022.2.4,Win32,62.09251785,Chrome,1280,720,,,a,1.1594,1,251,1,0,7,7,7,1,0,0,1,0,0,1,0,0,hexagon,circle,,,,,,,,,,,,,,,,,,,,,,,,,,,,,,,,,,,,,,,,,,,,,,,,,,,,,,
295096,2022-10-06_19h58.18.901,vts_reward_expectancy,2022.2.4,Win32,62.09251785,Chrome,1280,720,,,a,0.9051,1,252,1,0,8,8,11,1,0,0,0,1,0,0,1,0,star,hexagon,,,,,,,,,,,,,,,,,,,,,,,,,,,,,,,,,,,,,,,,,,,,,,,,,,,,,,
295096,2022-10-06_19h58.18.901,vts_reward_expectancy,2022.2.4,Win32,62.09251785,Chrome,1280,720,,,a,1.3842,1,253,1,0,9,9,3,1,0,1,0,0,1,0,0,0,circle,triangle,,,,,,,,,,,,,,,,,,,,,,,,,,,,,,,,,,,,,,,,,,,,,,,,,,,,,,
295096,2022-10-06_19h58.18.901,vts_reward_expectancy,2022.2.4,Win32,62.09251785,Chrome,1280,720,,,l,1.8992,10,263,1,0,10,10,4,1,0,1,0,0,0,0,1,0,circle,hexagon,,,,,,,,,,,,,,,,,,,,,,,,,,,,,,,,,,,,,,,,,,,,,,,,,,,,,,
295096,2022-10-06_19h58.18.901,vts_reward_expectancy,2022.2.4,Win32,62.09251785,Chrome,1280,720,,,l,0.7053,1,264,1,0,11,11,5,1,0,1,0,0,0,0,0,1,circle,star,,,,,,,,,,,,,,,,,,,,,,,,,,,,,,,,,,,,,,,,,,,,,,,,,,,,,,
295096,2022-10-06_19h58.18.901,vts_reward_expectancy,2022.2.4,Win32,62.09251785,Chrome,1280,720,,,a,0.5675,10,274,1,1,0,12,2,1,1,0,0,0,0,0,0,1,triangle,star,,,,,,,,,,,,,,,,,,,,,,,,,,,,,,,,,,,,,,,,,,,,,,,,,,,,,,
295096,2022-10-06_19h58.18.901,vts_reward_expectancy,2022.2.4,Win32,62.09251785,Chrome,1280,720,,,a,0.5771,10,284,1,1,1,13,10,1,0,0,0,1,0,1,0,0,star ,circle,,,,,,,,,,,,,,,,,,,,,,,,,,,,,,,,,,,,,,,,,,,,,,,,,,,,,,
295096,2022-10-06_19h58.18.901,vts_reward_expectancy,2022.2.4,Win32,62.09251785,Chrome,1280,720,,,l,0.3012,1,285,1,1,2,14,5,1,0,1,0,0,0,0,0,1,circle,star,,,,,,,,,,,,,,,,,,,,,,,,,,,,,,,,,,,,,,,,,,,,,,,,,,,,,,
295096,2022-10-06_19h58.18.901,vts_reward_expectancy,2022.2.4,Win32,62.09251785,Chrome,1280,720,,,a,1.8517,1,286,1,1,3,15,1,1,1,0,0,0,0,0,1,0,triangle,hexagon,,,,,,,,,,,,,,,,,,,,,,,,,,,,,,,,,,,,,,,,,,,,,,,,,,,,,,
295096,2022-10-06_19h58.18.901,vts_reward_expectancy,2022.2.4,Win32,62.09251785,Chrome,1280,720,,,a,1.2678,1,287,1,1,4,16,11,1,0,0,0,1,0,0,1,0,star,hexagon,,,,,,,,,,,,,,,,,,,,,,,,,,,,,,,,,,,,,,,,,,,,,,,,,,,,,,
295096,2022-10-06_19h58.18.901,vts_reward_expectancy,2022.2.4,Win32,62.09251785,Chrome,1280,720,,,l,0.5087,10,297,1,1,5,17,3,1,0,1,0,0,1,0,0,0,circle,triangle,,,,,,,,,,,,,,,,,,,,,,,,,,,,,,,,,,,,,,,,,,,,,,,,,,,,,,
295096,2022-10-06_19h58.18.901,vts_reward_expectancy,2022.2.4,Win32,62.09251785,Chrome,1280,720,,,l,0.7045,1,298,1,1,6,18,0,1,1,0,0,0,0,1,0,0,triangle,circle,,,,,,,,,,,,,,,,,,,,,,,,,,,,,,,,,,,,,,,,,,,,,,,,,,,,,,
295096,2022-10-06_19h58.18.901,vts_reward_expectancy,2022.2.4,Win32,62.09251785,Chrome,1280,720,,,l,0.9346,1,299,1,1,7,19,8,1,0,0,1,0,0,0,0,1,hexagon,star,,,,,,,,,,,,,,,,,,,,,,,,,,,,,,,,,,,,,,,,,,,,,,,,,,,,,,
295096,2022-10-06_19h58.18.901,vts_reward_expectancy,2022.2.4,Win32,62.09251785,Chrome,1280,720,,,a,0.5555,1,300,1,1,8,20,9,1,0,0,0,1,1,0,0,0,star,triangle,,,,,,,,,,,,,,,,,,,,,,,,,,,,,,,,,,,,,,,,,,,,,,,,,,,,,,
295096,2022-10-06_19h58.18.901,vts_reward_expectancy,2022.2.4,Win32,62.09251785,Chrome,1280,720,,,l,1.1775,1,301,1,1,9,21,7,1,0,0,1,0,0,1,0,0,hexagon,circle,,,,,,,,,,,,,,,,,,,,,,,,,,,,,,,,,,,,,,,,,,,,,,,,,,,,,,
295096,2022-10-06_19h58.18.901,vts_reward_expectancy,2022.2.4,Win32,62.09251785,Chrome,1280,720,,,l,0.8169,1,302,1,1,10,22,6,1,0,0,1,0,1,0,0,0,hexagon,triangle,,,,,,,,,,,,,,,,,,,,,,,,,,,,,,,,,,,,,,,,,,,,,,,,,,,,,,
295096,2022-10-06_19h58.18.901,vts_reward_expectancy,2022.2.4,Win32,62.09251785,Chrome,1280,720,,,a,5.2,1,303,1,1,11,23,4,1,0,1,0,0,0,0,1,0,circle,hexagon,,,,,,,,,,,,,,,,,,,,,,,,,,,,,,,,,,,,,,,,,,,,,,,,,,,,,,
295096,2022-10-06_19h58.18.901,vts_reward_expectancy,2022.2.4,Win32,62.09251785,Chrome,1280,720,,,l,3.8863,10,313,1,2,0,24,4,1,0,1,0,0,0,0,1,0,circle,hexagon,,,,,,,,,,,,,,,,,,,,,,,,,,,,,,,,,,,,,,,,,,,,,,,,,,,,,,
295096,2022-10-06_19h58.18.901,vts_reward_expectancy,2022.2.4,Win32,62.09251785,Chrome,1280,720,,,a,1.3505,10,323,1,2,1,25,6,1,0,0,1,0,1,0,0,0,hexagon,triangle,,,,,,,,,,,,,,,,,,,,,,,,,,,,,,,,,,,,,,,,,,,,,,,,,,,,,,
295096,2022-10-06_19h58.18.901,vts_reward_expectancy,2022.2.4,Win32,62.09251785,Chrome,1280,720,,,a,0.9196,1,324,1,2,2,26,11,1,0,0,0,1,0,0,1,0,star,hexagon,,,,,,,,,,,,,,,,,,,,,,,,,,,,,,,,,,,,,,,,,,,,,,,,,,,,,,
295096,2022-10-06_19h58.18.901,vts_reward_expectancy,2022.2.4,Win32,62.09251785,Chrome,1280,720,,,l,1.2515,10,334,1,2,3,27,9,1,0,0,0,1,1,0,0,0,star,triangle,,,,,,,,,,,,,,,,,,,,,,,,,,,,,,,,,,,,,,,,,,,,,,,,,,,,,,
295096,2022-10-06_19h58.18.901,vts_reward_expectancy,2022.2.4,Win32,62.09251785,Chrome,1280,720,,,l,5.9354,10,344,1,2,4,28,1,1,1,0,0,0,0,0,1,0,triangle,hexagon,,,,,,,,,,,,,,,,,,,,,,,,,,,,,,,,,,,,,,,,,,,,,,,,,,,,,,
295096,2022-10-06_19h58.18.901,vts_reward_expectancy,2022.2.4,Win32,62.09251785,Chrome,1280,720,,,a,1.2951,1,345,1,2,5,29,2,1,1,0,0,0,0,0,0,1,triangle,star,,,,,,,,,,,,,,,,,,,,,,,,,,,,,,,,,,,,,,,,,,,,,,,,,,,,,,
295096,2022-10-06_19h58.18.901,vts_reward_expectancy,2022.2.4,Win32,62.09251785,Chrome,1280,720,,,a,1.1068,10,355,1,2,6,30,8,1,0,0,1,0,0,0,0,1,hexagon,star,,,,,,,,,,,,,,,,,,,,,,,,,,,,,,,,,,,,,,,,,,,,,,,,,,,,,,
295096,2022-10-06_19h58.18.901,vts_reward_expectancy,2022.2.4,Win32,62.09251785,Chrome,1280,720,,,a,1.2121,10,365,1,2,7,31,0,1,1,0,0,0,0,1,0,0,triangle,circle,,,,,,,,,,,,,,,,,,,,,,,,,,,,,,,,,,,,,,,,,,,,,,,,,,,,,,
295096,2022-10-06_19h58.18.901,vts_reward_expectancy,2022.2.4,Win32,62.09251785,Chrome,1280,720,,,l,2.0499,10,375,1,2,8,32,3,1,0,1,0,0,1,0,0,0,circle,triangle,,,,,,,,,,,,,,,,,,,,,,,,,,,,,,,,,,,,,,,,,,,,,,,,,,,,,,
295096,2022-10-06_19h58.18.901,vts_reward_expectancy,2022.2.4,Win32,62.09251785,Chrome,1280,720,,,a,0.7087,10,385,1,2,9,33,7,1,0,0,1,0,0,1,0,0,hexagon,circle,,,,,,,,,,,,,,,,,,,,,,,,,,,,,,,,,,,,,,,,,,,,,,,,,,,,,,
295096,2022-10-06_19h58.18.901,vts_reward_expectancy,2022.2.4,Win32,62.09251785,Chrome,1280,720,,,a,2.4008,10,395,1,2,10,34,10,1,0,0,0,1,0,1,0,0,star ,circle,,,,,,,,,,,,,,,,,,,,,,,,,,,,,,,,,,,,,,,,,,,,,,,,,,,,,,
295096,2022-10-06_19h58.18.901,vts_reward_expectancy,2022.2.4,Win32,62.09251785,Chrome,1280,720,,,l,1.6541,10,405,1,2,11,35,5,1,0,1,0,0,0,0,0,1,circle,star,,,,,,,,,,,,,,,,,,,,,,,,,,,,,,,,,,,,,,,,,,,,,,,,,,,,,,
295096,2022-10-06_19h58.18.901,vts_reward_expectancy,2022.2.4,Win32,62.09251785,Chrome,1280,720,,,l,1.6676,1,406,2,0,0,0,3,1,0,1,0,0,1,0,0,0,circle,triangle,,,,,,,,,,,,,,,,,,,,,,,,,,,,,,,,,,,,,,,,,,,,,,,,,,,,,,
295096,2022-10-06_19h58.18.901,vts_reward_expectancy,2022.2.4,Win32,62.09251785,Chrome,1280,720,,,a,1.3337,1,407,2,0,1,1,9,1,0,0,0,1,1,0,0,0,star,triangle,,,,,,,,,,,,,,,,,,,,,,,,,,,,,,,,,,,,,,,,,,,,,,,,,,,,,,
295096,2022-10-06_19h58.18.901,vts_reward_expectancy,2022.2.4,Win32,62.09251785,Chrome,1280,720,,,l,1.3666,10,417,2,0,2,2,11,1,0,0,0,1,0,0,1,0,star,hexagon,,,,,,,,,,,,,,,,,,,,,,,,,,,,,,,,,,,,,,,,,,,,,,,,,,,,,,
295096,2022-10-06_19h58.18.901,vts_reward_expectancy,2022.2.4,Win32,62.09251785,Chrome,1280,720,,,a,2.6187,10,427,2,0,3,3,0,1,1,0,0,0,0,1,0,0,triangle,circle,,,,,,,,,,,,,,,,,,,,,,,,,,,,,,,,,,,,,,,,,,,,,,,,,,,,,,
295096,2022-10-06_19h58.18.901,vts_reward_expectancy,2022.2.4,Win32,62.09251785,Chrome,1280,720,,,l,0.8505,1,428,2,0,4,4,5,1,0,1,0,0,0,0,0,1,circle,star,,,,,,,,,,,,,,,,,,,,,,,,,,,,,,,,,,,,,,,,,,,,,,,,,,,,,,
295096,2022-10-06_19h58.18.901,vts_reward_expectancy,2022.2.4,Win32,62.09251785,Chrome,1280,720,,,l,0.9229,10,438,2,0,5,5,6,1,0,0,1,0,1,0,0,0,hexagon,triangle,,,,,,,,,,,,,,,,,,,,,,,,,,,,,,,,,,,,,,,,,,,,,,,,,,,,,,
295096,2022-10-06_19h58.18.901,vts_reward_expectancy,2022.2.4,Win32,62.09251785,Chrome,1280,720,,,l,2.0111,1,439,2,0,6,6,2,1,1,0,0,0,0,0,0,1,triangle,star,,,,,,,,,,,,,,,,,,,,,,,,,,,,,,,,,,,,,,,,,,,,,,,,,,,,,,
295096,2022-10-06_19h58.18.901,vts_reward_expectancy,2022.2.4,Win32,62.09251785,Chrome,1280,720,,,a,1.1342,10,449,2,0,7,7,7,1,0,0,1,0,0,1,0,0,hexagon,circle,,,,,,,,,,,,,,,,,,,,,,,,,,,,,,,,,,,,,,,,,,,,,,,,,,,,,,
295096,2022-10-06_19h58.18.901,vts_reward_expectancy,2022.2.4,Win32,62.09251785,Chrome,1280,720,,,a,1.1769,1,450,2,0,8,8,4,1,0,1,0,0,0,0,1,0,circle,hexagon,,,,,,,,,,,,,,,,,,,,,,,,,,,,,,,,,,,,,,,,,,,,,,,,,,,,,,
295096,2022-10-06_19h58.18.901,vts_reward_expectancy,2022.2.4,Win32,62.09251785,Chrome,1280,720,,,a,4.0165,1,451,2,0,9,9,1,1,1,0,0,0,0,0,1,0,triangle,hexagon,,,,,,,,,,,,,,,,,,,,,,,,,,,,,,,,,,,,,,,,,,,,,,,,,,,,,,
295096,2022-10-06_19h58.18.901,vts_reward_expectancy,2022.2.4,Win32,62.09251785,Chrome,1280,720,,,l,2.5885,1,452,2,0,10,10,8,1,0,0,1,0,0,0,0,1,hexagon,star,,,,,,,,,,,,,,,,,,,,,,,,,,,,,,,,,,,,,,,,,,,,,,,,,,,,,,
295096,2022-10-06_19h58.18.901,vts_reward_expectancy,2022.2.4,Win32,62.09251785,Chrome,1280,720,,,l,0.8279,10,462,2,0,11,11,10,1,0,0,0,1,0,1,0,0,star ,circle,,,,,,,,,,,,,,,,,,,,,,,,,,,,,,,,,,,,,,,,,,,,,,,,,,,,,,
295096,2022-10-06_19h58.18.901,vts_reward_expectancy,2022.2.4,Win32,62.09251785,Chrome,1280,720,,,l,7.4668,1,463,2,1,0,12,2,1,1,0,0,0,0,0,0,1,triangle,star,,,,,,,,,,,,,,,,,,,,,,,,,,,,,,,,,,,,,,,,,,,,,,,,,,,,,,
295096,2022-10-06_19h58.18.901,vts_reward_expectancy,2022.2.4,Win32,62.09251785,Chrome,1280,720,,,a,1.0788,1,464,2,1,1,13,4,1,0,1,0,0,0,0,1,0,circle,hexagon,,,,,,,,,,,,,,,,,,,,,,,,,,,,,,,,,,,,,,,,,,,,,,,,,,,,,,
295096,2022-10-06_19h58.18.901,vts_reward_expectancy,2022.2.4,Win32,62.09251785,Chrome,1280,720,,,a,1.184,1,465,2,1,2,14,5,1,0,1,0,0,0,0,0,1,circle,star,,,,,,,,,,,,,,,,,,,,,,,,,,,,,,,,,,,,,,,,,,,,,,,,,,,,,,
295096,2022-10-06_19h58.18.901,vts_reward_expectancy,2022.2.4,Win32,62.09251785,Chrome,1280,720,,,l,2.0756,1,466,2,1,3,15,6,1,0,0,1,0,1,0,0,0,hexagon,triangle,,,,,,,,,,,,,,,,,,,,,,,,,,,,,,,,,,,,,,,,,,,,,,,,,,,,,,
295096,2022-10-06_19h58.18.901,vts_reward_expectancy,2022.2.4,Win32,62.09251785,Chrome,1280,720,,,a,2.6055,1,467,2,1,4,16,11,1,0,0,0,1,0,0,1,0,star,hexagon,,,,,,,,,,,,,,,,,,,,,,,,,,,,,,,,,,,,,,,,,,,,,,,,,,,,,,
295096,2022-10-06_19h58.18.901,vts_reward_expectancy,2022.2.4,Win32,62.09251785,Chrome,1280,720,,,a,3.6752,1,468,2,1,5,17,8,1,0,0,1,0,0,0,0,1,hexagon,star,,,,,,,,,,,,,,,,,,,,,,,,,,,,,,,,,,,,,,,,,,,,,,,,,,,,,,
295096,2022-10-06_19h58.18.901,vts_reward_expectancy,2022.2.4,Win32,62.09251785,Chrome,1280,720,,,l,0.8849,10,478,2,1,6,18,9,1,0,0,0,1,1,0,0,0,star,triangle,,,,,,,,,,,,,,,,,,,,,,,,,,,,,,,,,,,,,,,,,,,,,,,,,,,,,,
295096,2022-10-06_19h58.18.901,vts_reward_expectancy,2022.2.4,Win32,62.09251785,Chrome,1280,720,,,l,1.2844,1,479,2,1,7,19,3,1,0,1,0,0,1,0,0,0,circle,triangle,,,,,,,,,,,,,,,,,,,,,,,,,,,,,,,,,,,,,,,,,,,,,,,,,,,,,,
295096,2022-10-06_19h58.18.901,vts_reward_expectancy,2022.2.4,Win32,62.09251785,Chrome,1280,720,,,l,0.8868,1,480,2,1,8,20,7,1,0,0,1,0,0,1,0,0,hexagon,circle,,,,,,,,,,,,,,,,,,,,,,,,,,,,,,,,,,,,,,,,,,,,,,,,,,,,,,
295096,2022-10-06_19h58.18.901,vts_reward_expectancy,2022.2.4,Win32,62.09251785,Chrome,1280,720,,,a,1.6506,1,481,2,1,9,21,0,1,1,0,0,0,0,1,0,0,triangle,circle,,,,,,,,,,,,,,,,,,,,,,,,,,,,,,,,,,,,,,,,,,,,,,,,,,,,,,
295096,2022-10-06_19h58.18.901,vts_reward_expectancy,2022.2.4,Win32,62.09251785,Chrome,1280,720,,,l,7.6699,1,482,2,1,10,22,10,1,0,0,0,1,0,1,0,0,star ,circle,,,,,,,,,,,,,,,,,,,,,,,,,,,,,,,,,,,,,,,,,,,,,,,,,,,,,,
295096,2022-10-06_19h58.18.901,vts_reward_expectancy,2022.2.4,Win32,62.09251785,Chrome,1280,720,,,a,1.3602,10,492,2,1,11,23,1,1,1,0,0,0,0,0,1,0,triangle,hexagon,,,,,,,,,,,,,,,,,,,,,,,,,,,,,,,,,,,,,,,,,,,,,,,,,,,,,,
295096,2022-10-06_19h58.18.901,vts_reward_expectancy,2022.2.4,Win32,62.09251785,Chrome,1280,720,,,l,3.8833,1,493,2,2,0,24,8,1,0,0,1,0,0,0,0,1,hexagon,star,,,,,,,,,,,,,,,,,,,,,,,,,,,,,,,,,,,,,,,,,,,,,,,,,,,,,,
295096,2022-10-06_19h58.18.901,vts_reward_expectancy,2022.2.4,Win32,62.09251785,Chrome,1280,720,,,a,0.9185,1,494,2,2,1,25,11,1,0,0,0,1,0,0,1,0,star,hexagon,,,,,,,,,,,,,,,,,,,,,,,,,,,,,,,,,,,,,,,,,,,,,,,,,,,,,,
295096,2022-10-06_19h58.18.901,vts_reward_expectancy,2022.2.4,Win32,62.09251785,Chrome,1280,720,,,l,2.309,10,504,2,2,2,26,10,1,0,0,0,1,0,1,0,0,star ,circle,,,,,,,,,,,,,,,,,,,,,,,,,,,,,,,,,,,,,,,,,,,,,,,,,,,,,,
295096,2022-10-06_19h58.18.901,vts_reward_expectancy,2022.2.4,Win32,62.09251785,Chrome,1280,720,,,a,6.8921,10,514,2,2,3,27,2,1,1,0,0,0,0,0,0,1,triangle,star,,,,,,,,,,,,,,,,,,,,,,,,,,,,,,,,,,,,,,,,,,,,,,,,,,,,,,
295096,2022-10-06_19h58.18.901,vts_reward_expectancy,2022.2.4,Win32,62.09251785,Chrome,1280,720,,,a,5.0858,1,515,2,2,4,28,4,1,0,1,0,0,0,0,1,0,circle,hexagon,,,,,,,,,,,,,,,,,,,,,,,,,,,,,,,,,,,,,,,,,,,,,,,,,,,,,,
295096,2022-10-06_19h58.18.901,vts_reward_expectancy,2022.2.4,Win32,62.09251785,Chrome,1280,720,,,l,8.4012,10,525,2,2,5,29,3,1,0,1,0,0,1,0,0,0,circle,triangle,,,,,,,,,,,,,,,,,,,,,,,,,,,,,,,,,,,,,,,,,,,,,,,,,,,,,,
295096,2022-10-06_19h58.18.901,vts_reward_expectancy,2022.2.4,Win32,62.09251785,Chrome,1280,720,,,l,17.3901,10,535,2,2,6,30,7,1,0,0,1,0,0,1,0,0,hexagon,circle,,,,,,,,,,,,,,,,,,,,,,,,,,,,,,,,,,,,,,,,,,,,,,,,,,,,,,
295096,2022-10-06_19h58.18.901,vts_reward_expectancy,2022.2.4,Win32,62.09251785,Chrome,1280,720,,,a,1.3538,10,545,2,2,7,31,0,1,1,0,0,0,0,1,0,0,triangle,circle,,,,,,,,,,,,,,,,,,,,,,,,,,,,,,,,,,,,,,,,,,,,,,,,,,,,,,
295096,2022-10-06_19h58.18.901,vts_reward_expectancy,2022.2.4,Win32,62.09251785,Chrome,1280,720,,,a,2.184,10,555,2,2,8,32,1,1,1,0,0,0,0,0,1,0,triangle,hexagon,,,,,,,,,,,,,,,,,,,,,,,,,,,,,,,,,,,,,,,,,,,,,,,,,,,,,,
295096,2022-10-06_19h58.18.901,vts_reward_expectancy,2022.2.4,Win32,62.09251785,Chrome,1280,720,,,l,1.1485,10,565,2,2,9,33,9,1,0,0,0,1,1,0,0,0,star,triangle,,,,,,,,,,,,,,,,,,,,,,,,,,,,,,,,,,,,,,,,,,,,,,,,,,,,,,
295096,2022-10-06_19h58.18.901,vts_reward_expectancy,2022.2.4,Win32,62.09251785,Chrome,1280,720,,,l,1.9014,10,575,2,2,10,34,5,1,0,1,0,0,0,0,0,1,circle,star,,,,,,,,,,,,,,,,,,,,,,,,,,,,,,,,,,,,,,,,,,,,,,,,,,,,,,
295096,2022-10-06_19h58.18.901,vts_reward_expectancy,2022.2.4,Win32,62.09251785,Chrome,1280,720,,,l,2.4842,10,585,2,2,11,35,6,1,0,0,1,0,1,0,0,0,hexagon,triangle,,,,,,,,,,,,,,,,,,,,,,,,,,,,,,,,,,,,,,,,,,,,,,,,,,,,,,
295096,2022-10-06_19h58.18.901,vts_reward_expectancy,2022.2.4,Win32,62.09251785,Chrome,1280,720,,,,,,,,,,,,,,,,,,,,,,,167,U,circle,1,0,f,2.0399,0,0,0,0,0,1,,,,,,,,,,,,,,,,,,,,,,,,,,,,,,,,,,,,,,,,,
295096,2022-10-06_19h58.18.901,vts_reward_expectancy,2022.2.4,Win32,62.09251785,Chrome,1280,720,,,,,,,,,,,,,,,,,,,,,,,174,B,hexagon,1,0,f,0.8177,0,1,0,1,0,1,,,,,,,,,,,,,,,,,,,,,,,,,,,,,,,,,,,,,,,,,
295096,2022-10-06_19h58.18.901,vts_reward_expectancy,2022.2.4,Win32,62.09251785,Chrome,1280,720,,,,,,,,,,,,,,,,,,,,,,,139,F,star,1,0,d,0.6594,0,2,0,2,0,1,,,,,,,,,,,,,,,,,,,,,,,,,,,,,,,,,,,,,,,,,
295096,2022-10-06_19h58.18.901,vts_reward_expectancy,2022.2.4,Win32,62.09251785,Chrome,1280,720,,,,,,,,,,,,,,,,,,,,,,,132,W,triangle,1,0,d,0.6168,0,3,0,3,0,1,,,,,,,,,,,,,,,,,,,,,,,,,,,,,,,,,,,,,,,,,
295096,2022-10-06_19h58.18.901,vts_reward_expectancy,2022.2.4,Win32,62.09251785,Chrome,1280,720,,,,,,,,,,,,,,,,,,,,,,,146,Y,circle,1,0,d,0.7018,0,4,0,4,0,1,,,,,,,,,,,,,,,,,,,,,,,,,,,,,,,,,,,,,,,,,
295096,2022-10-06_19h58.18.901,vts_reward_expectancy,2022.2.4,Win32,62.09251785,Chrome,1280,720,,,,,,,,,,,,,,,,,,,,,,,181,H,hexagon,1,0,f,0.6696,0,5,0,5,0,1,,,,,,,,,,,,,,,,,,,,,,,,,,,,,,,,,,,,,,,,,
295096,2022-10-06_19h58.18.901,vts_reward_expectancy,2022.2.4,Win32,62.09251785,Chrome,1280,720,,,,,,,,,,,,,,,,,,,,,,,125,S,star,1,0,d,0.7709,0,6,0,6,0,1,,,,,,,,,,,,,,,,,,,,,,,,,,,,,,,,,,,,,,,,,
295096,2022-10-06_19h58.18.901,vts_reward_expectancy,2022.2.4,Win32,62.09251785,Chrome,1280,720,,,,,,,,,,,,,,,,,,,,,,,160,D,triangle,1,0,f,1.5915,0,7,0,7,0,1,,,,,,,,,,,,,,,,,,,,,,,,,,,,,,,,,,,,,,,,,
295096,2022-10-06_19h58.18.901,vts_reward_expectancy,2022.2.4,Win32,62.09251785,Chrome,1280,720,,,,,,,,,,,,,,,,,,,,,,,167,U,triangle,1,0,f,0.6057,0,8,0,8,0,1,,,,,,,,,,,,,,,,,,,,,,,,,,,,,,,,,,,,,,,,,
295096,2022-10-06_19h58.18.901,vts_reward_expectancy,2022.2.4,Win32,62.09251785,Chrome,1280,720,,,,,,,,,,,,,,,,,,,,,,,174,B,star,1,0,f,0.6394,0,9,0,9,0,1,,,,,,,,,,,,,,,,,,,,,,,,,,,,,,,,,,,,,,,,,
295096,2022-10-06_19h58.18.901,vts_reward_expectancy,2022.2.4,Win32,62.09251785,Chrome,1280,720,,,,,,,,,,,,,,,,,,,,,,,160,W,star,1,0,,,1,,,,,,k,2.067,0,0,0,0,1,,,,,,,,,,,,,,,,,,,,,,,,,,,,,,,,,,
295096,2022-10-06_19h58.18.901,vts_reward_expectancy,2022.2.4,Win32,62.09251785,Chrome,1280,720,,,,,,,,,,,,,,,,,,,,,,,181,H,triangle,1,0,,,1,,,,,,j,0.7779,1,0,1,0,1,,,,,,,,,,,,,,,,,,,,,,,,,,,,,,,,,,
295096,2022-10-06_19h58.18.901,vts_reward_expectancy,2022.2.4,Win32,62.09251785,Chrome,1280,720,,,,,,,,,,,,,,,,,,,,,,,167,F,hexagon,1,0,,,1,,,,,,j,0.8893,2,0,2,0,1,,,,,,,,,,,,,,,,,,,,,,,,,,,,,,,,,,
295096,2022-10-06_19h58.18.901,vts_reward_expectancy,2022.2.4,Win32,62.09251785,Chrome,1280,720,,,,,,,,,,,,,,,,,,,,,,,174,D,circle,1,0,,,1,,,,,,j,0.8902,3,0,3,0,1,,,,,,,,,,,,,,,,,,,,,,,,,,,,,,,,,,
295096,2022-10-06_19h58.18.901,vts_reward_expectancy,2022.2.4,Win32,62.09251785,Chrome,1280,720,,,,,,,,,,,,,,,,,,,,,,,146,B,star,1,0,,,1,,,,,,j,0.556,4,0,4,0,1,,,,,,,,,,,,,,,,,,,,,,,,,,,,,,,,,,
295096,2022-10-06_19h58.18.901,vts_reward_expectancy,2022.2.4,Win32,62.09251785,Chrome,1280,720,,,,,,,,,,,,,,,,,,,,,,,139,Y,triangle,1,0,,,1,,,,,,k,1.9705,5,0,5,0,1,,,,,,,,,,,,,,,,,,,,,,,,,,,,,,,,,,
295096,2022-10-06_19h58.18.901,vts_reward_expectancy,2022.2.4,Win32,62.09251785,Chrome,1280,720,,,,,,,,,,,,,,,,,,,,,,,132,U,hexagon,1,0,,,1,,,,,,k,1.0538,6,0,6,0,1,,,,,,,,,,,,,,,,,,,,,,,,,,,,,,,,,,
295096,2022-10-06_19h58.18.901,vts_reward_expectancy,2022.2.4,Win32,62.09251785,Chrome,1280,720,,,,,,,,,,,,,,,,,,,,,,,125,S,circle,1,0,,,1,,,,,,k,0.9074,7,0,7,0,1,,,,,,,,,,,,,,,,,,,,,,,,,,,,,,,,,,
295096,2022-10-06_19h58.18.901,vts_reward_expectancy,2022.2.4,Win32,62.09251785,Chrome,1280,720,,,,,,,,,,,,,,,,,,,,,,,160,W,star,1,0,,,1,,,,,,k,0.608,8,0,8,0,1,,,,,,,,,,,,,,,,,,,,,,,,,,,,,,,,,,
295096,2022-10-06_19h58.18.901,vts_reward_expectancy,2022.2.4,Win32,62.09251785,Chrome,1280,720,,,,,,,,,,,,,,,,,,,,,,,181,H,circle,1,0,,,1,,,,,,j,0.7118,9,0,9,0,1,,,,,,,,,,,,,,,,,,,,,,,,,,,,,,,,,,
295096,2022-10-06_19h58.18.901,vts_reward_expectancy,2022.2.4,Win32,62.09251785,Chrome,1280,720,,,,,0,585,,,,,,,,,,,,,,,,,160,Y,hexagon,0,0,,,2,,,,,,,,,,,,,-1,number,NA,d,1.6934,vtsPrac,0,0,0,0,1,,,,,,,,,,,,,,,,,,,,,,,
295096,2022-10-06_19h58.18.901,vts_reward_expectancy,2022.2.4,Win32,62.09251785,Chrome,1280,720,,,,,0,585,,,,,,,,,,,,,,,,,181,F,star,1,1,,,2,,,,,,,,,,,,,switch,letter,lettSwt,j,0.8344,vtsPrac,1,0,1,0,1,,,,,,,,,,,,,,,,,,,,,,,
295096,2022-10-06_19h58.18.901,vts_reward_expectancy,2022.2.4,Win32,62.09251785,Chrome,1280,720,,,,,0,585,,,,,,,,,,,,,,,,,132,S,hexagon,1,0,,,2,,,,,,,,,,,,,switch,number,numSwt,d,0.639,vtsPrac,2,0,2,0,1,,,,,,,,,,,,,,,,,,,,,,,
295096,2022-10-06_19h58.18.901,vts_reward_expectancy,2022.2.4,Win32,62.09251785,Chrome,1280,720,,,,,0,585,,,,,,,,,,,,,,,,,139,H,star,1,0,,,2,,,,,,,,,,,,,switch,letter,lettSwt,j,0.8028,vtsPrac,3,0,3,0,1,,,,,,,,,,,,,,,,,,,,,,,
295096,2022-10-06_19h58.18.901,vts_reward_expectancy,2022.2.4,Win32,62.09251785,Chrome,1280,720,,,,,0,585,,,,,,,,,,,,,,,,,160,Y,hexagon,1,0,,,2,,,,,,,,,,,,,switch,number,numSwt,f,0.3884,vtsPrac,4,0,4,0,1,,,,,,,,,,,,,,,,,,,,,,,
295096,2022-10-06_19h58.18.901,vts_reward_expectancy,2022.2.4,Win32,62.09251785,Chrome,1280,720,,,,,0,585,,,,,,,,,,,,,,,,,181,F,triangle,1,0,,,2,,,,,,,,,,,,,switch,letter,lettSwt,j,0.6536,vtsPrac,5,0,5,0,1,,,,,,,,,,,,,,,,,,,,,,,
295096,2022-10-06_19h58.18.901,vts_reward_expectancy,2022.2.4,Win32,62.09251785,Chrome,1280,720,,,,,0,585,,,,,,,,,,,,,,,,,132,S,circle,1,0,,,2,,,,,,,,,,,,,repeat,letter,lettRpt,k,0.6691,vtsPrac,6,0,6,0,1,,,,,,,,,,,,,,,,,,,,,,,
295096,2022-10-06_19h58.18.901,vts_reward_expectancy,2022.2.4,Win32,62.09251785,Chrome,1280,720,,,,,0,585,,,,,,,,,,,,,,,,,139,H,star,1,0,,,2,,,,,,,,,,,,,switch,number,numSwt,d,0.6951,vtsPrac,7,0,7,0,1,,,,,,,,,,,,,,,,,,,,,,,
295096,2022-10-06_19h58.18.901,vts_reward_expectancy,2022.2.4,Win32,62.09251785,Chrome,1280,720,,,,,0,585,,,,,,,,,,,,,,,,,174,B,circle,1,0,,,2,,,,,,,,,,,,,repeat,number,numRpt,f,0.5198,vtsPrac,8,0,8,0,1,,,,,,,,,,,,,,,,,,,,,,,
295096,2022-10-06_19h58.18.901,vts_reward_expectancy,2022.2.4,Win32,62.09251785,Chrome,1280,720,,,,,0,585,,,,,,,,,,,,,,,,,181,S,hexagon,1,0,,,2,,,,,,,,,,,,,switch,letter,lettSwt,k,0.6603,vtsPrac,9,0,9,0,1,,,,,,,,,,,,,,,,,,,,,,,
295096,2022-10-06_19h58.18.901,vts_reward_expectancy,2022.2.4,Win32,62.09251785,Chrome,1280,720,,,,,0,585,,,,,,,,,,,,,,,,,125,F,hexagon,1,0,,,2,,,,,,,,,,,,,switch,number,numSwt,d,0.5582,vtsPrac,10,0,10,0,1,,,,,,,,,,,,,,,,,,,,,,,
295096,2022-10-06_19h58.18.901,vts_reward_expectancy,2022.2.4,Win32,62.09251785,Chrome,1280,720,,,,,0,585,,,,,,,,,,,,,,,,,146,U,circle,1,0,,,2,,,,,,,,,,,,,repeat,number,numRpt,d,0.8115,vtsPrac,11,0,11,0,1,,,,,,,,,,,,,,,,,,,,,,,
295096,2022-10-06_19h58.18.901,vts_reward_expectancy,2022.2.4,Win32,62.09251785,Chrome,1280,720,,,,,0,585,,,,,,,,,,,,,,,,,181,D,hexagon,1,0,,,2,,,,,,,,,,,,,repeat,number,numRpt,f,1.4895,vtsPrac,12,0,12,0,1,,,,,,,,,,,,,,,,,,,,,,,
295096,2022-10-06_19h58.18.901,vts_reward_expectancy,2022.2.4,Win32,62.09251785,Chrome,1280,720,,,,,0,585,,,,,,,,,,,,,,,,,125,F,triangle,1,0,,,2,,,,,,,,,,,,,switch,letter,lettSwt,j,0.5525,vtsPrac,13,0,13,0,1,,,,,,,,,,,,,,,,,,,,,,,
295096,2022-10-06_19h58.18.901,vts_reward_expectancy,2022.2.4,Win32,62.09251785,Chrome,1280,720,,,,,0,585,,,,,,,,,,,,,,,,,167,S,circle,1,0,,,2,,,,,,,,,,,,,repeat,letter,lettRpt,k,0.5836,vtsPrac,14,0,14,0,1,,,,,,,,,,,,,,,,,,,,,,,
295096,2022-10-06_19h58.18.901,vts_reward_expectancy,2022.2.4,Win32,62.09251785,Chrome,1280,720,,,,,0,585,,,,,,,,,,,,,,,,,132,B,triangle,0,0,,,2,,,,,,,,,,,,,switch,number,NA,f,1.4183,vtsPrac,15,0,15,0,1,,,,,,,,,,,,,,,,,,,,,,,
295096,2022-10-06_19h58.18.901,vts_reward_expectancy,2022.2.4,Win32,62.09251785,Chrome,1280,720,,,,,,,,,,,,,,,,,,,,,,,,,,,,,,,,,,,,,,,,,,,,,,,,,,,,,,,,,,,,,,,,,,,,,,,,,,,,
295096,2022-10-06_19h58.18.901,vts_reward_expectancy,2022.2.4,Win32,62.09251785,Chrome,1280,720,,,,,,,,,,,,,,,,,,,,,,,,,,,,,,,,,,,,,,,,,,,,,,,,,,,,,,,,,,,,,,,,,,,,,,,,,,,,
295096,2022-10-06_19h58.18.901,vts_reward_expectancy,2022.2.4,Win32,62.09251785,Chrome,1280,720,,,,,0,585,,,,,,,,,,,,,,,,,167,H,star,1,1,,,,,,,,,,,,,,,,repeat,number,numRpt,f,1.1841,noRew,,,,,,0,0,0,0,0,1,,,,,,,,,,,,,,,,,
295096,2022-10-06_19h58.18.901,vts_reward_expectancy,2022.2.4,Win32,62.09251785,Chrome,1280,720,,,,,0,585,,,,,,,,,,,,,,,,,160,W,triangle,1,0,,,,,,,,,,,,,,,,switch,letter,lettSwt,k,0.4882,noRew,,,,,,0,1,0,1,0,1,,,,,,,,,,,,,,,,,
295096,2022-10-06_19h58.18.901,vts_reward_expectancy,2022.2.4,Win32,62.09251785,Chrome,1280,720,,,,,0,585,,,,,,,,,,,,,,,,,139,F,star,1,0,,,,,,,,,,,,,,,,switch,number,numSwt,d,0.5704,noRew,,,,,,0,2,0,2,0,1,,,,,,,,,,,,,,,,,
295096,2022-10-06_19h58.18.901,vts_reward_expectancy,2022.2.4,Win32,62.09251785,Chrome,1280,720,,,,,0,585,,,,,,,,,,,,,,,,,132,S,triangle,1,0,,,,,,,,,,,,,,,,repeat,number,numRpt,d,0.8529,noRew,,,,,,0,3,0,3,0,1,,,,,,,,,,,,,,,,,
295096,2022-10-06_19h58.18.901,vts_reward_expectancy,2022.2.4,Win32,62.09251785,Chrome,1280,720,,,,,0,585,,,,,,,,,,,,,,,,,167,H,triangle,1,0,,,,,,,,,,,,,,,,switch,letter,lettSwt,j,0.7536,noRew,,,,,,0,4,0,4,0,1,,,,,,,,,,,,,,,,,
295096,2022-10-06_19h58.18.901,vts_reward_expectancy,2022.2.4,Win32,62.09251785,Chrome,1280,720,,,,,0,585,,,,,,,,,,,,,,,,,160,W,hexagon,1,0,,,,,,,,,,,,,,,,repeat,letter,lettRpt,k,0.626,noRew,,,,,,0,5,0,5,0,1,,,,,,,,,,,,,,,,,
295096,2022-10-06_19h58.18.901,vts_reward_expectancy,2022.2.4,Win32,62.09251785,Chrome,1280,720,,,,,0,585,,,,,,,,,,,,,,,,,139,F,star,1,0,,,,,,,,,,,,,,,,repeat,letter,lettRpt,j,0.8013,noRew,,,,,,0,6,0,6,0,1,,,,,,,,,,,,,,,,,
295096,2022-10-06_19h58.18.901,vts_reward_expectancy,2022.2.4,Win32,62.09251785,Chrome,1280,720,,,,,0,585,,,,,,,,,,,,,,,,,132,S,hexagon,1,0,,,,,,,,,,,,,,,,switch,number,numSwt,d,0.9181,noRew,,,,,,0,7,0,7,0,1,,,,,,,,,,,,,,,,,
295096,2022-10-06_19h58.18.901,vts_reward_expectancy,2022.2.4,Win32,62.09251785,Chrome,1280,720,,,,,0,585,,,,,,,,,,,,,,,,,174,Y,triangle,1,0,,,,,,,,,,,,,,,,repeat,number,numRpt,f,1.7503,noRew,,,,,,0,8,0,8,0,1,,,,,,,,,,,,,,,,,
295096,2022-10-06_19h58.18.901,vts_reward_expectancy,2022.2.4,Win32,62.09251785,Chrome,1280,720,,,,,0,585,,,,,,,,,,,,,,,,,139,H,hexagon,1,0,,,,,,,,,,,,,,,,repeat,number,numRpt,d,0.8181,noRew,,,,,,0,9,0,9,0,1,,,,,,,,,,,,,,,,,
295096,2022-10-06_19h58.18.901,vts_reward_expectancy,2022.2.4,Win32,62.09251785,Chrome,1280,720,,,,,0,585,,,,,,,,,,,,,,,,,167,D,hexagon,1,0,,,,,,,,,,,,,,,,switch,letter,lettSwt,j,0.8844,noRew,,,,,,0,10,0,10,0,1,,,,,,,,,,,,,,,,,
295096,2022-10-06_19h58.18.901,vts_reward_expectancy,2022.2.4,Win32,62.09251785,Chrome,1280,720,,,,,0,585,,,,,,,,,,,,,,,,,181,W,circle,1,0,,,,,,,,,,,,,,,,switch,number,numSwt,f,0.6508,noRew,,,,,,0,11,0,11,0,1,,,,,,,,,,,,,,,,,
295096,2022-10-06_19h58.18.901,vts_reward_expectancy,2022.2.4,Win32,62.09251785,Chrome,1280,720,,,,,0,585,,,,,,,,,,,,,,,,,181,Y,circle,1,0,,,,,,,,,,,,,,,,repeat,number,numRpt,f,1.0009,noRew,,,,,,0,12,0,12,0,1,,,,,,,,,,,,,,,,,
295096,2022-10-06_19h58.18.901,vts_reward_expectancy,2022.2.4,Win32,62.09251785,Chrome,1280,720,,,,,0,585,,,,,,,,,,,,,,,,,174,W,hexagon,1,0,,,,,,,,,,,,,,,,switch,letter,lettSwt,k,0.7757,noRew,,,,,,0,13,0,13,0,1,,,,,,,,,,,,,,,,,
295096,2022-10-06_19h58.18.901,vts_reward_expectancy,2022.2.4,Win32,62.09251785,Chrome,1280,720,,,,,0,585,,,,,,,,,,,,,,,,,160,H,circle,1,0,,,,,,,,,,,,,,,,switch,number,numSwt,f,0.6456,noRew,,,,,,0,14,0,14,0,1,,,,,,,,,,,,,,,,,
295096,2022-10-06_19h58.18.901,vts_reward_expectancy,2022.2.4,Win32,62.09251785,Chrome,1280,720,,,,,0,585,,,,,,,,,,,,,,,,,146,B,star,1,0,,,,,,,,,,,,,,,,repeat,number,numRpt,d,0.6615,noRew,,,,,,0,15,0,15,0,1,,,,,,,,,,,,,,,,,
295096,2022-10-06_19h58.18.901,vts_reward_expectancy,2022.2.4,Win32,62.09251785,Chrome,1280,720,,,,,0,585,,,,,,,,,,,,,,,,,160,D,star,1,0,,,,,,,,,,,,,,,,switch,letter,lettSwt,j,0.6121,noRew,,,,,,0,16,0,16,0,1,,,,,,,,,,,,,,,,,
295096,2022-10-06_19h58.18.901,vts_reward_expectancy,2022.2.4,Win32,62.09251785,Chrome,1280,720,,,,,0,585,,,,,,,,,,,,,,,,,125,H,hexagon,1,0,,,,,,,,,,,,,,,,repeat,letter,lettRpt,j,0.5784,noRew,,,,,,0,17,0,17,0,1,,,,,,,,,,,,,,,,,
295096,2022-10-06_19h58.18.901,vts_reward_expectancy,2022.2.4,Win32,62.09251785,Chrome,1280,720,,,,,0,585,,,,,,,,,,,,,,,,,167,F,circle,1,0,,,,,,,,,,,,,,,,repeat,letter,lettRpt,j,0.6178,noRew,,,,,,0,18,0,18,0,1,,,,,,,,,,,,,,,,,
295096,2022-10-06_19h58.18.901,vts_reward_expectancy,2022.2.4,Win32,62.09251785,Chrome,1280,720,,,,,0,585,,,,,,,,,,,,,,,,,132,S,star,1,0,,,,,,,,,,,,,,,,repeat,letter,lettRpt,k,0.5243,noRew,,,,,,0,19,0,19,0,1,,,,,,,,,,,,,,,,,
295096,2022-10-06_19h58.18.901,vts_reward_expectancy,2022.2.4,Win32,62.09251785,Chrome,1280,720,,,,,0,585,,,,,,,,,,,,,,,,,132,Y,star,1,0,,,,,,,,,,,,,,,,repeat,letter,lettRpt,k,0.952,noRew,,,,,,0,20,0,20,0,1,,,,,,,,,,,,,,,,,
295096,2022-10-06_19h58.18.901,vts_reward_expectancy,2022.2.4,Win32,62.09251785,Chrome,1280,720,,,,,0,585,,,,,,,,,,,,,,,,,167,B,hexagon,1,0,,,,,,,,,,,,,,,,switch,number,numSwt,f,0.8177,noRew,,,,,,0,21,0,21,0,1,,,,,,,,,,,,,,,,,
295096,2022-10-06_19h58.18.901,vts_reward_expectancy,2022.2.4,Win32,62.09251785,Chrome,1280,720,,,,,0,585,,,,,,,,,,,,,,,,,160,D,circle,1,0,,,,,,,,,,,,,,,,repeat,number,numRpt,f,0.6221,noRew,,,,,,0,22,0,22,0,1,,,,,,,,,,,,,,,,,
295096,2022-10-06_19h58.18.901,vts_reward_expectancy,2022.2.4,Win32,62.09251785,Chrome,1280,720,,,,,0,585,,,,,,,,,,,,,,,,,146,U,hexagon,1,0,,,,,,,,,,,,,,,,switch,letter,lettSwt,k,0.943,noRew,,,,,,0,23,0,23,0,1,,,,,,,,,,,,,,,,,
295096,2022-10-06_19h58.18.901,vts_reward_expectancy,2022.2.4,Win32,62.09251785,Chrome,1280,720,,,,,0,585,,,,,,,,,,,,,,,,,181,D,circle,1,0,,,,,,,,,,,,,,,,repeat,letter,lettRpt,j,0.5225,noRew,,,,,,0,24,0,24,0,1,,,,,,,,,,,,,,,,,
295096,2022-10-06_19h58.18.901,vts_reward_expectancy,2022.2.4,Win32,62.09251785,Chrome,1280,720,,,,,0,585,,,,,,,,,,,,,,,,,139,B,triangle,1,0,,,,,,,,,,,,,,,,switch,number,numSwt,d,0.8552,noRew,,,,,,0,25,0,25,0,1,,,,,,,,,,,,,,,,,
295096,2022-10-06_19h58.18.901,vts_reward_expectancy,2022.2.4,Win32,62.09251785,Chrome,1280,720,,,,,0,585,,,,,,,,,,,,,,,,,146,S,star,1,0,,,,,,,,,,,,,,,,switch,letter,lettSwt,k,0.6566,noRew,,,,,,0,26,0,26,0,1,,,,,,,,,,,,,,,,,
295096,2022-10-06_19h58.18.901,vts_reward_expectancy,2022.2.4,Win32,62.09251785,Chrome,1280,720,,,,,0,585,,,,,,,,,,,,,,,,,125,Y,triangle,1,0,,,,,,,,,,,,,,,,switch,number,numSwt,d,0.6674,noRew,,,,,,0,27,0,27,0,1,,,,,,,,,,,,,,,,,
295096,2022-10-06_19h58.18.901,vts_reward_expectancy,2022.2.4,Win32,62.09251785,Chrome,1280,720,,,,,0,585,,,,,,,,,,,,,,,,,139,F,circle,1,0,,,,,,,,,,,,,,,,repeat,number,numRpt,d,1.0857,noRew,,,,,,0,28,0,28,0,1,,,,,,,,,,,,,,,,,
295096,2022-10-06_19h58.18.901,vts_reward_expectancy,2022.2.4,Win32,62.09251785,Chrome,1280,720,,,,,0,585,,,,,,,,,,,,,,,,,125,S,star,1,0,,,,,,,,,,,,,,,,switch,letter,lettSwt,k,0.7149,noRew,,,,,,0,29,0,29,0,1,,,,,,,,,,,,,,,,,
295096,2022-10-06_19h58.18.901,vts_reward_expectancy,2022.2.4,Win32,62.09251785,Chrome,1280,720,,,,,0,585,,,,,,,,,,,,,,,,,146,D,triangle,1,0,,,,,,,,,,,,,,,,switch,number,numSwt,d,1.1509,noRew,,,,,,0,30,0,30,0,1,,,,,,,,,,,,,,,,,
295096,2022-10-06_19h58.18.901,vts_reward_expectancy,2022.2.4,Win32,62.09251785,Chrome,1280,720,,,,,0,585,,,,,,,,,,,,,,,,,174,B,hexagon,0,0,,,,,,,,,,,,,,,,repeat,number,NA,d,0.817,noRew,,,,,,0,31,0,31,0,1,,,,,,,,,,,,,,,,,
295096,2022-10-06_19h58.18.901,vts_reward_expectancy,2022.2.4,Win32,62.09251785,Chrome,1280,720,,,,,0,585,,,,,,,,,,,,,,,,,132,W,circle,1,1,,,,,,,,,,,,,,,,switch,letter,lettSwt,k,0.7877,noRew,,,,,,0,32,0,32,0,1,,,,,,,,,,,,,,,,,
295096,2022-10-06_19h58.18.901,vts_reward_expectancy,2022.2.4,Win32,62.09251785,Chrome,1280,720,,,,,0,585,,,,,,,,,,,,,,,,,139,F,star,1,0,,,,,,,,,,,,,,,,switch,number,numSwt,d,1.0854,noRew,,,,,,0,33,0,33,0,1,,,,,,,,,,,,,,,,,
295096,2022-10-06_19h58.18.901,vts_reward_expectancy,2022.2.4,Win32,62.09251785,Chrome,1280,720,,,,,0,585,,,,,,,,,,,,,,,,,181,S,star,1,0,,,,,,,,,,,,,,,,switch,letter,lettSwt,k,0.6421,noRew,,,,,,0,34,0,34,0,1,,,,,,,,,,,,,,,,,
295096,2022-10-06_19h58.18.901,vts_reward_expectancy,2022.2.4,Win32,62.09251785,Chrome,1280,720,,,,,0,585,,,,,,,,,,,,,,,,,167,H,hexagon,1,0,,,,,,,,,,,,,,,,switch,number,numSwt,f,1.0837,noRew,,,,,,0,35,0,35,0,1,,,,,,,,,,,,,,,,,
295096,2022-10-06_19h58.18.901,vts_reward_expectancy,2022.2.4,Win32,62.09251785,Chrome,1280,720,,,,,0,585,,,,,,,,,,,,,,,,,174,B,circle,1,0,,,,,,,,,,,,,,,,switch,letter,lettSwt,j,0.6879,noRew,,,,,,0,36,0,36,0,1,,,,,,,,,,,,,,,,,
295096,2022-10-06_19h58.18.901,vts_reward_expectancy,2022.2.4,Win32,62.09251785,Chrome,1280,720,,,,,0,585,,,,,,,,,,,,,,,,,181,W,triangle,1,0,,,,,,,,,,,,,,,,repeat,letter,lettRpt,k,0.5756,noRew,,,,,,0,37,0,37,0,1,,,,,,,,,,,,,,,,,
295096,2022-10-06_19h58.18.901,vts_reward_expectancy,2022.2.4,Win32,62.09251785,Chrome,1280,720,,,,,0,585,,,,,,,,,,,,,,,,,160,S,triangle,1,0,,,,,,,,,,,,,,,,repeat,letter,lettRpt,k,1.6886,noRew,,,,,,0,38,0,38,0,1,,,,,,,,,,,,,,,,,
295096,2022-10-06_19h58.18.901,vts_reward_expectancy,2022.2.4,Win32,62.09251785,Chrome,1280,720,,,,,0,585,,,,,,,,,,,,,,,,,125,Y,circle,1,0,,,,,,,,,,,,,,,,repeat,letter,lettRpt,k,0.6182,noRew,,,,,,0,39,0,39,0,1,,,,,,,,,,,,,,,,,
295096,2022-10-06_19h58.18.901,vts_reward_expectancy,2022.2.4,Win32,62.09251785,Chrome,1280,720,,,,,0,585,,,,,,,,,,,,,,,,,139,S,triangle,1,0,,,,,,,,,,,,,,,,repeat,letter,lettRpt,k,0.9535,noRew,,,,,,0,40,0,40,0,1,,,,,,,,,,,,,,,,,
295096,2022-10-06_19h58.18.901,vts_reward_expectancy,2022.2.4,Win32,62.09251785,Chrome,1280,720,,,,,0,585,,,,,,,,,,,,,,,,,167,H,circle,1,0,,,,,,,,,,,,,,,,repeat,letter,lettRpt,j,1.0114,noRew,,,,,,0,41,0,41,0,1,,,,,,,,,,,,,,,,,
295096,2022-10-06_19h58.18.901,vts_reward_expectancy,2022.2.4,Win32,62.09251785,Chrome,1280,720,,,,,0,585,,,,,,,,,,,,,,,,,132,Y,star,1,0,,,,,,,,,,,,,,,,repeat,letter,lettRpt,k,0.9509,noRew,,,,,,0,42,0,42,0,1,,,,,,,,,,,,,,,,,
295096,2022-10-06_19h58.18.901,vts_reward_expectancy,2022.2.4,Win32,62.09251785,Chrome,1280,720,,,,,0,585,,,,,,,,,,,,,,,,,125,U,circle,1,0,,,,,,,,,,,,,,,,repeat,letter,lettRpt,k,0.8675,noRew,,,,,,0,43,0,43,0,1,,,,,,,,,,,,,,,,,
295096,2022-10-06_19h58.18.901,vts_reward_expectancy,2022.2.4,Win32,62.09251785,Chrome,1280,720,,,,,0,585,,,,,,,,,,,,,,,,,174,B,star,1,0,,,,,,,,,,,,,,,,repeat,letter,lettRpt,j,0.8245,noRew,,,,,,0,44,0,44,0,1,,,,,,,,,,,,,,,,,
295096,2022-10-06_19h58.18.901,vts_reward_expectancy,2022.2.4,Win32,62.09251785,Chrome,1280,720,,,,,0,585,,,,,,,,,,,,,,,,,167,Y,circle,1,0,,,,,,,,,,,,,,,,repeat,letter,lettRpt,k,0.8701,noRew,,,,,,0,45,0,45,0,1,,,,,,,,,,,,,,,,,
295096,2022-10-06_19h58.18.901,vts_reward_expectancy,2022.2.4,Win32,62.09251785,Chrome,1280,720,,,,,0,585,,,,,,,,,,,,,,,,,132,U,hexagon,1,0,,,,,,,,,,,,,,,,switch,number,numSwt,d,2.8021,noRew,,,,,,0,46,0,46,0,1,,,,,,,,,,,,,,,,,
295096,2022-10-06_19h58.18.901,vts_reward_expectancy,2022.2.4,Win32,62.09251785,Chrome,1280,720,,,,,0,585,,,,,,,,,,,,,,,,,125,F,triangle,1,0,,,,,,,,,,,,,,,,switch,letter,lettSwt,j,1.2518,noRew,,,,,,0,47,0,47,0,1,,,,,,,,,,,,,,,,,
295096,2022-10-06_19h58.18.901,vts_reward_expectancy,2022.2.4,Win32,62.09251785,Chrome,1280,720,,,,,0,585,,,,,,,,,,,,,,,,,132,F,hexagon,1,0,,,,,,,,,,,,,,,,repeat,letter,lettRpt,j,1.6715,noRew,,,,,,0,48,0,48,0,1,,,,,,,,,,,,,,,,,
295096,2022-10-06_19h58.18.901,vts_reward_expectancy,2022.2.4,Win32,62.09251785,Chrome,1280,720,,,,,0,585,,,,,,,,,,,,,,,,,181,W,circle,1,0,,,,,,,,,,,,,,,,repeat,letter,lettRpt,k,1.0186,noRew,,,,,,0,49,0,49,0,1,,,,,,,,,,,,,,,,,
295096,2022-10-06_19h58.18.901,vts_reward_expectancy,2022.2.4,Win32,62.09251785,Chrome,1280,720,,,,,0,585,,,,,,,,,,,,,,,,,146,Y,triangle,1,0,,,,,,,,,,,,,,,,switch,number,numSwt,d,0.9724,noRew,,,,,,0,50,0,50,0,1,,,,,,,,,,,,,,,,,
295096,2022-10-06_19h58.18.901,vts_reward_expectancy,2022.2.4,Win32,62.09251785,Chrome,1280,720,,,,,0,585,,,,,,,,,,,,,,,,,174,D,star,-1,0,,,,,,,,,,,,,,,,switch,no_choice,NA,,,noRew,,,,,,0,51,0,51,0,1,,,,,,,,,,,,,,,,,
295096,2022-10-06_19h58.18.901,vts_reward_expectancy,2022.2.4,Win32,62.09251785,Chrome,1280,720,,,,,0,585,,,,,,,,,,,,,,,,,146,W,hexagon,1,0,,,,,,,,,,,,,,,,switch,letter,lettSwt,k,2.7509,noRew,,,,,,0,52,0,52,0,1,,,,,,,,,,,,,,,,,
295096,2022-10-06_19h58.18.901,vts_reward_expectancy,2022.2.4,Win32,62.09251785,Chrome,1280,720,,,,,0,585,,,,,,,,,,,,,,,,,160,D,star,1,0,,,,,,,,,,,,,,,,switch,number,numSwt,f,1.4675,noRew,,,,,,0,53,0,53,0,1,,,,,,,,,,,,,,,,,
295096,2022-10-06_19h58.18.901,vts_reward_expectancy,2022.2.4,Win32,62.09251785,Chrome,1280,720,,,,,0,585,,,,,,,,,,,,,,,,,139,S,hexagon,1,0,,,,,,,,,,,,,,,,switch,letter,lettSwt,k,0.984,noRew,,,,,,0,54,0,54,0,1,,,,,,,,,,,,,,,,,
295096,2022-10-06_19h58.18.901,vts_reward_expectancy,2022.2.4,Win32,62.09251785,Chrome,1280,720,,,,,0,585,,,,,,,,,,,,,,,,,167,B,star,1,0,,,,,,,,,,,,,,,,repeat,letter,lettRpt,j,0.7018,noRew,,,,,,0,55,0,55,0,1,,,,,,,,,,,,,,,,,
295096,2022-10-06_19h58.18.901,vts_reward_expectancy,2022.2.4,Win32,62.09251785,Chrome,1280,720,,,,,0,585,,,,,,,,,,,,,,,,,132,U,triangle,1,0,,,,,,,,,,,,,,,,repeat,letter,lettRpt,k,0.8176,noRew,,,,,,0,56,0,56,0,1,,,,,,,,,,,,,,,,,
295096,2022-10-06_19h58.18.901,vts_reward_expectancy,2022.2.4,Win32,62.09251785,Chrome,1280,720,,,,,0,585,,,,,,,,,,,,,,,,,174,S,hexagon,1,0,,,,,,,,,,,,,,,,switch,number,numSwt,f,0.7181,noRew,,,,,,0,57,0,57,0,1,,,,,,,,,,,,,,,,,
295096,2022-10-06_19h58.18.901,vts_reward_expectancy,2022.2.4,Win32,62.09251785,Chrome,1280,720,,,,,0,585,,,,,,,,,,,,,,,,,146,H,hexagon,1,0,,,,,,,,,,,,,,,,repeat,number,numRpt,d,0.9553,noRew,,,,,,0,58,0,58,0,1,,,,,,,,,,,,,,,,,
295096,2022-10-06_19h58.18.901,vts_reward_expectancy,2022.2.4,Win32,62.09251785,Chrome,1280,720,,,,,0,585,,,,,,,,,,,,,,,,,160,W,triangle,1,0,,,,,,,,,,,,,,,,switch,letter,lettSwt,k,1.0035,noRew,,,,,,0,59,0,59,0,1,,,,,,,,,,,,,,,,,
295096,2022-10-06_19h58.18.901,vts_reward_expectancy,2022.2.4,Win32,62.09251785,Chrome,1280,720,,,,,0,585,,,,,,,,,,,,,,,,,139,W,star,1,0,,,,,,,,,,,,,,,,switch,number,numSwt,d,1.2599,noRew,,,,,,0,60,0,60,0,1,,,,,,,,,,,,,,,,,
295096,2022-10-06_19h58.18.901,vts_reward_expectancy,2022.2.4,Win32,62.09251785,Chrome,1280,720,,,,,0,585,,,,,,,,,,,,,,,,,181,S,circle,1,0,,,,,,,,,,,,,,,,repeat,number,numRpt,f,1.4552,noRew,,,,,,0,61,0,61,0,1,,,,,,,,,,,,,,,,,
295096,2022-10-06_19h58.18.901,vts_reward_expectancy,2022.2.4,Win32,62.09251785,Chrome,1280,720,,,,,0,585,,,,,,,,,,,,,,,,,132,B,triangle,1,0,,,,,,,,,,,,,,,,switch,letter,lettSwt,j,1.4427,noRew,,,,,,0,62,0,62,0,1,,,,,,,,,,,,,,,,,
295096,2022-10-06_19h58.18.901,vts_reward_expectancy,2022.2.4,Win32,62.09251785,Chrome,1280,720,,,,,0,585,,,,,,,,,,,,,,,,,160,D,star,1,0,,,,,,,,,,,,,,,,switch,number,numSwt,f,1.4331,noRew,,,,,,0,63,0,63,0,1,,,,,,,,,,,,,,,,,
295096,2022-10-06_19h58.18.901,vts_reward_expectancy,2022.2.4,Win32,62.09251785,Chrome,1280,720,,,,,,,,,,,,,,,,,,,,,,,,,,,,,,,,,,,,,,,,,,,,,,,,,,,,,,,,,,,,,,,,,,,,,,,,,,,,
295096,2022-10-06_19h58.18.901,vts_reward_expectancy,2022.2.4,Win32,62.09251785,Chrome,1280,720,,,,,10,595,,,,,,,,,,,,,,,,,146,D,triangle,1,0,,,,,,,,,,,,,,,,switch,letter,lettSwt,j,0.6902,Hi,,,,,,0,,,,,,space,4.624,low,0,0,0,0,1,,,,,,,,,
295096,2022-10-06_19h58.18.901,vts_reward_expectancy,2022.2.4,Win32,62.09251785,Chrome,1280,720,,,,,10,605,,,,,,,,,,,,,,,,,125,S,circle,1,0,,,,,,,,,,,,,,,,switch,number,numSwt,d,1.004,Lo,,,,,,0,,,,,,,,low,1,0,1,0,1,,,,,,,,,
295096,2022-10-06_19h58.18.901,vts_reward_expectancy,2022.2.4,Win32,62.09251785,Chrome,1280,720,,,,,10,615,,,,,,,,,,,,,,,,,132,H,triangle,1,0,,,,,,,,,,,,,,,,switch,letter,lettSwt,j,0.5586,Hi,,,,,,0,,,,,,,,low,2,0,2,0,1,,,,,,,,,
295096,2022-10-06_19h58.18.901,vts_reward_expectancy,2022.2.4,Win32,62.09251785,Chrome,1280,720,,,,,1,616,,,,,,,,,,,,,,,,,139,W,circle,1,0,,,,,,,,,,,,,,,,repeat,letter,lettRpt,k,0.5189,Lo,,,,,,0,,,,,,,,low,3,0,3,0,1,,,,,,,,,
295096,2022-10-06_19h58.18.901,vts_reward_expectancy,2022.2.4,Win32,62.09251785,Chrome,1280,720,,,,,0,616,,,,,,,,,,,,,,,,,181,Y,triangle,1,0,,,,,,,,,,,,,,,,repeat,letter,lettRpt,k,0.8357,Hi,,,,,,0,,,,,,,,low,4,0,4,0,1,,,,,,,,,
295096,2022-10-06_19h58.18.901,vts_reward_expectancy,2022.2.4,Win32,62.09251785,Chrome,1280,720,,,,,10,626,,,,,,,,,,,,,,,,,167,U,circle,1,0,,,,,,,,,,,,,,,,switch,number,numSwt,f,0.6177,Lo,,,,,,0,,,,,,,,low,5,0,5,0,1,,,,,,,,,
295096,2022-10-06_19h58.18.901,vts_reward_expectancy,2022.2.4,Win32,62.09251785,Chrome,1280,720,,,,,1,627,,,,,,,,,,,,,,,,,174,B,triangle,1,0,,,,,,,,,,,,,,,,repeat,number,numRpt,f,0.6109,Hi,,,,,,0,,,,,,,,low,6,0,6,0,1,,,,,,,,,
295096,2022-10-06_19h58.18.901,vts_reward_expectancy,2022.2.4,Win32,62.09251785,Chrome,1280,720,,,,,1,628,,,,,,,,,,,,,,,,,160,F,circle,1,0,,,,,,,,,,,,,,,,switch,letter,lettSwt,j,0.5859,Lo,,,,,,0,,,,,,,,low,7,0,7,0,1,,,,,,,,,
295096,2022-10-06_19h58.18.901,vts_reward_expectancy,2022.2.4,Win32,62.09251785,Chrome,1280,720,,,,,10,638,,,,,,,,,,,,,,,,,146,D,triangle,1,0,,,,,,,,,,,,,,,,switch,number,numSwt,d,0.6291,Hi,,,,,,0,,,,,,,,low,8,0,8,0,1,,,,,,,,,
295096,2022-10-06_19h58.18.901,vts_reward_expectancy,2022.2.4,Win32,62.09251785,Chrome,1280,720,,,,,1,639,,,,,,,,,,,,,,,,,125,S,circle,1,0,,,,,,,,,,,,,,,,switch,letter,lettSwt,k,0.6843,Lo,,,,,,0,,,,,,,,low,9,0,9,0,1,,,,,,,,,
295096,2022-10-06_19h58.18.901,vts_reward_expectancy,2022.2.4,Win32,62.09251785,Chrome,1280,720,,,,,0,639,,,,,,,,,,,,,,,,,132,H,triangle,1,0,,,,,,,,,,,,,,,,switch,number,numSwt,d,1.2676,Hi,,,,,,0,,,,,,,,low,10,0,10,0,1,,,,,,,,,
295096,2022-10-06_19h58.18.901,vts_reward_expectancy,2022.2.4,Win32,62.09251785,Chrome,1280,720,,,,,1,640,,,,,,,,,,,,,,,,,139,W,circle,1,0,,,,,,,,,,,,,,,,switch,letter,lettSwt,k,0.6217,Lo,,,,,,0,,,,,,,,low,11,0,11,0,1,,,,,,,,,
295096,2022-10-06_19h58.18.901,vts_reward_expectancy,2022.2.4,Win32,62.09251785,Chrome,1280,720,,,,,1,641,,,,,,,,,,,,,,,,,181,Y,circle,1,0,,,,,,,,,,,,,,,,switch,number,numSwt,f,0.8291,Lo,,,,,,0,,,,,,,,low,12,0,12,0,1,,,,,,,,,
295096,2022-10-06_19h58.18.901,vts_reward_expectancy,2022.2.4,Win32,62.09251785,Chrome,1280,720,,,,,0,641,,,,,,,,,,,,,,,,,167,U,triangle,1,0,,,,,,,,,,,,,,,,switch,letter,lettSwt,k,1.0429,Hi,,,,,,0,,,,,,,,low,13,0,13,0,1,,,,,,,,,
295096,2022-10-06_19h58.18.901,vts_reward_expectancy,2022.2.4,Win32,62.09251785,Chrome,1280,720,,,,,0,641,,,,,,,,,,,,,,,,,174,B,triangle,1,0,,,,,,,,,,,,,,,,repeat,letter,lettRpt,j,0.8665,Hi,,,,,,0,,,,,,,,low,14,0,14,0,1,,,,,,,,,
295096,2022-10-06_19h58.18.901,vts_reward_expectancy,2022.2.4,Win32,62.09251785,Chrome,1280,720,,,,,10,651,,,,,,,,,,,,,,,,,160,F,circle,1,0,,,,,,,,,,,,,,,,switch,number,numSwt,f,0.659,Lo,,,,,,0,,,,,,,,low,15,0,15,0,1,,,,,,,,,
295096,2022-10-06_19h58.18.901,vts_reward_expectancy,2022.2.4,Win32,62.09251785,Chrome,1280,720,,,,,10,661,,,,,,,,,,,,,,,,,167,F,circle,1,0,,,,,,,,,,,,,,,,repeat,number,numRpt,f,0.5717,Lo,,,,,,0,,,,,,,,low,16,0,16,0,1,,,,,,,,,
295096,2022-10-06_19h58.18.901,vts_reward_expectancy,2022.2.4,Win32,62.09251785,Chrome,1280,720,,,,,0,661,,,,,,,,,,,,,,,,,139,H,triangle,1,0,,,,,,,,,,,,,,,,repeat,number,numRpt,d,0.9178,Hi,,,,,,0,,,,,,,,low,17,0,17,0,1,,,,,,,,,
295096,2022-10-06_19h58.18.901,vts_reward_expectancy,2022.2.4,Win32,62.09251785,Chrome,1280,720,,,,,0,661,,,,,,,,,,,,,,,,,132,D,circle,0,0,,,,,,,,,,,,,,,,repeat,number,NA,f,0.8431,Hi,,,,,,0,,,,,,,,low,18,0,18,0,1,,,,,,,,,
295096,2022-10-06_19h58.18.901,vts_reward_expectancy,2022.2.4,Win32,62.09251785,Chrome,1280,720,,,,,0,661,,,,,,,,,,,,,,,,,146,U,triangle,1,1,,,,,,,,,,,,,,,,switch,letter,lettSwt,k,0.9719,Hi,,,,,,0,,,,,,,,low,19,0,19,0,1,,,,,,,,,
295096,2022-10-06_19h58.18.901,vts_reward_expectancy,2022.2.4,Win32,62.09251785,Chrome,1280,720,,,,,1,662,,,,,,,,,,,,,,,,,125,Y,triangle,1,0,,,,,,,,,,,,,,,,switch,number,numSwt,d,0.6839,Hi,,,,,,0,,,,,,,,low,20,0,20,0,1,,,,,,,,,
295096,2022-10-06_19h58.18.901,vts_reward_expectancy,2022.2.4,Win32,62.09251785,Chrome,1280,720,,,,,1,663,,,,,,,,,,,,,,,,,174,S,circle,1,0,,,,,,,,,,,,,,,,switch,letter,lettSwt,k,0.6961,Lo,,,,,,0,,,,,,,,low,21,0,21,0,1,,,,,,,,,
295096,2022-10-06_19h58.18.901,vts_reward_expectancy,2022.2.4,Win32,62.09251785,Chrome,1280,720,,,,,1,664,,,,,,,,,,,,,,,,,181,W,triangle,1,0,,,,,,,,,,,,,,,,repeat,letter,lettRpt,k,0.6217,Hi,,,,,,0,,,,,,,,low,22,0,22,0,1,,,,,,,,,
295096,2022-10-06_19h58.18.901,vts_reward_expectancy,2022.2.4,Win32,62.09251785,Chrome,1280,720,,,,,1,665,,,,,,,,,,,,,,,,,160,B,circle,1,0,,,,,,,,,,,,,,,,switch,number,numSwt,f,0.9349,Lo,,,,,,0,,,,,,,,low,23,0,23,0,1,,,,,,,,,
295096,2022-10-06_19h58.18.901,vts_reward_expectancy,2022.2.4,Win32,62.09251785,Chrome,1280,720,,,,,1,666,,,,,,,,,,,,,,,,,160,W,triangle,1,0,,,,,,,,,,,,,,,,repeat,number,numRpt,f,0.7043,Hi,,,,,,0,,,,,,,,low,24,0,24,0,1,,,,,,,,,
295096,2022-10-06_19h58.18.901,vts_reward_expectancy,2022.2.4,Win32,62.09251785,Chrome,1280,720,,,,,1,667,,,,,,,,,,,,,,,,,174,S,circle,1,0,,,,,,,,,,,,,,,,switch,letter,lettSwt,k,0.673,Lo,,,,,,0,,,,,,,,low,25,0,25,0,1,,,,,,,,,
295096,2022-10-06_19h58.18.901,vts_reward_expectancy,2022.2.4,Win32,62.09251785,Chrome,1280,720,,,,,0,667,,,,,,,,,,,,,,,,,125,D,triangle,1,0,,,,,,,,,,,,,,,,repeat,letter,lettRpt,j,0.6843,Hi,,,,,,0,,,,,,,,low,26,0,26,0,1,,,,,,,,,
295096,2022-10-06_19h58.18.901,vts_reward_expectancy,2022.2.4,Win32,62.09251785,Chrome,1280,720,,,,,1,668,,,,,,,,,,,,,,,,,146,F,circle,1,0,,,,,,,,,,,,,,,,switch,number,numSwt,d,1.1007,Lo,,,,,,0,,,,,,,,low,27,0,27,0,1,,,,,,,,,
295096,2022-10-06_19h58.18.901,vts_reward_expectancy,2022.2.4,Win32,62.09251785,Chrome,1280,720,,,,,0,668,,,,,,,,,,,,,,,,,181,H,triangle,1,0,,,,,,,,,,,,,,,,repeat,number,numRpt,f,0.9786,Hi,,,,,,0,,,,,,,,low,28,0,28,0,1,,,,,,,,,
295096,2022-10-06_19h58.18.901,vts_reward_expectancy,2022.2.4,Win32,62.09251785,Chrome,1280,720,,,,,1,669,,,,,,,,,,,,,,,,,132,Y,circle,1,0,,,,,,,,,,,,,,,,repeat,number,numRpt,d,1.4379,Lo,,,,,,0,,,,,,,,low,29,0,29,0,1,,,,,,,,,
295096,2022-10-06_19h58.18.901,vts_reward_expectancy,2022.2.4,Win32,62.09251785,Chrome,1280,720,,,,,10,679,,,,,,,,,,,,,,,,,167,B,circle,1,0,,,,,,,,,,,,,,,,repeat,number,numRpt,f,1.2438,Lo,,,,,,0,,,,,,,,low,30,0,30,0,1,,,,,,,,,
295096,2022-10-06_19h58.18.901,vts_reward_expectancy,2022.2.4,Win32,62.09251785,Chrome,1280,720,,,,,0,679,,,,,,,,,,,,,,,,,139,U,triangle,1,0,,,,,,,,,,,,,,,,switch,letter,lettSwt,k,1.0259,Hi,,,,,,0,,,,,,,,low,31,0,31,0,1,,,,,,,,,
295096,2022-10-06_19h58.18.901,vts_reward_expectancy,2022.2.4,Win32,62.09251785,Chrome,1280,720,,,,,10,689,,,,,,,,,,,,,,,,,139,H,star,1,0,,,,,,,,,,,,,,,,switch,number,numSwt,d,0.8847,Lo,,,,,,1,,,,,,space,1.8266,high,0,0,0,0,1,,,,,,,,,
295096,2022-10-06_19h58.18.901,vts_reward_expectancy,2022.2.4,Win32,62.09251785,Chrome,1280,720,,,,,10,699,,,,,,,,,,,,,,,,,167,D,hexagon,1,0,,,,,,,,,,,,,,,,switch,letter,lettSwt,j,0.4997,Hi,,,,,,1,,,,,,,,high,1,0,1,0,1,,,,,,,,,
295096,2022-10-06_19h58.18.901,vts_reward_expectancy,2022.2.4,Win32,62.09251785,Chrome,1280,720,,,,,10,709,,,,,,,,,,,,,,,,,174,S,star,1,0,,,,,,,,,,,,,,,,switch,number,numSwt,f,0.6842,Lo,,,,,,1,,,,,,,,high,2,0,2,0,1,,,,,,,,,
295096,2022-10-06_19h58.18.901,vts_reward_expectancy,2022.2.4,Win32,62.09251785,Chrome,1280,720,,,,,0,709,,,,,,,,,,,,,,,,,160,W,hexagon,1,0,,,,,,,,,,,,,,,,repeat,number,numRpt,f,0.8701,Hi,,,,,,1,,,,,,,,high,3,0,3,0,1,,,,,,,,,
295096,2022-10-06_19h58.18.901,vts_reward_expectancy,2022.2.4,Win32,62.09251785,Chrome,1280,720,,,,,0,709,,,,,,,,,,,,,,,,,181,U,hexagon,1,0,,,,,,,,,,,,,,,,repeat,number,numRpt,f,0.7683,Hi,,,,,,1,,,,,,,,high,4,0,4,0,1,,,,,,,,,
295096,2022-10-06_19h58.18.901,vts_reward_expectancy,2022.2.4,Win32,62.09251785,Chrome,1280,720,,,,,1,710,,,,,,,,,,,,,,,,,132,F,star,1,0,,,,,,,,,,,,,,,,switch,letter,lettSwt,j,0.7392,Lo,,,,,,1,,,,,,,,high,5,0,5,0,1,,,,,,,,,
295096,2022-10-06_19h58.18.901,vts_reward_expectancy,2022.2.4,Win32,62.09251785,Chrome,1280,720,,,,,0,710,,,,,,,,,,,,,,,,,125,Y,hexagon,1,0,,,,,,,,,,,,,,,,repeat,letter,lettRpt,k,1.1341,Hi,,,,,,1,,,,,,,,high,6,0,6,0,1,,,,,,,,,
295096,2022-10-06_19h58.18.901,vts_reward_expectancy,2022.2.4,Win32,62.09251785,Chrome,1280,720,,,,,1,711,,,,,,,,,,,,,,,,,146,B,star,1,0,,,,,,,,,,,,,,,,switch,number,numSwt,d,0.7338,Lo,,,,,,1,,,,,,,,high,7,0,7,0,1,,,,,,,,,
295096,2022-10-06_19h58.18.901,vts_reward_expectancy,2022.2.4,Win32,62.09251785,Chrome,1280,720,,,,,0,711,,,,,,,,,,,,,,,,,139,H,hexagon,1,0,,,,,,,,,,,,,,,,switch,letter,lettSwt,j,0.8275,Hi,,,,,,1,,,,,,,,high,8,0,8,0,1,,,,,,,,,
295096,2022-10-06_19h58.18.901,vts_reward_expectancy,2022.2.4,Win32,62.09251785,Chrome,1280,720,,,,,10,721,,,,,,,,,,,,,,,,,167,D,star,1,0,,,,,,,,,,,,,,,,switch,number,numSwt,f,0.6511,Lo,,,,,,1,,,,,,,,high,9,0,9,0,1,,,,,,,,,
295096,2022-10-06_19h58.18.901,vts_reward_expectancy,2022.2.4,Win32,62.09251785,Chrome,1280,720,,,,,1,722,,,,,,,,,,,,,,,,,174,S,star,1,0,,,,,,,,,,,,,,,,repeat,number,numRpt,f,0.5697,Lo,,,,,,1,,,,,,,,high,10,0,10,0,1,,,,,,,,,
295096,2022-10-06_19h58.18.901,vts_reward_expectancy,2022.2.4,Win32,62.09251785,Chrome,1280,720,,,,,0,722,,,,,,,,,,,,,,,,,160,W,hexagon,1,0,,,,,,,,,,,,,,,,switch,letter,lettSwt,k,1.0501,Hi,,,,,,1,,,,,,,,high,11,0,11,0,1,,,,,,,,,
295096,2022-10-06_19h58.18.901,vts_reward_expectancy,2022.2.4,Win32,62.09251785,Chrome,1280,720,,,,,0,722,,,,,,,,,,,,,,,,,181,U,star,0,0,,,,,,,,,,,,,,,,repeat,letter,NA,j,0.7773,Hi,,,,,,1,,,,,,,,high,12,0,12,0,1,,,,,,,,,
295096,2022-10-06_19h58.18.901,vts_reward_expectancy,2022.2.4,Win32,62.09251785,Chrome,1280,720,,,,,0,722,,,,,,,,,,,,,,,,,132,F,hexagon,0,1,,,,,,,,,,,,,,,,switch,number,NA,f,1.3685,Hi,,,,,,1,,,,,,,,high,13,0,13,0,1,,,,,,,,,
295096,2022-10-06_19h58.18.901,vts_reward_expectancy,2022.2.4,Win32,62.09251785,Chrome,1280,720,,,,,0,722,,,,,,,,,,,,,,,,,125,Y,star,0,1,,,,,,,,,,,,,,,,switch,letter,NA,j,0.8873,Hi,,,,,,1,,,,,,,,high,14,0,14,0,1,,,,,,,,,
295096,2022-10-06_19h58.18.901,vts_reward_expectancy,2022.2.4,Win32,62.09251785,Chrome,1280,720,,,,,0,722,,,,,,,,,,,,,,,,,146,B,hexagon,1,1,,,,,,,,,,,,,,,,repeat,letter,lettRpt,j,1.4252,Hi,,,,,,1,,,,,,,,high,15,0,15,0,1,,,,,,,,,
295096,2022-10-06_19h58.18.901,vts_reward_expectancy,2022.2.4,Win32,62.09251785,Chrome,1280,720,,,,,1,723,,,,,,,,,,,,,,,,,125,B,star,1,0,,,,,,,,,,,,,,,,switch,number,numSwt,d,0.8042,Lo,,,,,,1,,,,,,,,high,16,0,16,0,1,,,,,,,,,
295096,2022-10-06_19h58.18.901,vts_reward_expectancy,2022.2.4,Win32,62.09251785,Chrome,1280,720,,,,,0,723,,,,,,,,,,,,,,,,,174,H,hexagon,1,0,,,,,,,,,,,,,,,,switch,letter,lettSwt,j,0.6735,Hi,,,,,,1,,,,,,,,high,17,0,17,0,1,,,,,,,,,
295096,2022-10-06_19h58.18.901,vts_reward_expectancy,2022.2.4,Win32,62.09251785,Chrome,1280,720,,,,,1,724,,,,,,,,,,,,,,,,,146,D,star,1,0,,,,,,,,,,,,,,,,switch,number,numSwt,d,0.6934,Lo,,,,,,1,,,,,,,,high,18,0,18,0,1,,,,,,,,,
295096,2022-10-06_19h58.18.901,vts_reward_expectancy,2022.2.4,Win32,62.09251785,Chrome,1280,720,,,,,0,724,,,,,,,,,,,,,,,,,160,Y,hexagon,0,0,,,,,,,,,,,,,,,,repeat,number,NA,d,0.623,Lo,,,,,,1,,,,,,,,high,19,0,19,0,1,,,,,,,,,
295096,2022-10-06_19h58.18.901,vts_reward_expectancy,2022.2.4,Win32,62.09251785,Chrome,1280,720,,,,,1,725,,,,,,,,,,,,,,,,,167,F,star,1,1,,,,,,,,,,,,,,,,repeat,number,numRpt,f,0.674,Lo,,,,,,1,,,,,,,,high,20,0,20,0,1,,,,,,,,,
295096,2022-10-06_19h58.18.901,vts_reward_expectancy,2022.2.4,Win32,62.09251785,Chrome,1280,720,,,,,10,735,,,,,,,,,,,,,,,,,139,W,hexagon,1,0,,,,,,,,,,,,,,,,switch,letter,lettSwt,k,0.6579,Hi,,,,,,1,,,,,,,,high,21,0,21,0,1,,,,,,,,,
295096,2022-10-06_19h58.18.901,vts_reward_expectancy,2022.2.4,Win32,62.09251785,Chrome,1280,720,,,,,1,736,,,,,,,,,,,,,,,,,132,S,star,1,0,,,,,,,,,,,,,,,,switch,number,numSwt,d,0.7514,Lo,,,,,,1,,,,,,,,high,22,0,22,0,1,,,,,,,,,
295096,2022-10-06_19h58.18.901,vts_reward_expectancy,2022.2.4,Win32,62.09251785,Chrome,1280,720,,,,,0,736,,,,,,,,,,,,,,,,,181,U,hexagon,1,0,,,,,,,,,,,,,,,,repeat,number,numRpt,f,0.7237,Hi,,,,,,1,,,,,,,,high,23,0,23,0,1,,,,,,,,,
295096,2022-10-06_19h58.18.901,vts_reward_expectancy,2022.2.4,Win32,62.09251785,Chrome,1280,720,,,,,0,736,,,,,,,,,,,,,,,,,132,Y,hexagon,1,0,,,,,,,,,,,,,,,,repeat,number,numRpt,d,0.7049,Hi,,,,,,1,,,,,,,,high,24,0,24,0,1,,,,,,,,,
295096,2022-10-06_19h58.18.901,vts_reward_expectancy,2022.2.4,Win32,62.09251785,Chrome,1280,720,,,,,1,737,,,,,,,,,,,,,,,,,139,S,star,1,0,,,,,,,,,,,,,,,,switch,letter,lettSwt,k,0.7273,Lo,,,,,,1,,,,,,,,high,25,0,25,0,1,,,,,,,,,
295096,2022-10-06_19h58.18.901,vts_reward_expectancy,2022.2.4,Win32,62.09251785,Chrome,1280,720,,,,,10,747,,,,,,,,,,,,,,,,,181,H,hexagon,1,0,,,,,,,,,,,,,,,,switch,number,numSwt,f,0.6282,Hi,,,,,,1,,,,,,,,high,26,0,26,0,1,,,,,,,,,
295096,2022-10-06_19h58.18.901,vts_reward_expectancy,2022.2.4,Win32,62.09251785,Chrome,1280,720,,,,,1,748,,,,,,,,,,,,,,,,,125,F,star,1,0,,,,,,,,,,,,,,,,repeat,number,numRpt,d,0.7105,Lo,,,,,,1,,,,,,,,high,27,0,27,0,1,,,,,,,,,
295096,2022-10-06_19h58.18.901,vts_reward_expectancy,2022.2.4,Win32,62.09251785,Chrome,1280,720,,,,,0,748,,,,,,,,,,,,,,,,,174,U,hexagon,1,0,,,,,,,,,,,,,,,,repeat,number,numRpt,f,1.1238,Hi,,,,,,1,,,,,,,,high,28,0,28,0,1,,,,,,,,,
295096,2022-10-06_19h58.18.901,vts_reward_expectancy,2022.2.4,Win32,62.09251785,Chrome,1280,720,,,,,1,749,,,,,,,,,,,,,,,,,167,W,star,1,0,,,,,,,,,,,,,,,,repeat,number,numRpt,f,0.7389,Lo,,,,,,1,,,,,,,,high,29,0,29,0,1,,,,,,,,,
295096,2022-10-06_19h58.18.901,vts_reward_expectancy,2022.2.4,Win32,62.09251785,Chrome,1280,720,,,,,1,750,,,,,,,,,,,,,,,,,160,D,star,1,0,,,,,,,,,,,,,,,,repeat,number,numRpt,f,0.9511,Lo,,,,,,1,,,,,,,,high,30,0,30,0,1,,,,,,,,,
295096,2022-10-06_19h58.18.901,vts_reward_expectancy,2022.2.4,Win32,62.09251785,Chrome,1280,720,,,,,10,760,,,,,,,,,,,,,,,,,146,B,hexagon,1,0,,,,,,,,,,,,,,,,switch,letter,lettSwt,j,0.6343,Hi,,,,,,1,,,,,,,,high,31,0,31,0,1,,,,,,,,,
295096,2022-10-06_19h58.18.901,vts_reward_expectancy,2022.2.4,Win32,62.09251785,Chrome,1280,720,,,,,0,760,,,,,,,,,,,,,,,,,146,Y,circle,0,0,,,,,,,,,,,,,,,,switch,number,NA,f,1.2225,Hi,,,,,,2,,,,,,space,2.926,low,0,0,0,0,1,,,,,,,,,
295096,2022-10-06_19h58.18.901,vts_reward_expectancy,2022.2.4,Win32,62.09251785,Chrome,1280,720,,,,,0,760,,,,,,,,,,,,,,,,,160,F,triangle,1,1,,,,,,,,,,,,,,,,repeat,number,numRpt,f,0.9708,Hi,,,,,,2,,,,,,,,low,1,0,1,0,1,,,,,,,,,
295096,2022-10-06_19h58.18.901,vts_reward_expectancy,2022.2.4,Win32,62.09251785,Chrome,1280,720,,,,,1,761,,,,,,,,,,,,,,,,,174,S,circle,1,0,,,,,,,,,,,,,,,,repeat,number,numRpt,f,1.1718,Lo,,,,,,2,,,,,,,,low,2,0,2,0,1,,,,,,,,,
295096,2022-10-06_19h58.18.901,vts_reward_expectancy,2022.2.4,Win32,62.09251785,Chrome,1280,720,,,,,0,761,,,,,,,,,,,,,,,,,181,H,triangle,1,0,,,,,,,,,,,,,,,,switch,letter,lettSwt,j,1.1086,Hi,,,,,,2,,,,,,,,low,3,0,3,0,1,,,,,,,,,
295096,2022-10-06_19h58.18.901,vts_reward_expectancy,2022.2.4,Win32,62.09251785,Chrome,1280,720,,,,,10,771,,,,,,,,,,,,,,,,,167,B,circle,1,0,,,,,,,,,,,,,,,,switch,number,numSwt,f,0.7759,Lo,,,,,,2,,,,,,,,low,4,0,4,0,1,,,,,,,,,
295096,2022-10-06_19h58.18.901,vts_reward_expectancy,2022.2.4,Win32,62.09251785,Chrome,1280,720,,,,,0,771,,,,,,,,,,,,,,,,,132,D,triangle,1,0,,,,,,,,,,,,,,,,switch,letter,lettSwt,j,0.805,Hi,,,,,,2,,,,,,,,low,5,0,5,0,1,,,,,,,,,
295096,2022-10-06_19h58.18.901,vts_reward_expectancy,2022.2.4,Win32,62.09251785,Chrome,1280,720,,,,,10,781,,,,,,,,,,,,,,,,,139,U,triangle,1,0,,,,,,,,,,,,,,,,repeat,letter,lettRpt,k,0.5613,Hi,,,,,,2,,,,,,,,low,6,0,6,0,1,,,,,,,,,
295096,2022-10-06_19h58.18.901,vts_reward_expectancy,2022.2.4,Win32,62.09251785,Chrome,1280,720,,,,,1,782,,,,,,,,,,,,,,,,,125,W,circle,1,0,,,,,,,,,,,,,,,,switch,number,numSwt,d,0.5842,Lo,,,,,,2,,,,,,,,low,7,0,7,0,1,,,,,,,,,
295096,2022-10-06_19h58.18.901,vts_reward_expectancy,2022.2.4,Win32,62.09251785,Chrome,1280,720,,,,,0,782,,,,,,,,,,,,,,,,,146,Y,triangle,1,0,,,,,,,,,,,,,,,,switch,letter,lettSwt,k,0.684,Hi,,,,,,2,,,,,,,,low,8,0,8,0,1,,,,,,,,,
295096,2022-10-06_19h58.18.901,vts_reward_expectancy,2022.2.4,Win32,62.09251785,Chrome,1280,720,,,,,1,783,,,,,,,,,,,,,,,,,160,F,circle,1,0,,,,,,,,,,,,,,,,switch,number,numSwt,f,0.9185,Lo,,,,,,2,,,,,,,,low,9,0,9,0,1,,,,,,,,,
295096,2022-10-06_19h58.18.901,vts_reward_expectancy,2022.2.4,Win32,62.09251785,Chrome,1280,720,,,,,0,783,,,,,,,,,,,,,,,,,174,S,triangle,1,0,,,,,,,,,,,,,,,,switch,letter,lettSwt,k,0.6785,Hi,,,,,,2,,,,,,,,low,10,0,10,0,1,,,,,,,,,
295096,2022-10-06_19h58.18.901,vts_reward_expectancy,2022.2.4,Win32,62.09251785,Chrome,1280,720,,,,,1,784,,,,,,,,,,,,,,,,,181,H,circle,1,0,,,,,,,,,,,,,,,,repeat,letter,lettRpt,j,0.4722,Lo,,,,,,2,,,,,,,,low,11,0,11,0,1,,,,,,,,,
295096,2022-10-06_19h58.18.901,vts_reward_expectancy,2022.2.4,Win32,62.09251785,Chrome,1280,720,,,,,1,785,,,,,,,,,,,,,,,,,167,B,circle,1,0,,,,,,,,,,,,,,,,switch,number,numSwt,f,0.6945,Lo,,,,,,2,,,,,,,,low,12,0,12,0,1,,,,,,,,,
295096,2022-10-06_19h58.18.901,vts_reward_expectancy,2022.2.4,Win32,62.09251785,Chrome,1280,720,,,,,10,795,,,,,,,,,,,,,,,,,132,D,triangle,1,0,,,,,,,,,,,,,,,,switch,letter,lettSwt,j,0.6177,Hi,,,,,,2,,,,,,,,low,13,0,13,0,1,,,,,,,,,
295096,2022-10-06_19h58.18.901,vts_reward_expectancy,2022.2.4,Win32,62.09251785,Chrome,1280,720,,,,,0,795,,,,,,,,,,,,,,,,,139,U,triangle,1,0,,,,,,,,,,,,,,,,repeat,letter,lettRpt,k,1.2241,Hi,,,,,,2,,,,,,,,low,14,0,14,0,1,,,,,,,,,
295096,2022-10-06_19h58.18.901,vts_reward_expectancy,2022.2.4,Win32,62.09251785,Chrome,1280,720,,,,,1,796,,,,,,,,,,,,,,,,,125,W,circle,1,0,,,,,,,,,,,,,,,,repeat,letter,lettRpt,k,0.6844,Lo,,,,,,2,,,,,,,,low,15,0,15,0,1,,,,,,,,,
295096,2022-10-06_19h58.18.901,vts_reward_expectancy,2022.2.4,Win32,62.09251785,Chrome,1280,720,,,,,10,806,,,,,,,,,,,,,,,,,139,U,triangle,1,0,,,,,,,,,,,,,,,,repeat,letter,lettRpt,k,0.7346,Hi,,,,,,2,,,,,,,,low,16,0,16,0,1,,,,,,,,,
295096,2022-10-06_19h58.18.901,vts_reward_expectancy,2022.2.4,Win32,62.09251785,Chrome,1280,720,,,,,10,816,,,,,,,,,,,,,,,,,146,W,circle,1,0,,,,,,,,,,,,,,,,repeat,letter,lettRpt,k,0.7336,Lo,,,,,,2,,,,,,,,low,17,0,17,0,1,,,,,,,,,
295096,2022-10-06_19h58.18.901,vts_reward_expectancy,2022.2.4,Win32,62.09251785,Chrome,1280,720,,,,,1,817,,,,,,,,,,,,,,,,,181,D,circle,1,0,,,,,,,,,,,,,,,,repeat,letter,lettRpt,j,0.6506,Lo,,,,,,2,,,,,,,,low,18,0,18,0,1,,,,,,,,,
295096,2022-10-06_19h58.18.901,vts_reward_expectancy,2022.2.4,Win32,62.09251785,Chrome,1280,720,,,,,0,817,,,,,,,,,,,,,,,,,160,B,triangle,1,0,,,,,,,,,,,,,,,,switch,number,numSwt,f,0.815,Hi,,,,,,2,,,,,,,,low,19,0,19,0,1,,,,,,,,,
295096,2022-10-06_19h58.18.901,vts_reward_expectancy,2022.2.4,Win32,62.09251785,Chrome,1280,720,,,,,0,817,,,,,,,,,,,,,,,,,125,Y,triangle,1,0,,,,,,,,,,,,,,,,repeat,number,numRpt,d,0.7388,Hi,,,,,,2,,,,,,,,low,20,0,20,0,1,,,,,,,,,
295096,2022-10-06_19h58.18.901,vts_reward_expectancy,2022.2.4,Win32,62.09251785,Chrome,1280,720,,,,,1,818,,,,,,,,,,,,,,,,,174,H,circle,1,0,,,,,,,,,,,,,,,,switch,letter,lettSwt,j,1.0812,Lo,,,,,,2,,,,,,,,low,21,0,21,0,1,,,,,,,,,
295096,2022-10-06_19h58.18.901,vts_reward_expectancy,2022.2.4,Win32,62.09251785,Chrome,1280,720,,,,,1,819,,,,,,,,,,,,,,,,,167,F,circle,1,0,,,,,,,,,,,,,,,,switch,number,numSwt,f,0.8334,Lo,,,,,,2,,,,,,,,low,22,0,22,0,1,,,,,,,,,
295096,2022-10-06_19h58.18.901,vts_reward_expectancy,2022.2.4,Win32,62.09251785,Chrome,1280,720,,,,,1,820,,,,,,,,,,,,,,,,,132,S,triangle,1,0,,,,,,,,,,,,,,,,switch,letter,lettSwt,k,0.6344,Hi,,,,,,2,,,,,,,,low,23,0,23,0,1,,,,,,,,,
295096,2022-10-06_19h58.18.901,vts_reward_expectancy,2022.2.4,Win32,62.09251785,Chrome,1280,720,,,,,1,821,,,,,,,,,,,,,,,,,167,H,circle,1,0,,,,,,,,,,,,,,,,switch,number,numSwt,f,0.554,Lo,,,,,,2,,,,,,,,low,24,0,24,0,1,,,,,,,,,
295096,2022-10-06_19h58.18.901,vts_reward_expectancy,2022.2.4,Win32,62.09251785,Chrome,1280,720,,,,,0,821,,,,,,,,,,,,,,,,,146,D,triangle,1,0,,,,,,,,,,,,,,,,switch,letter,lettSwt,j,1.0578,Hi,,,,,,2,,,,,,,,low,25,0,25,0,1,,,,,,,,,
295096,2022-10-06_19h58.18.901,vts_reward_expectancy,2022.2.4,Win32,62.09251785,Chrome,1280,720,,,,,1,822,,,,,,,,,,,,,,,,,174,F,triangle,1,0,,,,,,,,,,,,,,,,repeat,letter,lettRpt,j,0.605,Hi,,,,,,2,,,,,,,,low,26,0,26,0,1,,,,,,,,,
295096,2022-10-06_19h58.18.901,vts_reward_expectancy,2022.2.4,Win32,62.09251785,Chrome,1280,720,,,,,10,832,,,,,,,,,,,,,,,,,181,Y,circle,1,0,,,,,,,,,,,,,,,,switch,number,numSwt,f,0.5337,Lo,,,,,,2,,,,,,,,low,27,0,27,0,1,,,,,,,,,
295096,2022-10-06_19h58.18.901,vts_reward_expectancy,2022.2.4,Win32,62.09251785,Chrome,1280,720,,,,,1,833,,,,,,,,,,,,,,,,,132,B,circle,1,0,,,,,,,,,,,,,,,,repeat,number,numRpt,d,0.6909,Lo,,,,,,2,,,,,,,,low,28,0,28,0,1,,,,,,,,,
295096,2022-10-06_19h58.18.901,vts_reward_expectancy,2022.2.4,Win32,62.09251785,Chrome,1280,720,,,,,0,833,,,,,,,,,,,,,,,,,139,W,triangle,0,0,,,,,,,,,,,,,,,,repeat,number,NA,f,0.8191,Lo,,,,,,2,,,,,,,,low,29,0,29,0,1,,,,,,,,,
295096,2022-10-06_19h58.18.901,vts_reward_expectancy,2022.2.4,Win32,62.09251785,Chrome,1280,720,,,,,10,843,,,,,,,,,,,,,,,,,125,U,circle,1,1,,,,,,,,,,,,,,,,switch,letter,lettSwt,k,0.5369,Lo,,,,,,2,,,,,,,,low,30,0,30,0,1,,,,,,,,,
295096,2022-10-06_19h58.18.901,vts_reward_expectancy,2022.2.4,Win32,62.09251785,Chrome,1280,720,,,,,10,853,,,,,,,,,,,,,,,,,160,S,triangle,1,0,,,,,,,,,,,,,,,,switch,number,numSwt,f,0.4716,Hi,,,,,,2,,,,,,,,low,31,0,31,0,1,,,,,,,,,
295096,2022-10-06_19h58.18.901,vts_reward_expectancy,2022.2.4,Win32,62.09251785,Chrome,1280,720,,,,,1,854,,,,,,,,,,,,,,,,,125,H,star,1,0,,,,,,,,,,,,,,,,switch,letter,lettSwt,j,1.1743,Lo,,,,,,3,,,,,,space,1.0102,high,0,0,0,0,1,,,,,,,,,
295096,2022-10-06_19h58.18.901,vts_reward_expectancy,2022.2.4,Win32,62.09251785,Chrome,1280,720,,,,,0,854,,,,,,,,,,,,,,,,,167,S,hexagon,1,0,,,,,,,,,,,,,,,,switch,number,numSwt,f,0.6222,Hi,,,,,,3,,,,,,,,high,1,0,1,0,1,,,,,,,,,
295096,2022-10-06_19h58.18.901,vts_reward_expectancy,2022.2.4,Win32,62.09251785,Chrome,1280,720,,,,,1,855,,,,,,,,,,,,,,,,,174,Y,star,1,0,,,,,,,,,,,,,,,,switch,letter,lettSwt,k,0.6668,Lo,,,,,,3,,,,,,,,high,2,0,2,0,1,,,,,,,,,
295096,2022-10-06_19h58.18.901,vts_reward_expectancy,2022.2.4,Win32,62.09251785,Chrome,1280,720,,,,,0,855,,,,,,,,,,,,,,,,,181,W,hexagon,1,0,,,,,,,,,,,,,,,,switch,number,numSwt,f,0.683,Hi,,,,,,3,,,,,,,,high,3,0,3,0,1,,,,,,,,,
295096,2022-10-06_19h58.18.901,vts_reward_expectancy,2022.2.4,Win32,62.09251785,Chrome,1280,720,,,,,10,865,,,,,,,,,,,,,,,,,160,F,hexagon,1,0,,,,,,,,,,,,,,,,switch,letter,lettSwt,j,0.5749,Hi,,,,,,3,,,,,,,,high,4,0,4,0,1,,,,,,,,,
295096,2022-10-06_19h58.18.901,vts_reward_expectancy,2022.2.4,Win32,62.09251785,Chrome,1280,720,,,,,1,866,,,,,,,,,,,,,,,,,132,B,star,1,0,,,,,,,,,,,,,,,,switch,number,numSwt,d,0.8776,Lo,,,,,,3,,,,,,,,high,5,0,5,0,1,,,,,,,,,
295096,2022-10-06_19h58.18.901,vts_reward_expectancy,2022.2.4,Win32,62.09251785,Chrome,1280,720,,,,,10,876,,,,,,,,,,,,,,,,,146,D,star,1,0,,,,,,,,,,,,,,,,switch,letter,lettSwt,j,0.6228,Lo,,,,,,3,,,,,,,,high,6,0,6,0,1,,,,,,,,,
295096,2022-10-06_19h58.18.901,vts_reward_expectancy,2022.2.4,Win32,62.09251785,Chrome,1280,720,,,,,0,876,,,,,,,,,,,,,,,,,139,U,hexagon,1,0,,,,,,,,,,,,,,,,switch,number,numSwt,d,0.9682,Hi,,,,,,3,,,,,,,,high,7,0,7,0,1,,,,,,,,,
295096,2022-10-06_19h58.18.901,vts_reward_expectancy,2022.2.4,Win32,62.09251785,Chrome,1280,720,,,,,1,877,,,,,,,,,,,,,,,,,125,H,hexagon,1,0,,,,,,,,,,,,,,,,switch,letter,lettSwt,j,0.6076,Hi,,,,,,3,,,,,,,,high,8,0,8,0,1,,,,,,,,,
295096,2022-10-06_19h58.18.901,vts_reward_expectancy,2022.2.4,Win32,62.09251785,Chrome,1280,720,,,,,10,887,,,,,,,,,,,,,,,,,167,S,star,1,0,,,,,,,,,,,,,,,,switch,number,numSwt,f,0.5739,Lo,,,,,,3,,,,,,,,high,9,0,9,0,1,,,,,,,,,
295096,2022-10-06_19h58.18.901,vts_reward_expectancy,2022.2.4,Win32,62.09251785,Chrome,1280,720,,,,,10,897,,,,,,,,,,,,,,,,,174,Y,hexagon,1,0,,,,,,,,,,,,,,,,repeat,number,numRpt,f,0.4674,Hi,,,,,,3,,,,,,,,high,10,0,10,0,1,,,,,,,,,
295096,2022-10-06_19h58.18.901,vts_reward_expectancy,2022.2.4,Win32,62.09251785,Chrome,1280,720,,,,,1,898,,,,,,,,,,,,,,,,,181,W,star,1,0,,,,,,,,,,,,,,,,repeat,number,numRpt,f,0.5339,Lo,,,,,,3,,,,,,,,high,11,0,11,0,1,,,,,,,,,
295096,2022-10-06_19h58.18.901,vts_reward_expectancy,2022.2.4,Win32,62.09251785,Chrome,1280,720,,,,,10,908,,,,,,,,,,,,,,,,,160,F,star,1,0,,,,,,,,,,,,,,,,switch,letter,lettSwt,j,0.8574,Lo,,,,,,3,,,,,,,,high,12,0,12,0,1,,,,,,,,,
295096,2022-10-06_19h58.18.901,vts_reward_expectancy,2022.2.4,Win32,62.09251785,Chrome,1280,720,,,,,1,909,,,,,,,,,,,,,,,,,132,B,hexagon,1,0,,,,,,,,,,,,,,,,repeat,letter,lettRpt,j,0.5533,Hi,,,,,,3,,,,,,,,high,13,0,13,0,1,,,,,,,,,
295096,2022-10-06_19h58.18.901,vts_reward_expectancy,2022.2.4,Win32,62.09251785,Chrome,1280,720,,,,,1,910,,,,,,,,,,,,,,,,,146,D,star,1,0,,,,,,,,,,,,,,,,repeat,letter,lettRpt,j,0.9338,Lo,,,,,,3,,,,,,,,high,14,0,14,0,1,,,,,,,,,
295096,2022-10-06_19h58.18.901,vts_reward_expectancy,2022.2.4,Win32,62.09251785,Chrome,1280,720,,,,,0,910,,,,,,,,,,,,,,,,,139,U,hexagon,0,0,,,,,,,,,,,,,,,,switch,number,NA,f,0.6784,Lo,,,,,,3,,,,,,,,high,15,0,15,0,1,,,,,,,,,
295096,2022-10-06_19h58.18.901,vts_reward_expectancy,2022.2.4,Win32,62.09251785,Chrome,1280,720,,,,,1,911,,,,,,,,,,,,,,,,,125,S,hexagon,1,1,,,,,,,,,,,,,,,,repeat,number,numRpt,d,0.4515,Hi,,,,,,3,,,,,,,,high,16,0,16,0,1,,,,,,,,,
295096,2022-10-06_19h58.18.901,vts_reward_expectancy,2022.2.4,Win32,62.09251785,Chrome,1280,720,,,,,1,912,,,,,,,,,,,,,,,,,167,W,star,1,0,,,,,,,,,,,,,,,,switch,letter,lettSwt,k,0.5567,Lo,,,,,,3,,,,,,,,high,17,0,17,0,1,,,,,,,,,
295096,2022-10-06_19h58.18.901,vts_reward_expectancy,2022.2.4,Win32,62.09251785,Chrome,1280,720,,,,,10,922,,,,,,,,,,,,,,,,,160,B,star,1,0,,,,,,,,,,,,,,,,switch,number,numSwt,f,0.7935,Lo,,,,,,3,,,,,,,,high,18,0,18,0,1,,,,,,,,,
295096,2022-10-06_19h58.18.901,vts_reward_expectancy,2022.2.4,Win32,62.09251785,Chrome,1280,720,,,,,10,932,,,,,,,,,,,,,,,,,132,Y,hexagon,1,0,,,,,,,,,,,,,,,,switch,letter,lettSwt,k,0.6198,Hi,,,,,,3,,,,,,,,high,19,0,19,0,1,,,,,,,,,
295096,2022-10-06_19h58.18.901,vts_reward_expectancy,2022.2.4,Win32,62.09251785,Chrome,1280,720,,,,,1,933,,,,,,,,,,,,,,,,,139,F,star,1,0,,,,,,,,,,,,,,,,repeat,letter,lettRpt,j,1.0845,Lo,,,,,,3,,,,,,,,high,20,0,20,0,1,,,,,,,,,
295096,2022-10-06_19h58.18.901,vts_reward_expectancy,2022.2.4,Win32,62.09251785,Chrome,1280,720,,,,,0,933,,,,,,,,,,,,,,,,,181,U,hexagon,1,0,,,,,,,,,,,,,,,,switch,number,numSwt,f,0.7678,Hi,,,,,,3,,,,,,,,high,21,0,21,0,1,,,,,,,,,
295096,2022-10-06_19h58.18.901,vts_reward_expectancy,2022.2.4,Win32,62.09251785,Chrome,1280,720,,,,,0,933,,,,,,,,,,,,,,,,,146,H,hexagon,1,0,,,,,,,,,,,,,,,,switch,letter,lettSwt,j,0.7417,Hi,,,,,,3,,,,,,,,high,22,0,22,0,1,,,,,,,,,
295096,2022-10-06_19h58.18.901,vts_reward_expectancy,2022.2.4,Win32,62.09251785,Chrome,1280,720,,,,,10,943,,,,,,,,,,,,,,,,,174,D,star,1,0,,,,,,,,,,,,,,,,switch,number,numSwt,f,0.5589,Lo,,,,,,3,,,,,,,,high,23,0,23,0,1,,,,,,,,,
295096,2022-10-06_19h58.18.901,vts_reward_expectancy,2022.2.4,Win32,62.09251785,Chrome,1280,720,,,,,1,944,,,,,,,,,,,,,,,,,132,H,star,1,0,,,,,,,,,,,,,,,,repeat,number,numRpt,d,0.8928,Lo,,,,,,3,,,,,,,,high,24,0,24,0,1,,,,,,,,,
295096,2022-10-06_19h58.18.901,vts_reward_expectancy,2022.2.4,Win32,62.09251785,Chrome,1280,720,,,,,1,945,,,,,,,,,,,,,,,,,160,U,hexagon,1,0,,,,,,,,,,,,,,,,switch,letter,lettSwt,k,0.6528,Hi,,,,,,3,,,,,,,,high,25,0,25,0,1,,,,,,,,,
295096,2022-10-06_19h58.18.901,vts_reward_expectancy,2022.2.4,Win32,62.09251785,Chrome,1280,720,,,,,0,945,,,,,,,,,,,,,,,,,181,D,hexagon,0,0,,,,,,,,,,,,,,,,switch,number,NA,d,0.7014,Hi,,,,,,3,,,,,,,,high,26,0,26,0,1,,,,,,,,,
295096,2022-10-06_19h58.18.901,vts_reward_expectancy,2022.2.4,Win32,62.09251785,Chrome,1280,720,,,,,1,946,,,,,,,,,,,,,,,,,174,B,star,1,1,,,,,,,,,,,,,,,,repeat,number,numRpt,f,0.6015,Lo,,,,,,3,,,,,,,,high,27,0,27,0,1,,,,,,,,,
295096,2022-10-06_19h58.18.901,vts_reward_expectancy,2022.2.4,Win32,62.09251785,Chrome,1280,720,,,,,0,946,,,,,,,,,,,,,,,,,146,F,hexagon,1,0,,,,,,,,,,,,,,,,repeat,number,numRpt,d,0.9019,Hi,,,,,,3,,,,,,,,high,28,0,28,0,1,,,,,,,,,
295096,2022-10-06_19h58.18.901,vts_reward_expectancy,2022.2.4,Win32,62.09251785,Chrome,1280,720,,,,,1,947,,,,,,,,,,,,,,,,,125,W,star,1,0,,,,,,,,,,,,,,,,switch,letter,lettSwt,k,0.677,Lo,,,,,,3,,,,,,,,high,29,0,29,0,1,,,,,,,,,
295096,2022-10-06_19h58.18.901,vts_reward_expectancy,2022.2.4,Win32,62.09251785,Chrome,1280,720,,,,,0,947,,,,,,,,,,,,,,,,,167,S,hexagon,1,0,,,,,,,,,,,,,,,,switch,number,numSwt,f,1.3166,Hi,,,,,,3,,,,,,,,high,30,0,30,0,1,,,,,,,,,
295096,2022-10-06_19h58.18.901,vts_reward_expectancy,2022.2.4,Win32,62.09251785,Chrome,1280,720,,,,,1,948,,,,,,,,,,,,,,,,,139,Y,star,1,0,,,,,,,,,,,,,,,,repeat,number,numRpt,d,0.5573,Lo,,,,,,3,,,,,,,,high,31,0,31,0,1,,,,,,,,,
295096,2022-10-06_19h58.18.901,vts_reward_expectancy,2022.2.4,Win32,62.09251785,Chrome,1280,720,,,,,0,948,,,,,,,,,,,,,,,,,146,S,hexagon,1,0,,,,,,,,,,,,,,,,repeat,number,numRpt,d,0.6173,Hi,,,,,,4,,,,,,space,1.2601,high,0,0,0,0,1,,,,,,,,,
295096,2022-10-06_19h58.18.901,vts_reward_expectancy,2022.2.4,Win32,62.09251785,Chrome,1280,720,,,,,1,949,,,,,,,,,,,,,,,,,125,H,star,1,0,,,,,,,,,,,,,,,,switch,letter,lettSwt,j,0.9604,Lo,,,,,,4,,,,,,,,high,1,0,1,0,1,,,,,,,,,
295096,2022-10-06_19h58.18.901,vts_reward_expectancy,2022.2.4,Win32,62.09251785,Chrome,1280,720,,,,,0,949,,,,,,,,,,,,,,,,,160,W,hexagon,1,0,,,,,,,,,,,,,,,,switch,number,numSwt,f,0.6693,Hi,,,,,,4,,,,,,,,high,2,0,2,0,1,,,,,,,,,
295096,2022-10-06_19h58.18.901,vts_reward_expectancy,2022.2.4,Win32,62.09251785,Chrome,1280,720,,,,,1,950,,,,,,,,,,,,,,,,,167,B,star,1,0,,,,,,,,,,,,,,,,repeat,number,numRpt,f,0.5506,Lo,,,,,,4,,,,,,,,high,3,0,3,0,1,,,,,,,,,
295096,2022-10-06_19h58.18.901,vts_reward_expectancy,2022.2.4,Win32,62.09251785,Chrome,1280,720,,,,,10,960,,,,,,,,,,,,,,,,,181,D,hexagon,1,0,,,,,,,,,,,,,,,,switch,letter,lettSwt,j,0.6106,Hi,,,,,,4,,,,,,,,high,4,0,4,0,1,,,,,,,,,
295096,2022-10-06_19h58.18.901,vts_reward_expectancy,2022.2.4,Win32,62.09251785,Chrome,1280,720,,,,,1,961,,,,,,,,,,,,,,,,,139,U,star,1,0,,,,,,,,,,,,,,,,switch,number,numSwt,d,0.773,Lo,,,,,,4,,,,,,,,high,5,0,5,0,1,,,,,,,,,
295096,2022-10-06_19h58.18.901,vts_reward_expectancy,2022.2.4,Win32,62.09251785,Chrome,1280,720,,,,,0,961,,,,,,,,,,,,,,,,,132,F,hexagon,1,0,,,,,,,,,,,,,,,,repeat,number,numRpt,d,0.5609,Hi,,,,,,4,,,,,,,,high,6,0,6,0,1,,,,,,,,,
295096,2022-10-06_19h58.18.901,vts_reward_expectancy,2022.2.4,Win32,62.09251785,Chrome,1280,720,,,,,1,962,,,,,,,,,,,,,,,,,174,Y,star,1,0,,,,,,,,,,,,,,,,switch,letter,lettSwt,k,0.6431,Lo,,,,,,4,,,,,,,,high,7,0,7,0,1,,,,,,,,,
295096,2022-10-06_19h58.18.901,vts_reward_expectancy,2022.2.4,Win32,62.09251785,Chrome,1280,720,,,,,0,962,,,,,,,,,,,,,,,,,146,S,star,0,0,,,,,,,,,,,,,,,,switch,number,NA,f,0.6045,Lo,,,,,,4,,,,,,,,high,8,0,8,0,1,,,,,,,,,
295096,2022-10-06_19h58.18.901,vts_reward_expectancy,2022.2.4,Win32,62.09251785,Chrome,1280,720,,,,,0,962,,,,,,,,,,,,,,,,,125,H,hexagon,1,1,,,,,,,,,,,,,,,,switch,letter,lettSwt,j,1.1838,Hi,,,,,,4,,,,,,,,high,9,0,9,0,1,,,,,,,,,
295096,2022-10-06_19h58.18.901,vts_reward_expectancy,2022.2.4,Win32,62.09251785,Chrome,1280,720,,,,,10,972,,,,,,,,,,,,,,,,,160,W,star,1,0,,,,,,,,,,,,,,,,switch,number,numSwt,f,0.6183,Lo,,,,,,4,,,,,,,,high,10,0,10,0,1,,,,,,,,,
295096,2022-10-06_19h58.18.901,vts_reward_expectancy,2022.2.4,Win32,62.09251785,Chrome,1280,720,,,,,0,972,,,,,,,,,,,,,,,,,167,B,hexagon,1,0,,,,,,,,,,,,,,,,repeat,number,numRpt,f,0.6031,Hi,,,,,,4,,,,,,,,high,11,0,11,0,1,,,,,,,,,
295096,2022-10-06_19h58.18.901,vts_reward_expectancy,2022.2.4,Win32,62.09251785,Chrome,1280,720,,,,,0,972,,,,,,,,,,,,,,,,,181,D,hexagon,1,0,,,,,,,,,,,,,,,,switch,letter,lettSwt,j,0.7017,Hi,,,,,,4,,,,,,,,high,12,0,12,0,1,,,,,,,,,
295096,2022-10-06_19h58.18.901,vts_reward_expectancy,2022.2.4,Win32,62.09251785,Chrome,1280,720,,,,,1,973,,,,,,,,,,,,,,,,,139,U,star,1,0,,,,,,,,,,,,,,,,switch,number,numSwt,d,0.6745,Lo,,,,,,4,,,,,,,,high,13,0,13,0,1,,,,,,,,,
295096,2022-10-06_19h58.18.901,vts_reward_expectancy,2022.2.4,Win32,62.09251785,Chrome,1280,720,,,,,0,973,,,,,,,,,,,,,,,,,132,F,hexagon,1,0,,,,,,,,,,,,,,,,switch,letter,lettSwt,j,0.7669,Hi,,,,,,4,,,,,,,,high,14,0,14,0,1,,,,,,,,,
295096,2022-10-06_19h58.18.901,vts_reward_expectancy,2022.2.4,Win32,62.09251785,Chrome,1280,720,,,,,1,974,,,,,,,,,,,,,,,,,174,Y,star,1,0,,,,,,,,,,,,,,,,switch,number,numSwt,f,0.7558,Lo,,,,,,4,,,,,,,,high,15,0,15,0,1,,,,,,,,,
295096,2022-10-06_19h58.18.901,vts_reward_expectancy,2022.2.4,Win32,62.09251785,Chrome,1280,720,,,,,0,974,,,,,,,,,,,,,,,,,125,S,hexagon,1,0,,,,,,,,,,,,,,,,repeat,number,numRpt,d,0.5416,Hi,,,,,,4,,,,,,,,high,16,0,16,0,1,,,,,,,,,
295096,2022-10-06_19h58.18.901,vts_reward_expectancy,2022.2.4,Win32,62.09251785,Chrome,1280,720,,,,,10,984,,,,,,,,,,,,,,,,,174,Y,star,1,0,,,,,,,,,,,,,,,,switch,letter,lettSwt,k,0.5406,Lo,,,,,,4,,,,,,,,high,17,0,17,0,1,,,,,,,,,
295096,2022-10-06_19h58.18.901,vts_reward_expectancy,2022.2.4,Win32,62.09251785,Chrome,1280,720,,,,,1,985,,,,,,,,,,,,,,,,,139,B,star,1,0,,,,,,,,,,,,,,,,repeat,letter,lettRpt,j,0.5342,Lo,,,,,,4,,,,,,,,high,18,0,18,0,1,,,,,,,,,
295096,2022-10-06_19h58.18.901,vts_reward_expectancy,2022.2.4,Win32,62.09251785,Chrome,1280,720,,,,,0,985,,,,,,,,,,,,,,,,,132,W,hexagon,1,0,,,,,,,,,,,,,,,,switch,number,numSwt,d,0.701,Hi,,,,,,4,,,,,,,,high,19,0,19,0,1,,,,,,,,,
295096,2022-10-06_19h58.18.901,vts_reward_expectancy,2022.2.4,Win32,62.09251785,Chrome,1280,720,,,,,0,985,,,,,,,,,,,,,,,,,146,U,hexagon,0,0,,,,,,,,,,,,,,,,repeat,number,NA,f,1.1881,Hi,,,,,,4,,,,,,,,high,20,0,20,0,1,,,,,,,,,
295096,2022-10-06_19h58.18.901,vts_reward_expectancy,2022.2.4,Win32,62.09251785,Chrome,1280,720,,,,,1,986,,,,,,,,,,,,,,,,,160,H,star,1,1,,,,,,,,,,,,,,,,repeat,number,numRpt,f,0.8363,Lo,,,,,,4,,,,,,,,high,21,0,21,0,1,,,,,,,,,
295096,2022-10-06_19h58.18.901,vts_reward_expectancy,2022.2.4,Win32,62.09251785,Chrome,1280,720,,,,,10,996,,,,,,,,,,,,,,,,,181,D,star,1,0,,,,,,,,,,,,,,,,switch,letter,lettSwt,j,0.668,Lo,,,,,,4,,,,,,,,high,22,0,22,0,1,,,,,,,,,
295096,2022-10-06_19h58.18.901,vts_reward_expectancy,2022.2.4,Win32,62.09251785,Chrome,1280,720,,,,,1,997,,,,,,,,,,,,,,,,,167,F,hexagon,1,0,,,,,,,,,,,,,,,,repeat,letter,lettRpt,j,0.669,Hi,,,,,,4,,,,,,,,high,23,0,23,0,1,,,,,,,,,
295096,2022-10-06_19h58.18.901,vts_reward_expectancy,2022.2.4,Win32,62.09251785,Chrome,1280,720,,,,,1,998,,,,,,,,,,,,,,,,,132,D,star,1,0,,,,,,,,,,,,,,,,repeat,letter,lettRpt,j,1.8437,Lo,,,,,,4,,,,,,,,high,24,0,24,0,1,,,,,,,,,
295096,2022-10-06_19h58.18.901,vts_reward_expectancy,2022.2.4,Win32,62.09251785,Chrome,1280,720,,,,,10,1008,,,,,,,,,,,,,,,,,125,B,hexagon,1,0,,,,,,,,,,,,,,,,switch,number,numSwt,d,0.5594,Hi,,,,,,4,,,,,,,,high,25,0,25,0,1,,,,,,,,,
295096,2022-10-06_19h58.18.901,vts_reward_expectancy,2022.2.4,Win32,62.09251785,Chrome,1280,720,,,,,0,1008,,,,,,,,,,,,,,,,,181,F,hexagon,1,0,,,,,,,,,,,,,,,,repeat,number,numRpt,f,0.6027,Hi,,,,,,4,,,,,,,,high,26,0,26,0,1,,,,,,,,,
295096,2022-10-06_19h58.18.901,vts_reward_expectancy,2022.2.4,Win32,62.09251785,Chrome,1280,720,,,,,1,1009,,,,,,,,,,,,,,,,,139,Y,star,1,0,,,,,,,,,,,,,,,,switch,letter,lettSwt,k,0.9173,Lo,,,,,,4,,,,,,,,high,27,0,27,0,1,,,,,,,,,
295096,2022-10-06_19h58.18.901,vts_reward_expectancy,2022.2.4,Win32,62.09251785,Chrome,1280,720,,,,,0,1009,,,,,,,,,,,,,,,,,146,W,star,0,0,,,,,,,,,,,,,,,,switch,number,NA,f,0.8848,Lo,,,,,,4,,,,,,,,high,28,0,28,0,1,,,,,,,,,
295096,2022-10-06_19h58.18.901,vts_reward_expectancy,2022.2.4,Win32,62.09251785,Chrome,1280,720,,,,,0,1009,,,,,,,,,,,,,,,,,160,H,hexagon,1,1,,,,,,,,,,,,,,,,repeat,number,numRpt,f,1.1177,Hi,,,,,,4,,,,,,,,high,29,0,29,0,1,,,,,,,,,
295096,2022-10-06_19h58.18.901,vts_reward_expectancy,2022.2.4,Win32,62.09251785,Chrome,1280,720,,,,,1,1010,,,,,,,,,,,,,,,,,174,U,star,1,0,,,,,,,,,,,,,,,,switch,letter,lettSwt,k,0.8685,Lo,,,,,,4,,,,,,,,high,30,0,30,0,1,,,,,,,,,
295096,2022-10-06_19h58.18.901,vts_reward_expectancy,2022.2.4,Win32,62.09251785,Chrome,1280,720,,,,,10,1020,,,,,,,,,,,,,,,,,167,S,hexagon,1,0,,,,,,,,,,,,,,,,switch,number,numSwt,f,0.5705,Hi,,,,,,4,,,,,,,,high,31,0,31,0,1,,,,,,,,,
295096,2022-10-06_19h58.18.901,vts_reward_expectancy,2022.2.4,Win32,62.09251785,Chrome,1280,720,,,,,10,1030,,,,,,,,,,,,,,,,,139,B,circle,1,0,,,,,,,,,,,,,,,,repeat,number,numRpt,d,0.786,Lo,,,,,,5,,,,,,space,1.3939,low,0,0,0,0,1,,,,,,,,,
295096,2022-10-06_19h58.18.901,vts_reward_expectancy,2022.2.4,Win32,62.09251785,Chrome,1280,720,,,,,10,1040,,,,,,,,,,,,,,,,,146,Y,triangle,1,0,,,,,,,,,,,,,,,,switch,letter,lettSwt,k,0.5846,Hi,,,,,,5,,,,,,,,low,1,0,1,0,1,,,,,,,,,
295096,2022-10-06_19h58.18.901,vts_reward_expectancy,2022.2.4,Win32,62.09251785,Chrome,1280,720,,,,,10,1050,,,,,,,,,,,,,,,,,125,W,circle,1,0,,,,,,,,,,,,,,,,switch,number,numSwt,d,0.6437,Lo,,,,,,5,,,,,,,,low,2,0,2,0,1,,,,,,,,,
295096,2022-10-06_19h58.18.901,vts_reward_expectancy,2022.2.4,Win32,62.09251785,Chrome,1280,720,,,,,10,1060,,,,,,,,,,,,,,,,,160,U,triangle,1,0,,,,,,,,,,,,,,,,switch,letter,lettSwt,k,0.5846,Hi,,,,,,5,,,,,,,,low,3,0,3,0,1,,,,,,,,,
295096,2022-10-06_19h58.18.901,vts_reward_expectancy,2022.2.4,Win32,62.09251785,Chrome,1280,720,,,,,0,1060,,,,,,,,,,,,,,,,,132,S,triangle,1,0,,,,,,,,,,,,,,,,switch,number,numSwt,d,0.7314,Hi,,,,,,5,,,,,,,,low,4,0,4,0,1,,,,,,,,,
295096,2022-10-06_19h58.18.901,vts_reward_expectancy,2022.2.4,Win32,62.09251785,Chrome,1280,720,,,,,10,1070,,,,,,,,,,,,,,,,,174,H,circle,1,0,,,,,,,,,,,,,,,,switch,letter,lettSwt,j,0.6764,Lo,,,,,,5,,,,,,,,low,5,0,5,0,1,,,,,,,,,
295096,2022-10-06_19h58.18.901,vts_reward_expectancy,2022.2.4,Win32,62.09251785,Chrome,1280,720,,,,,0,1070,,,,,,,,,,,,,,,,,167,F,triangle,1,0,,,,,,,,,,,,,,,,switch,number,numSwt,f,0.6676,Hi,,,,,,5,,,,,,,,low,6,0,6,0,1,,,,,,,,,
295096,2022-10-06_19h58.18.901,vts_reward_expectancy,2022.2.4,Win32,62.09251785,Chrome,1280,720,,,,,1,1071,,,,,,,,,,,,,,,,,181,D,circle,1,0,,,,,,,,,,,,,,,,switch,letter,lettSwt,j,0.5853,Lo,,,,,,5,,,,,,,,low,7,0,7,0,1,,,,,,,,,
295096,2022-10-06_19h58.18.901,vts_reward_expectancy,2022.2.4,Win32,62.09251785,Chrome,1280,720,,,,,0,1071,,,,,,,,,,,,,,,,,139,B,triangle,1,0,,,,,,,,,,,,,,,,switch,number,numSwt,d,0.6839,Hi,,,,,,5,,,,,,,,low,8,0,8,0,1,,,,,,,,,
295096,2022-10-06_19h58.18.901,vts_reward_expectancy,2022.2.4,Win32,62.09251785,Chrome,1280,720,,,,,1,1072,,,,,,,,,,,,,,,,,146,Y,circle,1,0,,,,,,,,,,,,,,,,switch,letter,lettSwt,k,0.55,Lo,,,,,,5,,,,,,,,low,9,0,9,0,1,,,,,,,,,
295096,2022-10-06_19h58.18.901,vts_reward_expectancy,2022.2.4,Win32,62.09251785,Chrome,1280,720,,,,,10,1082,,,,,,,,,,,,,,,,,125,W,circle,1,0,,,,,,,,,,,,,,,,switch,number,numSwt,d,0.5594,Lo,,,,,,5,,,,,,,,low,10,0,10,0,1,,,,,,,,,
295096,2022-10-06_19h58.18.901,vts_reward_expectancy,2022.2.4,Win32,62.09251785,Chrome,1280,720,,,,,1,1083,,,,,,,,,,,,,,,,,160,U,triangle,1,0,,,,,,,,,,,,,,,,switch,letter,lettSwt,k,0.5935,Hi,,,,,,5,,,,,,,,low,11,0,11,0,1,,,,,,,,,
295096,2022-10-06_19h58.18.901,vts_reward_expectancy,2022.2.4,Win32,62.09251785,Chrome,1280,720,,,,,1,1084,,,,,,,,,,,,,,,,,132,S,circle,1,0,,,,,,,,,,,,,,,,repeat,letter,lettRpt,k,0.684,Lo,,,,,,5,,,,,,,,low,12,0,12,0,1,,,,,,,,,
295096,2022-10-06_19h58.18.901,vts_reward_expectancy,2022.2.4,Win32,62.09251785,Chrome,1280,720,,,,,0,1084,,,,,,,,,,,,,,,,,174,H,triangle,1,0,,,,,,,,,,,,,,,,repeat,letter,lettRpt,j,0.6914,Hi,,,,,,5,,,,,,,,low,13,0,13,0,1,,,,,,,,,
295096,2022-10-06_19h58.18.901,vts_reward_expectancy,2022.2.4,Win32,62.09251785,Chrome,1280,720,,,,,1,1085,,,,,,,,,,,,,,,,,167,F,circle,1,0,,,,,,,,,,,,,,,,repeat,letter,lettRpt,j,0.6341,Lo,,,,,,5,,,,,,,,low,14,0,14,0,1,,,,,,,,,
295096,2022-10-06_19h58.18.901,vts_reward_expectancy,2022.2.4,Win32,62.09251785,Chrome,1280,720,,,,,0,1085,,,,,,,,,,,,,,,,,181,D,triangle,1,0,,,,,,,,,,,,,,,,switch,number,numSwt,f,0.6523,Hi,,,,,,5,,,,,,,,low,15,0,15,0,1,,,,,,,,,
295096,2022-10-06_19h58.18.901,vts_reward_expectancy,2022.2.4,Win32,62.09251785,Chrome,1280,720,,,,,1,1086,,,,,,,,,,,,,,,,,160,B,circle,1,0,,,,,,,,,,,,,,,,repeat,number,numRpt,f,0.653,Lo,,,,,,5,,,,,,,,low,16,0,16,0,1,,,,,,,,,
295096,2022-10-06_19h58.18.901,vts_reward_expectancy,2022.2.4,Win32,62.09251785,Chrome,1280,720,,,,,10,1096,,,,,,,,,,,,,,,,,167,Y,triangle,1,0,,,,,,,,,,,,,,,,repeat,number,numRpt,f,0.5337,Hi,,,,,,5,,,,,,,,low,17,0,17,0,1,,,,,,,,,
295096,2022-10-06_19h58.18.901,vts_reward_expectancy,2022.2.4,Win32,62.09251785,Chrome,1280,720,,,,,0,1096,,,,,,,,,,,,,,,,,174,U,triangle,1,0,,,,,,,,,,,,,,,,switch,letter,lettSwt,k,0.8096,Hi,,,,,,5,,,,,,,,low,18,0,18,0,1,,,,,,,,,
295096,2022-10-06_19h58.18.901,vts_reward_expectancy,2022.2.4,Win32,62.09251785,Chrome,1280,720,,,,,10,1106,,,,,,,,,,,,,,,,,181,D,circle,1,0,,,,,,,,,,,,,,,,switch,number,numSwt,f,0.568,Lo,,,,,,5,,,,,,,,low,19,0,19,0,1,,,,,,,,,
295096,2022-10-06_19h58.18.901,vts_reward_expectancy,2022.2.4,Win32,62.09251785,Chrome,1280,720,,,,,1,1107,,,,,,,,,,,,,,,,,125,W,circle,1,0,,,,,,,,,,,,,,,,switch,letter,lettSwt,k,0.5937,Lo,,,,,,5,,,,,,,,low,20,0,20,0,1,,,,,,,,,
295096,2022-10-06_19h58.18.901,vts_reward_expectancy,2022.2.4,Win32,62.09251785,Chrome,1280,720,,,,,10,1117,,,,,,,,,,,,,,,,,139,S,triangle,1,0,,,,,,,,,,,,,,,,switch,number,numSwt,d,0.6119,Hi,,,,,,5,,,,,,,,low,21,0,21,0,1,,,,,,,,,
295096,2022-10-06_19h58.18.901,vts_reward_expectancy,2022.2.4,Win32,62.09251785,Chrome,1280,720,,,,,1,1118,,,,,,,,,,,,,,,,,146,F,triangle,1,0,,,,,,,,,,,,,,,,switch,letter,lettSwt,j,0.5687,Hi,,,,,,5,,,,,,,,low,22,0,22,0,1,,,,,,,,,
295096,2022-10-06_19h58.18.901,vts_reward_expectancy,2022.2.4,Win32,62.09251785,Chrome,1280,720,,,,,10,1128,,,,,,,,,,,,,,,,,132,H,circle,1,0,,,,,,,,,,,,,,,,switch,number,numSwt,d,0.5052,Lo,,,,,,5,,,,,,,,low,23,0,23,0,1,,,,,,,,,
295096,2022-10-06_19h58.18.901,vts_reward_expectancy,2022.2.4,Win32,62.09251785,Chrome,1280,720,,,,,10,1138,,,,,,,,,,,,,,,,,139,Y,triangle,1,0,,,,,,,,,,,,,,,,switch,letter,lettSwt,k,0.4678,Hi,,,,,,5,,,,,,,,low,24,0,24,0,1,,,,,,,,,
295096,2022-10-06_19h58.18.901,vts_reward_expectancy,2022.2.4,Win32,62.09251785,Chrome,1280,720,,,,,10,1148,,,,,,,,,,,,,,,,,167,D,circle,1,0,,,,,,,,,,,,,,,,repeat,letter,lettRpt,j,0.6085,Lo,,,,,,5,,,,,,,,low,25,0,25,0,1,,,,,,,,,
295096,2022-10-06_19h58.18.901,vts_reward_expectancy,2022.2.4,Win32,62.09251785,Chrome,1280,720,,,,,1,1149,,,,,,,,,,,,,,,,,132,W,circle,1,0,,,,,,,,,,,,,,,,switch,number,numSwt,d,0.768,Lo,,,,,,5,,,,,,,,low,26,0,26,0,1,,,,,,,,,
295096,2022-10-06_19h58.18.901,vts_reward_expectancy,2022.2.4,Win32,62.09251785,Chrome,1280,720,,,,,10,1159,,,,,,,,,,,,,,,,,181,F,triangle,1,0,,,,,,,,,,,,,,,,switch,letter,lettSwt,j,0.5273,Hi,,,,,,5,,,,,,,,low,27,0,27,0,1,,,,,,,,,
295096,2022-10-06_19h58.18.901,vts_reward_expectancy,2022.2.4,Win32,62.09251785,Chrome,1280,720,,,,,1,1160,,,,,,,,,,,,,,,,,160,S,circle,1,0,,,,,,,,,,,,,,,,switch,number,numSwt,f,0.5295,Lo,,,,,,5,,,,,,,,low,28,0,28,0,1,,,,,,,,,
295096,2022-10-06_19h58.18.901,vts_reward_expectancy,2022.2.4,Win32,62.09251785,Chrome,1280,720,,,,,0,1160,,,,,,,,,,,,,,,,,125,U,triangle,1,0,,,,,,,,,,,,,,,,repeat,number,numRpt,d,0.6846,Hi,,,,,,5,,,,,,,,low,29,0,29,0,1,,,,,,,,,
295096,2022-10-06_19h58.18.901,vts_reward_expectancy,2022.2.4,Win32,62.09251785,Chrome,1280,720,,,,,10,1170,,,,,,,,,,,,,,,,,174,H,circle,1,0,,,,,,,,,,,,,,,,repeat,number,numRpt,f,0.6007,Lo,,,,,,5,,,,,,,,low,30,0,30,0,1,,,,,,,,,
295096,2022-10-06_19h58.18.901,vts_reward_expectancy,2022.2.4,Win32,62.09251785,Chrome,1280,720,,,,,10,1180,,,,,,,,,,,,,,,,,146,B,triangle,1,0,,,,,,,,,,,,,,,,repeat,number,numRpt,d,0.5178,Hi,,,,,,5,,,,,,,,low,31,0,31,0,1,,,,,,,,,
295096,2022-10-06_19h58.18.901,vts_reward_expectancy,2022.2.4,Win32,62.09251785,Chrome,1280,720,,,,,,,,,,,,,,,,,,,,,,,,,,,,,,,,,,,,,,,,,,,,,,,,,,,,,,6,,,,,,,,,,,,,,Click the keys to the corresponding letters or numbers,2,what order to click the numbers and letter to get more points,3,2,,2,1280,720
