participant,date,expName,psychopyVersion,OS,frameRate,browser,xResolution,yResolution,key_resp.keys,key_resp.rt,training_resp.keys,training_resp.rt,points_trial,points_cumul,trainBlock,training.thisRepN,training.thisTrialN,training.thisN,training.thisIndex,training.ran,LTriangleOpac,LCircleOpac,LHexagonOpac,LStarOpac,RTriangleOpac,RCircleOpac,RHexagonOpac,RStarOpac,LShape_ID,RShape_ID,curr_topStim,curr_bottStim,curr_shape,acc,E1,target_resp_prac1.keys,pracBlock,task1_prac_trials.thisRepN,task1_prac_trials.thisTrialN,task1_prac_trials.thisN,task1_prac_trials.thisIndex,task1_prac_trials.ran,target_resp_prac1.rt,target_resp_prac2.keys,target_resp_prac2.rt,task2_praac_trials.thisRepN,task2_praac_trials.thisTrialN,task2_praac_trials.thisN,task2_praac_trials.thisIndex,task2_praac_trials.ran,alt,task,condition,target_resp.keys,target_resp.rt,rewCond,vts_practice_trials.thisRepN,vts_practice_trials.thisTrialN,vts_practice_trials.thisN,vts_practice_trials.thisIndex,vts_practice_trials.ran,blockNum,trials_norew.thisRepN,trials_norew.thisTrialN,trials_norew.thisN,trials_norew.thisIndex,trials_norew.ran,key_resp_2.keys,key_resp_2.rt,rewExpect,trials_rew.thisRepN,trials_rew.thisTrialN,trials_rew.thisN,trials_rew.thisIndex,trials_rew.ran,Q1,Q2,Q2_text,Q3,Q4,Q5_text,Q5,xRes,yRes
294580,2022-09-21_13h48.35.296,vts_reward_expectancy,2022.2.4,MacIntel,60.0024001,Chrome,1280,800,,,,,,,,,,,,,,,,,,,,,,,,,,,,,,,,,,,,,,,,,,,,,,,,,,,,,,,,,,,,,,,,,,,,,,,,,,,,
294580,2022-09-21_13h48.35.296,vts_reward_expectancy,2022.2.4,MacIntel,60.0024001,Chrome,1280,800,space,68.7565,,,,,,,,,,,,,,,,,,,,,,,,,,,,,,,,,,,,,,,,,,,,,,,,,,,,,,,,,,,,,,,,,,,,,,,,,,
294580,2022-09-21_13h48.35.296,vts_reward_expectancy,2022.2.4,MacIntel,60.0024001,Chrome,1280,800,,,,,,,,,,,,,,,,,,,,,,,,,,,,,,,,,,,,,,,,,,,,,,,,,,,,,,,,,,,,,,,,,,,,,,,,,,,,
294580,2022-09-21_13h48.35.296,vts_reward_expectancy,2022.2.4,MacIntel,60.0024001,Chrome,1280,800,,,l,3.9923,1,1,0,0,0,0,8,1,0,0,1,0,0,0,0,1,hexagon,star,,,,,,,,,,,,,,,,,,,,,,,,,,,,,,,,,,,,,,,,,,,,,,,,,,,,,,
294580,2022-09-21_13h48.35.296,vts_reward_expectancy,2022.2.4,MacIntel,60.0024001,Chrome,1280,800,,,l,1.2228,10,11,0,0,1,1,1,1,1,0,0,0,0,0,1,0,triangle,hexagon,,,,,,,,,,,,,,,,,,,,,,,,,,,,,,,,,,,,,,,,,,,,,,,,,,,,,,
294580,2022-09-21_13h48.35.296,vts_reward_expectancy,2022.2.4,MacIntel,60.0024001,Chrome,1280,800,,,l,0.9654,10,21,0,0,2,2,5,1,0,1,0,0,0,0,0,1,circle,star,,,,,,,,,,,,,,,,,,,,,,,,,,,,,,,,,,,,,,,,,,,,,,,,,,,,,,
294580,2022-09-21_13h48.35.296,vts_reward_expectancy,2022.2.4,MacIntel,60.0024001,Chrome,1280,800,,,a,0.4997,1,22,0,0,3,3,11,1,0,0,0,1,0,0,1,0,star,hexagon,,,,,,,,,,,,,,,,,,,,,,,,,,,,,,,,,,,,,,,,,,,,,,,,,,,,,,
294580,2022-09-21_13h48.35.296,vts_reward_expectancy,2022.2.4,MacIntel,60.0024001,Chrome,1280,800,,,l,0.2646,1,23,0,0,4,4,2,1,1,0,0,0,0,0,0,1,triangle,star,,,,,,,,,,,,,,,,,,,,,,,,,,,,,,,,,,,,,,,,,,,,,,,,,,,,,,
294580,2022-09-21_13h48.35.296,vts_reward_expectancy,2022.2.4,MacIntel,60.0024001,Chrome,1280,800,,,l,0.2989,1,24,0,0,5,5,10,1,0,0,0,1,0,1,0,0,star ,circle,,,,,,,,,,,,,,,,,,,,,,,,,,,,,,,,,,,,,,,,,,,,,,,,,,,,,,
294580,2022-09-21_13h48.35.296,vts_reward_expectancy,2022.2.4,MacIntel,60.0024001,Chrome,1280,800,,,l,0.885,1,25,0,0,6,6,0,1,1,0,0,0,0,1,0,0,triangle,circle,,,,,,,,,,,,,,,,,,,,,,,,,,,,,,,,,,,,,,,,,,,,,,,,,,,,,,
294580,2022-09-21_13h48.35.296,vts_reward_expectancy,2022.2.4,MacIntel,60.0024001,Chrome,1280,800,,,a,0.4165,1,26,0,0,7,7,7,1,0,0,1,0,0,1,0,0,hexagon,circle,,,,,,,,,,,,,,,,,,,,,,,,,,,,,,,,,,,,,,,,,,,,,,,,,,,,,,
294580,2022-09-21_13h48.35.296,vts_reward_expectancy,2022.2.4,MacIntel,60.0024001,Chrome,1280,800,,,l,0.038,10,36,0,0,8,8,3,1,0,1,0,0,1,0,0,0,circle,triangle,,,,,,,,,,,,,,,,,,,,,,,,,,,,,,,,,,,,,,,,,,,,,,,,,,,,,,
294580,2022-09-21_13h48.35.296,vts_reward_expectancy,2022.2.4,MacIntel,60.0024001,Chrome,1280,800,,,a,0.7339,1,37,0,0,9,9,4,1,0,1,0,0,0,0,1,0,circle,hexagon,,,,,,,,,,,,,,,,,,,,,,,,,,,,,,,,,,,,,,,,,,,,,,,,,,,,,,
294580,2022-09-21_13h48.35.296,vts_reward_expectancy,2022.2.4,MacIntel,60.0024001,Chrome,1280,800,,,l,0.267,10,47,0,0,10,10,6,1,0,0,1,0,1,0,0,0,hexagon,triangle,,,,,,,,,,,,,,,,,,,,,,,,,,,,,,,,,,,,,,,,,,,,,,,,,,,,,,
294580,2022-09-21_13h48.35.296,vts_reward_expectancy,2022.2.4,MacIntel,60.0024001,Chrome,1280,800,,,l,0.35,10,57,0,0,11,11,9,1,0,0,0,1,1,0,0,0,star,triangle,,,,,,,,,,,,,,,,,,,,,,,,,,,,,,,,,,,,,,,,,,,,,,,,,,,,,,
294580,2022-09-21_13h48.35.296,vts_reward_expectancy,2022.2.4,MacIntel,60.0024001,Chrome,1280,800,,,l,0.4668,1,58,0,1,0,12,0,1,1,0,0,0,0,1,0,0,triangle,circle,,,,,,,,,,,,,,,,,,,,,,,,,,,,,,,,,,,,,,,,,,,,,,,,,,,,,,
294580,2022-09-21_13h48.35.296,vts_reward_expectancy,2022.2.4,MacIntel,60.0024001,Chrome,1280,800,,,a,0.4486,1,59,0,1,1,13,9,1,0,0,0,1,1,0,0,0,star,triangle,,,,,,,,,,,,,,,,,,,,,,,,,,,,,,,,,,,,,,,,,,,,,,,,,,,,,,
294580,2022-09-21_13h48.35.296,vts_reward_expectancy,2022.2.4,MacIntel,60.0024001,Chrome,1280,800,,,l,0.3838,1,60,0,1,2,14,7,1,0,0,1,0,0,1,0,0,hexagon,circle,,,,,,,,,,,,,,,,,,,,,,,,,,,,,,,,,,,,,,,,,,,,,,,,,,,,,,
294580,2022-09-21_13h48.35.296,vts_reward_expectancy,2022.2.4,MacIntel,60.0024001,Chrome,1280,800,,,a,0.2694,1,61,0,1,3,15,10,1,0,0,0,1,0,1,0,0,star ,circle,,,,,,,,,,,,,,,,,,,,,,,,,,,,,,,,,,,,,,,,,,,,,,,,,,,,,,
294580,2022-09-21_13h48.35.296,vts_reward_expectancy,2022.2.4,MacIntel,60.0024001,Chrome,1280,800,,,l,0.1825,1,62,0,1,4,16,2,1,1,0,0,0,0,0,0,1,triangle,star,,,,,,,,,,,,,,,,,,,,,,,,,,,,,,,,,,,,,,,,,,,,,,,,,,,,,,
294580,2022-09-21_13h48.35.296,vts_reward_expectancy,2022.2.4,MacIntel,60.0024001,Chrome,1280,800,,,l,0.1168,10,72,0,1,5,17,4,1,0,1,0,0,0,0,1,0,circle,hexagon,,,,,,,,,,,,,,,,,,,,,,,,,,,,,,,,,,,,,,,,,,,,,,,,,,,,,,
294580,2022-09-21_13h48.35.296,vts_reward_expectancy,2022.2.4,MacIntel,60.0024001,Chrome,1280,800,,,l,0.4668,10,82,0,1,6,18,11,1,0,0,0,1,0,0,1,0,star,hexagon,,,,,,,,,,,,,,,,,,,,,,,,,,,,,,,,,,,,,,,,,,,,,,,,,,,,,,
294580,2022-09-21_13h48.35.296,vts_reward_expectancy,2022.2.4,MacIntel,60.0024001,Chrome,1280,800,,,a,0.9504,10,92,0,1,7,19,1,1,1,0,0,0,0,0,1,0,triangle,hexagon,,,,,,,,,,,,,,,,,,,,,,,,,,,,,,,,,,,,,,,,,,,,,,,,,,,,,,
294580,2022-09-21_13h48.35.296,vts_reward_expectancy,2022.2.4,MacIntel,60.0024001,Chrome,1280,800,,,l,1.2818,1,93,0,1,8,20,8,1,0,0,1,0,0,0,0,1,hexagon,star,,,,,,,,,,,,,,,,,,,,,,,,,,,,,,,,,,,,,,,,,,,,,,,,,,,,,,
294580,2022-09-21_13h48.35.296,vts_reward_expectancy,2022.2.4,MacIntel,60.0024001,Chrome,1280,800,,,l,0.9693,10,103,0,1,9,21,6,1,0,0,1,0,1,0,0,0,hexagon,triangle,,,,,,,,,,,,,,,,,,,,,,,,,,,,,,,,,,,,,,,,,,,,,,,,,,,,,,
294580,2022-09-21_13h48.35.296,vts_reward_expectancy,2022.2.4,MacIntel,60.0024001,Chrome,1280,800,,,l,1.519,1,104,0,1,10,22,3,1,0,1,0,0,1,0,0,0,circle,triangle,,,,,,,,,,,,,,,,,,,,,,,,,,,,,,,,,,,,,,,,,,,,,,,,,,,,,,
294580,2022-09-21_13h48.35.296,vts_reward_expectancy,2022.2.4,MacIntel,60.0024001,Chrome,1280,800,,,a,1.2665,1,105,0,1,11,23,5,1,0,1,0,0,0,0,0,1,circle,star,,,,,,,,,,,,,,,,,,,,,,,,,,,,,,,,,,,,,,,,,,,,,,,,,,,,,,
294580,2022-09-21_13h48.35.296,vts_reward_expectancy,2022.2.4,MacIntel,60.0024001,Chrome,1280,800,,,l,1.1586,10,115,0,2,0,24,3,1,0,1,0,0,1,0,0,0,circle,triangle,,,,,,,,,,,,,,,,,,,,,,,,,,,,,,,,,,,,,,,,,,,,,,,,,,,,,,
294580,2022-09-21_13h48.35.296,vts_reward_expectancy,2022.2.4,MacIntel,60.0024001,Chrome,1280,800,,,l,1.8524,10,125,0,2,1,25,7,1,0,0,1,0,0,1,0,0,hexagon,circle,,,,,,,,,,,,,,,,,,,,,,,,,,,,,,,,,,,,,,,,,,,,,,,,,,,,,,
294580,2022-09-21_13h48.35.296,vts_reward_expectancy,2022.2.4,MacIntel,60.0024001,Chrome,1280,800,,,a,0.9331,10,135,0,2,2,26,4,1,0,1,0,0,0,0,1,0,circle,hexagon,,,,,,,,,,,,,,,,,,,,,,,,,,,,,,,,,,,,,,,,,,,,,,,,,,,,,,
294580,2022-09-21_13h48.35.296,vts_reward_expectancy,2022.2.4,MacIntel,60.0024001,Chrome,1280,800,,,l,1.4053,1,136,0,2,3,27,11,1,0,0,0,1,0,0,1,0,star,hexagon,,,,,,,,,,,,,,,,,,,,,,,,,,,,,,,,,,,,,,,,,,,,,,,,,,,,,,
294580,2022-09-21_13h48.35.296,vts_reward_expectancy,2022.2.4,MacIntel,60.0024001,Chrome,1280,800,,,a,1.0833,1,137,0,2,4,28,1,1,1,0,0,0,0,0,1,0,triangle,hexagon,,,,,,,,,,,,,,,,,,,,,,,,,,,,,,,,,,,,,,,,,,,,,,,,,,,,,,
294580,2022-09-21_13h48.35.296,vts_reward_expectancy,2022.2.4,MacIntel,60.0024001,Chrome,1280,800,,,l,1.1703,10,147,0,2,5,29,6,1,0,0,1,0,1,0,0,0,hexagon,triangle,,,,,,,,,,,,,,,,,,,,,,,,,,,,,,,,,,,,,,,,,,,,,,,,,,,,,,
294580,2022-09-21_13h48.35.296,vts_reward_expectancy,2022.2.4,MacIntel,60.0024001,Chrome,1280,800,,,a,1.433,10,157,0,2,6,30,0,1,1,0,0,0,0,1,0,0,triangle,circle,,,,,,,,,,,,,,,,,,,,,,,,,,,,,,,,,,,,,,,,,,,,,,,,,,,,,,
294580,2022-09-21_13h48.35.296,vts_reward_expectancy,2022.2.4,MacIntel,60.0024001,Chrome,1280,800,,,a,1.4835,1,158,0,2,7,31,5,1,0,1,0,0,0,0,0,1,circle,star,,,,,,,,,,,,,,,,,,,,,,,,,,,,,,,,,,,,,,,,,,,,,,,,,,,,,,
294580,2022-09-21_13h48.35.296,vts_reward_expectancy,2022.2.4,MacIntel,60.0024001,Chrome,1280,800,,,a,2.5159,10,168,0,2,8,32,9,1,0,0,0,1,1,0,0,0,star,triangle,,,,,,,,,,,,,,,,,,,,,,,,,,,,,,,,,,,,,,,,,,,,,,,,,,,,,,
294580,2022-09-21_13h48.35.296,vts_reward_expectancy,2022.2.4,MacIntel,60.0024001,Chrome,1280,800,,,l,3.1837,10,178,0,2,9,33,10,1,0,0,0,1,0,1,0,0,star ,circle,,,,,,,,,,,,,,,,,,,,,,,,,,,,,,,,,,,,,,,,,,,,,,,,,,,,,,
294580,2022-09-21_13h48.35.296,vts_reward_expectancy,2022.2.4,MacIntel,60.0024001,Chrome,1280,800,,,a,1.6688,1,179,0,2,10,34,2,1,1,0,0,0,0,0,0,1,triangle,star,,,,,,,,,,,,,,,,,,,,,,,,,,,,,,,,,,,,,,,,,,,,,,,,,,,,,,
294580,2022-09-21_13h48.35.296,vts_reward_expectancy,2022.2.4,MacIntel,60.0024001,Chrome,1280,800,,,l,1.4664,10,189,0,2,11,35,8,1,0,0,1,0,0,0,0,1,hexagon,star,,,,,,,,,,,,,,,,,,,,,,,,,,,,,,,,,,,,,,,,,,,,,,,,,,,,,,
294580,2022-09-21_13h48.35.296,vts_reward_expectancy,2022.2.4,MacIntel,60.0024001,Chrome,1280,800,,,l,1.085,1,190,1,0,0,0,6,1,0,0,1,0,1,0,0,0,hexagon,triangle,,,,,,,,,,,,,,,,,,,,,,,,,,,,,,,,,,,,,,,,,,,,,,,,,,,,,,
294580,2022-09-21_13h48.35.296,vts_reward_expectancy,2022.2.4,MacIntel,60.0024001,Chrome,1280,800,,,a,1.0162,10,200,1,0,1,1,7,1,0,0,1,0,0,1,0,0,hexagon,circle,,,,,,,,,,,,,,,,,,,,,,,,,,,,,,,,,,,,,,,,,,,,,,,,,,,,,,
294580,2022-09-21_13h48.35.296,vts_reward_expectancy,2022.2.4,MacIntel,60.0024001,Chrome,1280,800,,,a,1.0836,1,201,1,0,2,2,3,1,0,1,0,0,1,0,0,0,circle,triangle,,,,,,,,,,,,,,,,,,,,,,,,,,,,,,,,,,,,,,,,,,,,,,,,,,,,,,
294580,2022-09-21_13h48.35.296,vts_reward_expectancy,2022.2.4,MacIntel,60.0024001,Chrome,1280,800,,,a,1.4505,1,202,1,0,3,3,11,1,0,0,0,1,0,0,1,0,star,hexagon,,,,,,,,,,,,,,,,,,,,,,,,,,,,,,,,,,,,,,,,,,,,,,,,,,,,,,
294580,2022-09-21_13h48.35.296,vts_reward_expectancy,2022.2.4,MacIntel,60.0024001,Chrome,1280,800,,,a,1.2011,1,203,1,0,4,4,1,1,1,0,0,0,0,0,1,0,triangle,hexagon,,,,,,,,,,,,,,,,,,,,,,,,,,,,,,,,,,,,,,,,,,,,,,,,,,,,,,
294580,2022-09-21_13h48.35.296,vts_reward_expectancy,2022.2.4,MacIntel,60.0024001,Chrome,1280,800,,,l,1.2009,1,204,1,0,5,5,5,1,0,1,0,0,0,0,0,1,circle,star,,,,,,,,,,,,,,,,,,,,,,,,,,,,,,,,,,,,,,,,,,,,,,,,,,,,,,
294580,2022-09-21_13h48.35.296,vts_reward_expectancy,2022.2.4,MacIntel,60.0024001,Chrome,1280,800,,,l,0.3002,10,214,1,0,6,6,0,1,1,0,0,0,0,1,0,0,triangle,circle,,,,,,,,,,,,,,,,,,,,,,,,,,,,,,,,,,,,,,,,,,,,,,,,,,,,,,
294580,2022-09-21_13h48.35.296,vts_reward_expectancy,2022.2.4,MacIntel,60.0024001,Chrome,1280,800,,,l,0.3333,1,215,1,0,7,7,2,1,1,0,0,0,0,0,0,1,triangle,star,,,,,,,,,,,,,,,,,,,,,,,,,,,,,,,,,,,,,,,,,,,,,,,,,,,,,,
294580,2022-09-21_13h48.35.296,vts_reward_expectancy,2022.2.4,MacIntel,60.0024001,Chrome,1280,800,,,l,0.3155,10,225,1,0,8,8,9,1,0,0,0,1,1,0,0,0,star,triangle,,,,,,,,,,,,,,,,,,,,,,,,,,,,,,,,,,,,,,,,,,,,,,,,,,,,,,
294580,2022-09-21_13h48.35.296,vts_reward_expectancy,2022.2.4,MacIntel,60.0024001,Chrome,1280,800,,,l,0.099,10,235,1,0,9,9,4,1,0,1,0,0,0,0,1,0,circle,hexagon,,,,,,,,,,,,,,,,,,,,,,,,,,,,,,,,,,,,,,,,,,,,,,,,,,,,,,
294580,2022-09-21_13h48.35.296,vts_reward_expectancy,2022.2.4,MacIntel,60.0024001,Chrome,1280,800,,,l,0.0881,1,236,1,0,10,10,10,1,0,0,0,1,0,1,0,0,star ,circle,,,,,,,,,,,,,,,,,,,,,,,,,,,,,,,,,,,,,,,,,,,,,,,,,,,,,,
294580,2022-09-21_13h48.35.296,vts_reward_expectancy,2022.2.4,MacIntel,60.0024001,Chrome,1280,800,,,l,0.1323,10,246,1,0,11,11,8,1,0,0,1,0,0,0,0,1,hexagon,star,,,,,,,,,,,,,,,,,,,,,,,,,,,,,,,,,,,,,,,,,,,,,,,,,,,,,,
294580,2022-09-21_13h48.35.296,vts_reward_expectancy,2022.2.4,MacIntel,60.0024001,Chrome,1280,800,,,l,0.1492,1,247,1,1,0,12,5,1,0,1,0,0,0,0,0,1,circle,star,,,,,,,,,,,,,,,,,,,,,,,,,,,,,,,,,,,,,,,,,,,,,,,,,,,,,,
294580,2022-09-21_13h48.35.296,vts_reward_expectancy,2022.2.4,MacIntel,60.0024001,Chrome,1280,800,,,l,0.3392,1,248,1,1,1,13,6,1,0,0,1,0,1,0,0,0,hexagon,triangle,,,,,,,,,,,,,,,,,,,,,,,,,,,,,,,,,,,,,,,,,,,,,,,,,,,,,,
294580,2022-09-21_13h48.35.296,vts_reward_expectancy,2022.2.4,MacIntel,60.0024001,Chrome,1280,800,,,l,0.0154,10,258,1,1,2,14,11,1,0,0,0,1,0,0,1,0,star,hexagon,,,,,,,,,,,,,,,,,,,,,,,,,,,,,,,,,,,,,,,,,,,,,,,,,,,,,,
294580,2022-09-21_13h48.35.296,vts_reward_expectancy,2022.2.4,MacIntel,60.0024001,Chrome,1280,800,,,l,0.2833,10,268,1,1,3,15,7,1,0,0,1,0,0,1,0,0,hexagon,circle,,,,,,,,,,,,,,,,,,,,,,,,,,,,,,,,,,,,,,,,,,,,,,,,,,,,,,
294580,2022-09-21_13h48.35.296,vts_reward_expectancy,2022.2.4,MacIntel,60.0024001,Chrome,1280,800,,,l,0.2823,1,269,1,1,4,16,2,1,1,0,0,0,0,0,0,1,triangle,star,,,,,,,,,,,,,,,,,,,,,,,,,,,,,,,,,,,,,,,,,,,,,,,,,,,,,,
294580,2022-09-21_13h48.35.296,vts_reward_expectancy,2022.2.4,MacIntel,60.0024001,Chrome,1280,800,,,l,0.1187,1,270,1,1,5,17,0,1,1,0,0,0,0,1,0,0,triangle,circle,,,,,,,,,,,,,,,,,,,,,,,,,,,,,,,,,,,,,,,,,,,,,,,,,,,,,,
294580,2022-09-21_13h48.35.296,vts_reward_expectancy,2022.2.4,MacIntel,60.0024001,Chrome,1280,800,,,l,0.1836,10,280,1,1,6,18,10,1,0,0,0,1,0,1,0,0,star ,circle,,,,,,,,,,,,,,,,,,,,,,,,,,,,,,,,,,,,,,,,,,,,,,,,,,,,,,
294580,2022-09-21_13h48.35.296,vts_reward_expectancy,2022.2.4,MacIntel,60.0024001,Chrome,1280,800,,,l,0.3813,1,281,1,1,7,19,8,1,0,0,1,0,0,0,0,1,hexagon,star,,,,,,,,,,,,,,,,,,,,,,,,,,,,,,,,,,,,,,,,,,,,,,,,,,,,,,
294580,2022-09-21_13h48.35.296,vts_reward_expectancy,2022.2.4,MacIntel,60.0024001,Chrome,1280,800,,,l,0.1747,10,291,1,1,8,20,4,1,0,1,0,0,0,0,1,0,circle,hexagon,,,,,,,,,,,,,,,,,,,,,,,,,,,,,,,,,,,,,,,,,,,,,,,,,,,,,,
294580,2022-09-21_13h48.35.296,vts_reward_expectancy,2022.2.4,MacIntel,60.0024001,Chrome,1280,800,,,l,0.1675,10,301,1,1,9,21,1,1,1,0,0,0,0,0,1,0,triangle,hexagon,,,,,,,,,,,,,,,,,,,,,,,,,,,,,,,,,,,,,,,,,,,,,,,,,,,,,,
294580,2022-09-21_13h48.35.296,vts_reward_expectancy,2022.2.4,MacIntel,60.0024001,Chrome,1280,800,,,l,0.0882,10,311,1,1,10,22,9,1,0,0,0,1,1,0,0,0,star,triangle,,,,,,,,,,,,,,,,,,,,,,,,,,,,,,,,,,,,,,,,,,,,,,,,,,,,,,
294580,2022-09-21_13h48.35.296,vts_reward_expectancy,2022.2.4,MacIntel,60.0024001,Chrome,1280,800,,,l,0.0678,10,321,1,1,11,23,3,1,0,1,0,0,1,0,0,0,circle,triangle,,,,,,,,,,,,,,,,,,,,,,,,,,,,,,,,,,,,,,,,,,,,,,,,,,,,,,
294580,2022-09-21_13h48.35.296,vts_reward_expectancy,2022.2.4,MacIntel,60.0024001,Chrome,1280,800,,,l,0.155,1,322,1,2,0,24,11,1,0,0,0,1,0,0,1,0,star,hexagon,,,,,,,,,,,,,,,,,,,,,,,,,,,,,,,,,,,,,,,,,,,,,,,,,,,,,,
294580,2022-09-21_13h48.35.296,vts_reward_expectancy,2022.2.4,MacIntel,60.0024001,Chrome,1280,800,,,l,0.0522,1,323,1,2,1,25,10,1,0,0,0,1,0,1,0,0,star ,circle,,,,,,,,,,,,,,,,,,,,,,,,,,,,,,,,,,,,,,,,,,,,,,,,,,,,,,
294580,2022-09-21_13h48.35.296,vts_reward_expectancy,2022.2.4,MacIntel,60.0024001,Chrome,1280,800,,,l,0.0994,1,324,1,2,2,26,3,1,0,1,0,0,1,0,0,0,circle,triangle,,,,,,,,,,,,,,,,,,,,,,,,,,,,,,,,,,,,,,,,,,,,,,,,,,,,,,
294580,2022-09-21_13h48.35.296,vts_reward_expectancy,2022.2.4,MacIntel,60.0024001,Chrome,1280,800,,,l,0.2343,1,325,1,2,3,27,2,1,1,0,0,0,0,0,0,1,triangle,star,,,,,,,,,,,,,,,,,,,,,,,,,,,,,,,,,,,,,,,,,,,,,,,,,,,,,,
294580,2022-09-21_13h48.35.296,vts_reward_expectancy,2022.2.4,MacIntel,60.0024001,Chrome,1280,800,,,l,0.1869,10,335,1,2,4,28,1,1,1,0,0,0,0,0,1,0,triangle,hexagon,,,,,,,,,,,,,,,,,,,,,,,,,,,,,,,,,,,,,,,,,,,,,,,,,,,,,,
294580,2022-09-21_13h48.35.296,vts_reward_expectancy,2022.2.4,MacIntel,60.0024001,Chrome,1280,800,,,l,0.0004,10,345,1,2,5,29,0,1,1,0,0,0,0,1,0,0,triangle,circle,,,,,,,,,,,,,,,,,,,,,,,,,,,,,,,,,,,,,,,,,,,,,,,,,,,,,,
294580,2022-09-21_13h48.35.296,vts_reward_expectancy,2022.2.4,MacIntel,60.0024001,Chrome,1280,800,,,l,0.0676,10,355,1,2,6,30,4,1,0,1,0,0,0,0,1,0,circle,hexagon,,,,,,,,,,,,,,,,,,,,,,,,,,,,,,,,,,,,,,,,,,,,,,,,,,,,,,
294580,2022-09-21_13h48.35.296,vts_reward_expectancy,2022.2.4,MacIntel,60.0024001,Chrome,1280,800,,,l,0.032,1,356,1,2,7,31,7,1,0,0,1,0,0,1,0,0,hexagon,circle,,,,,,,,,,,,,,,,,,,,,,,,,,,,,,,,,,,,,,,,,,,,,,,,,,,,,,
294580,2022-09-21_13h48.35.296,vts_reward_expectancy,2022.2.4,MacIntel,60.0024001,Chrome,1280,800,,,l,0.2507,1,357,1,2,8,32,8,1,0,0,1,0,0,0,0,1,hexagon,star,,,,,,,,,,,,,,,,,,,,,,,,,,,,,,,,,,,,,,,,,,,,,,,,,,,,,,
294580,2022-09-21_13h48.35.296,vts_reward_expectancy,2022.2.4,MacIntel,60.0024001,Chrome,1280,800,,,l,0.088,1,358,1,2,9,33,9,1,0,0,0,1,1,0,0,0,star,triangle,,,,,,,,,,,,,,,,,,,,,,,,,,,,,,,,,,,,,,,,,,,,,,,,,,,,,,
294580,2022-09-21_13h48.35.296,vts_reward_expectancy,2022.2.4,MacIntel,60.0024001,Chrome,1280,800,,,l,0.1057,10,368,1,2,10,34,6,1,0,0,1,0,1,0,0,0,hexagon,triangle,,,,,,,,,,,,,,,,,,,,,,,,,,,,,,,,,,,,,,,,,,,,,,,,,,,,,,
294580,2022-09-21_13h48.35.296,vts_reward_expectancy,2022.2.4,MacIntel,60.0024001,Chrome,1280,800,,,l,0.0656,1,369,1,2,11,35,5,1,0,1,0,0,0,0,0,1,circle,star,,,,,,,,,,,,,,,,,,,,,,,,,,,,,,,,,,,,,,,,,,,,,,,,,,,,,,
294580,2022-09-21_13h48.35.296,vts_reward_expectancy,2022.2.4,MacIntel,60.0024001,Chrome,1280,800,,,l,0.3997,1,370,2,0,0,0,0,1,1,0,0,0,0,1,0,0,triangle,circle,,,,,,,,,,,,,,,,,,,,,,,,,,,,,,,,,,,,,,,,,,,,,,,,,,,,,,
294580,2022-09-21_13h48.35.296,vts_reward_expectancy,2022.2.4,MacIntel,60.0024001,Chrome,1280,800,,,l,0.0305,10,380,2,0,1,1,3,1,0,1,0,0,1,0,0,0,circle,triangle,,,,,,,,,,,,,,,,,,,,,,,,,,,,,,,,,,,,,,,,,,,,,,,,,,,,,,
294580,2022-09-21_13h48.35.296,vts_reward_expectancy,2022.2.4,MacIntel,60.0024001,Chrome,1280,800,,,l,0.0481,10,390,2,0,2,2,7,1,0,0,1,0,0,1,0,0,hexagon,circle,,,,,,,,,,,,,,,,,,,,,,,,,,,,,,,,,,,,,,,,,,,,,,,,,,,,,,
294580,2022-09-21_13h48.35.296,vts_reward_expectancy,2022.2.4,MacIntel,60.0024001,Chrome,1280,800,,,l,0.3836,10,400,2,0,3,3,11,1,0,0,0,1,0,0,1,0,star,hexagon,,,,,,,,,,,,,,,,,,,,,,,,,,,,,,,,,,,,,,,,,,,,,,,,,,,,,,
294580,2022-09-21_13h48.35.296,vts_reward_expectancy,2022.2.4,MacIntel,60.0024001,Chrome,1280,800,,,l,0.0837,10,410,2,0,4,4,2,1,1,0,0,0,0,0,0,1,triangle,star,,,,,,,,,,,,,,,,,,,,,,,,,,,,,,,,,,,,,,,,,,,,,,,,,,,,,,
294580,2022-09-21_13h48.35.296,vts_reward_expectancy,2022.2.4,MacIntel,60.0024001,Chrome,1280,800,,,l,0.2418,10,420,2,0,5,5,8,1,0,0,1,0,0,0,0,1,hexagon,star,,,,,,,,,,,,,,,,,,,,,,,,,,,,,,,,,,,,,,,,,,,,,,,,,,,,,,
294580,2022-09-21_13h48.35.296,vts_reward_expectancy,2022.2.4,MacIntel,60.0024001,Chrome,1280,800,,,l,0.1197,10,430,2,0,6,6,6,1,0,0,1,0,1,0,0,0,hexagon,triangle,,,,,,,,,,,,,,,,,,,,,,,,,,,,,,,,,,,,,,,,,,,,,,,,,,,,,,
294580,2022-09-21_13h48.35.296,vts_reward_expectancy,2022.2.4,MacIntel,60.0024001,Chrome,1280,800,,,l,0.0157,10,440,2,0,7,7,9,1,0,0,0,1,1,0,0,0,star,triangle,,,,,,,,,,,,,,,,,,,,,,,,,,,,,,,,,,,,,,,,,,,,,,,,,,,,,,
294580,2022-09-21_13h48.35.296,vts_reward_expectancy,2022.2.4,MacIntel,60.0024001,Chrome,1280,800,,,l,0.0005,10,450,2,0,8,8,4,1,0,1,0,0,0,0,1,0,circle,hexagon,,,,,,,,,,,,,,,,,,,,,,,,,,,,,,,,,,,,,,,,,,,,,,,,,,,,,,
294580,2022-09-21_13h48.35.296,vts_reward_expectancy,2022.2.4,MacIntel,60.0024001,Chrome,1280,800,,,l,0.1593,1,451,2,0,9,9,5,1,0,1,0,0,0,0,0,1,circle,star,,,,,,,,,,,,,,,,,,,,,,,,,,,,,,,,,,,,,,,,,,,,,,,,,,,,,,
294580,2022-09-21_13h48.35.296,vts_reward_expectancy,2022.2.4,MacIntel,60.0024001,Chrome,1280,800,,,l,0.0056,10,461,2,0,10,10,1,1,1,0,0,0,0,0,1,0,triangle,hexagon,,,,,,,,,,,,,,,,,,,,,,,,,,,,,,,,,,,,,,,,,,,,,,,,,,,,,,
294580,2022-09-21_13h48.35.296,vts_reward_expectancy,2022.2.4,MacIntel,60.0024001,Chrome,1280,800,,,l,0.0685,1,462,2,0,11,11,10,1,0,0,0,1,0,1,0,0,star ,circle,,,,,,,,,,,,,,,,,,,,,,,,,,,,,,,,,,,,,,,,,,,,,,,,,,,,,,
294580,2022-09-21_13h48.35.296,vts_reward_expectancy,2022.2.4,MacIntel,60.0024001,Chrome,1280,800,,,l,0.1036,10,472,2,1,0,12,6,1,0,0,1,0,1,0,0,0,hexagon,triangle,,,,,,,,,,,,,,,,,,,,,,,,,,,,,,,,,,,,,,,,,,,,,,,,,,,,,,
294580,2022-09-21_13h48.35.296,vts_reward_expectancy,2022.2.4,MacIntel,60.0024001,Chrome,1280,800,,,l,0.0396,1,473,2,1,1,13,9,1,0,0,0,1,1,0,0,0,star,triangle,,,,,,,,,,,,,,,,,,,,,,,,,,,,,,,,,,,,,,,,,,,,,,,,,,,,,,
294580,2022-09-21_13h48.35.296,vts_reward_expectancy,2022.2.4,MacIntel,60.0024001,Chrome,1280,800,,,l,0.1711,1,474,2,1,2,14,3,1,0,1,0,0,1,0,0,0,circle,triangle,,,,,,,,,,,,,,,,,,,,,,,,,,,,,,,,,,,,,,,,,,,,,,,,,,,,,,
294580,2022-09-21_13h48.35.296,vts_reward_expectancy,2022.2.4,MacIntel,60.0024001,Chrome,1280,800,,,l,0.1547,1,475,2,1,3,15,2,1,1,0,0,0,0,0,0,1,triangle,star,,,,,,,,,,,,,,,,,,,,,,,,,,,,,,,,,,,,,,,,,,,,,,,,,,,,,,
294580,2022-09-21_13h48.35.296,vts_reward_expectancy,2022.2.4,MacIntel,60.0024001,Chrome,1280,800,,,l,0.1999,1,476,2,1,4,16,0,1,1,0,0,0,0,1,0,0,triangle,circle,,,,,,,,,,,,,,,,,,,,,,,,,,,,,,,,,,,,,,,,,,,,,,,,,,,,,,
294580,2022-09-21_13h48.35.296,vts_reward_expectancy,2022.2.4,MacIntel,60.0024001,Chrome,1280,800,,,l,0.1485,1,477,2,1,5,17,4,1,0,1,0,0,0,0,1,0,circle,hexagon,,,,,,,,,,,,,,,,,,,,,,,,,,,,,,,,,,,,,,,,,,,,,,,,,,,,,,
294580,2022-09-21_13h48.35.296,vts_reward_expectancy,2022.2.4,MacIntel,60.0024001,Chrome,1280,800,,,l,0.1672,10,487,2,1,6,18,8,1,0,0,1,0,0,0,0,1,hexagon,star,,,,,,,,,,,,,,,,,,,,,,,,,,,,,,,,,,,,,,,,,,,,,,,,,,,,,,
294580,2022-09-21_13h48.35.296,vts_reward_expectancy,2022.2.4,MacIntel,60.0024001,Chrome,1280,800,,,l,0.182,1,488,2,1,7,19,10,1,0,0,0,1,0,1,0,0,star ,circle,,,,,,,,,,,,,,,,,,,,,,,,,,,,,,,,,,,,,,,,,,,,,,,,,,,,,,
294580,2022-09-21_13h48.35.296,vts_reward_expectancy,2022.2.4,MacIntel,60.0024001,Chrome,1280,800,,,l,0.0931,1,489,2,1,8,20,11,1,0,0,0,1,0,0,1,0,star,hexagon,,,,,,,,,,,,,,,,,,,,,,,,,,,,,,,,,,,,,,,,,,,,,,,,,,,,,,
294580,2022-09-21_13h48.35.296,vts_reward_expectancy,2022.2.4,MacIntel,60.0024001,Chrome,1280,800,,,l,0.0327,1,490,2,1,9,21,7,1,0,0,1,0,0,1,0,0,hexagon,circle,,,,,,,,,,,,,,,,,,,,,,,,,,,,,,,,,,,,,,,,,,,,,,,,,,,,,,
294580,2022-09-21_13h48.35.296,vts_reward_expectancy,2022.2.4,MacIntel,60.0024001,Chrome,1280,800,,,l,0.1057,1,491,2,1,10,22,5,1,0,1,0,0,0,0,0,1,circle,star,,,,,,,,,,,,,,,,,,,,,,,,,,,,,,,,,,,,,,,,,,,,,,,,,,,,,,
294580,2022-09-21_13h48.35.296,vts_reward_expectancy,2022.2.4,MacIntel,60.0024001,Chrome,1280,800,,,l,0.0993,10,501,2,1,11,23,1,1,1,0,0,0,0,0,1,0,triangle,hexagon,,,,,,,,,,,,,,,,,,,,,,,,,,,,,,,,,,,,,,,,,,,,,,,,,,,,,,
294580,2022-09-21_13h48.35.296,vts_reward_expectancy,2022.2.4,MacIntel,60.0024001,Chrome,1280,800,,,l,0.3326,10,511,2,2,0,24,11,1,0,0,0,1,0,0,1,0,star,hexagon,,,,,,,,,,,,,,,,,,,,,,,,,,,,,,,,,,,,,,,,,,,,,,,,,,,,,,
294580,2022-09-21_13h48.35.296,vts_reward_expectancy,2022.2.4,MacIntel,60.0024001,Chrome,1280,800,,,l,0.1367,1,512,2,2,1,25,0,1,1,0,0,0,0,1,0,0,triangle,circle,,,,,,,,,,,,,,,,,,,,,,,,,,,,,,,,,,,,,,,,,,,,,,,,,,,,,,
294580,2022-09-21_13h48.35.296,vts_reward_expectancy,2022.2.4,MacIntel,60.0024001,Chrome,1280,800,,,l,0.0376,1,513,2,2,2,26,9,1,0,0,0,1,1,0,0,0,star,triangle,,,,,,,,,,,,,,,,,,,,,,,,,,,,,,,,,,,,,,,,,,,,,,,,,,,,,,
294580,2022-09-21_13h48.35.296,vts_reward_expectancy,2022.2.4,MacIntel,60.0024001,Chrome,1280,800,,,l,0.0489,10,523,2,2,3,27,4,1,0,1,0,0,0,0,1,0,circle,hexagon,,,,,,,,,,,,,,,,,,,,,,,,,,,,,,,,,,,,,,,,,,,,,,,,,,,,,,
294580,2022-09-21_13h48.35.296,vts_reward_expectancy,2022.2.4,MacIntel,60.0024001,Chrome,1280,800,,,l,0.0659,1,524,2,2,4,28,2,1,1,0,0,0,0,0,0,1,triangle,star,,,,,,,,,,,,,,,,,,,,,,,,,,,,,,,,,,,,,,,,,,,,,,,,,,,,,,
294580,2022-09-21_13h48.35.296,vts_reward_expectancy,2022.2.4,MacIntel,60.0024001,Chrome,1280,800,,,l,0.2204,1,525,2,2,5,29,10,1,0,0,0,1,0,1,0,0,star ,circle,,,,,,,,,,,,,,,,,,,,,,,,,,,,,,,,,,,,,,,,,,,,,,,,,,,,,,
294580,2022-09-21_13h48.35.296,vts_reward_expectancy,2022.2.4,MacIntel,60.0024001,Chrome,1280,800,,,l,0.1154,1,526,2,2,6,30,5,1,0,1,0,0,0,0,0,1,circle,star,,,,,,,,,,,,,,,,,,,,,,,,,,,,,,,,,,,,,,,,,,,,,,,,,,,,,,
294580,2022-09-21_13h48.35.296,vts_reward_expectancy,2022.2.4,MacIntel,60.0024001,Chrome,1280,800,,,l,0.1989,10,536,2,2,7,31,3,1,0,1,0,0,1,0,0,0,circle,triangle,,,,,,,,,,,,,,,,,,,,,,,,,,,,,,,,,,,,,,,,,,,,,,,,,,,,,,
294580,2022-09-21_13h48.35.296,vts_reward_expectancy,2022.2.4,MacIntel,60.0024001,Chrome,1280,800,,,l,0.1657,10,546,2,2,8,32,6,1,0,0,1,0,1,0,0,0,hexagon,triangle,,,,,,,,,,,,,,,,,,,,,,,,,,,,,,,,,,,,,,,,,,,,,,,,,,,,,,
294580,2022-09-21_13h48.35.296,vts_reward_expectancy,2022.2.4,MacIntel,60.0024001,Chrome,1280,800,,,l,0.1013,10,556,2,2,9,33,1,1,1,0,0,0,0,0,1,0,triangle,hexagon,,,,,,,,,,,,,,,,,,,,,,,,,,,,,,,,,,,,,,,,,,,,,,,,,,,,,,
294580,2022-09-21_13h48.35.296,vts_reward_expectancy,2022.2.4,MacIntel,60.0024001,Chrome,1280,800,,,l,0.1495,10,566,2,2,10,34,7,1,0,0,1,0,0,1,0,0,hexagon,circle,,,,,,,,,,,,,,,,,,,,,,,,,,,,,,,,,,,,,,,,,,,,,,,,,,,,,,
294580,2022-09-21_13h48.35.296,vts_reward_expectancy,2022.2.4,MacIntel,60.0024001,Chrome,1280,800,,,l,0.1166,10,576,2,2,11,35,8,1,0,0,1,0,0,0,0,1,hexagon,star,,,,,,,,,,,,,,,,,,,,,,,,,,,,,,,,,,,,,,,,,,,,,,,,,,,,,,
294580,2022-09-21_13h48.35.296,vts_reward_expectancy,2022.2.4,MacIntel,60.0024001,Chrome,1280,800,,,,,,,,,,,,,,,,,,,,,,,132,U,hexagon,0,0,,0,0,0,0,0,1,,,,,,,,,,,,,,,,,,,,,,,,,,,,,,,,,,,,,,,,,,
294580,2022-09-21_13h48.35.296,vts_reward_expectancy,2022.2.4,MacIntel,60.0024001,Chrome,1280,800,,,,,,,,,,,,,,,,,,,,,,,181,H,circle,1,1,f,0,1,0,1,0,1,0.7619,,,,,,,,,,,,,,,,,,,,,,,,,,,,,,,,,,,,,,,,,
294580,2022-09-21_13h48.35.296,vts_reward_expectancy,2022.2.4,MacIntel,60.0024001,Chrome,1280,800,,,,,,,,,,,,,,,,,,,,,,,160,W,star,1,0,f,0,2,0,2,0,1,0.5951,,,,,,,,,,,,,,,,,,,,,,,,,,,,,,,,,,,,,,,,,
294580,2022-09-21_13h48.35.296,vts_reward_expectancy,2022.2.4,MacIntel,60.0024001,Chrome,1280,800,,,,,,,,,,,,,,,,,,,,,,,167,Y,triangle,1,0,f,0,3,0,3,0,1,0.5315,,,,,,,,,,,,,,,,,,,,,,,,,,,,,,,,,,,,,,,,,
294580,2022-09-21_13h48.35.296,vts_reward_expectancy,2022.2.4,MacIntel,60.0024001,Chrome,1280,800,,,,,,,,,,,,,,,,,,,,,,,139,F,hexagon,1,0,d,0,4,0,4,0,1,0.5998,,,,,,,,,,,,,,,,,,,,,,,,,,,,,,,,,,,,,,,,,
294580,2022-09-21_13h48.35.296,vts_reward_expectancy,2022.2.4,MacIntel,60.0024001,Chrome,1280,800,,,,,,,,,,,,,,,,,,,,,,,125,B,circle,1,0,d,0,5,0,5,0,1,0.5162,,,,,,,,,,,,,,,,,,,,,,,,,,,,,,,,,,,,,,,,,
294580,2022-09-21_13h48.35.296,vts_reward_expectancy,2022.2.4,MacIntel,60.0024001,Chrome,1280,800,,,,,,,,,,,,,,,,,,,,,,,174,D,star,1,0,f,0,6,0,6,0,1,0.4199,,,,,,,,,,,,,,,,,,,,,,,,,,,,,,,,,,,,,,,,,
294580,2022-09-21_13h48.35.296,vts_reward_expectancy,2022.2.4,MacIntel,60.0024001,Chrome,1280,800,,,,,,,,,,,,,,,,,,,,,,,146,S,triangle,0,0,f,0,7,0,7,0,1,0.3467,,,,,,,,,,,,,,,,,,,,,,,,,,,,,,,,,,,,,,,,,
294580,2022-09-21_13h48.35.296,vts_reward_expectancy,2022.2.4,MacIntel,60.0024001,Chrome,1280,800,,,,,,,,,,,,,,,,,,,,,,,132,U,hexagon,1,1,d,0,8,0,8,0,1,0.4639,,,,,,,,,,,,,,,,,,,,,,,,,,,,,,,,,,,,,,,,,
294580,2022-09-21_13h48.35.296,vts_reward_expectancy,2022.2.4,MacIntel,60.0024001,Chrome,1280,800,,,,,,,,,,,,,,,,,,,,,,,181,H,triangle,1,0,f,0,9,0,9,0,1,0.9941,,,,,,,,,,,,,,,,,,,,,,,,,,,,,,,,,,,,,,,,,
294580,2022-09-21_13h48.35.296,vts_reward_expectancy,2022.2.4,MacIntel,60.0024001,Chrome,1280,800,,,,,,,,,,,,,,,,,,,,,,,160,Y,triangle,1,0,f,1,0,0,0,0,1,0.7976,,,,,,,,,,,,,,,,,,,,,,,,,,,,,,,,,,,,,,,,,
294580,2022-09-21_13h48.35.296,vts_reward_expectancy,2022.2.4,MacIntel,60.0024001,Chrome,1280,800,,,,,,,,,,,,,,,,,,,,,,,146,U,circle,1,0,d,1,1,0,1,0,1,0.562,,,,,,,,,,,,,,,,,,,,,,,,,,,,,,,,,,,,,,,,,
294580,2022-09-21_13h48.35.296,vts_reward_expectancy,2022.2.4,MacIntel,60.0024001,Chrome,1280,800,,,,,,,,,,,,,,,,,,,,,,,139,B,hexagon,1,0,d,1,2,0,2,0,1,0.8128,,,,,,,,,,,,,,,,,,,,,,,,,,,,,,,,,,,,,,,,,
294580,2022-09-21_13h48.35.296,vts_reward_expectancy,2022.2.4,MacIntel,60.0024001,Chrome,1280,800,,,,,,,,,,,,,,,,,,,,,,,167,H,star,1,0,f,1,3,0,3,0,1,0.5212,,,,,,,,,,,,,,,,,,,,,,,,,,,,,,,,,,,,,,,,,
294580,2022-09-21_13h48.35.296,vts_reward_expectancy,2022.2.4,MacIntel,60.0024001,Chrome,1280,800,,,,,,,,,,,,,,,,,,,,,,,132,F,triangle,1,0,d,1,4,0,4,0,1,0.5786,,,,,,,,,,,,,,,,,,,,,,,,,,,,,,,,,,,,,,,,,
294580,2022-09-21_13h48.35.296,vts_reward_expectancy,2022.2.4,MacIntel,60.0024001,Chrome,1280,800,,,,,,,,,,,,,,,,,,,,,,,181,W,circle,1,0,f,1,5,0,5,0,1,0.4722,,,,,,,,,,,,,,,,,,,,,,,,,,,,,,,,,,,,,,,,,
294580,2022-09-21_13h48.35.296,vts_reward_expectancy,2022.2.4,MacIntel,60.0024001,Chrome,1280,800,,,,,,,,,,,,,,,,,,,,,,,174,S,hexagon,1,0,f,1,6,0,6,0,1,0.5675,,,,,,,,,,,,,,,,,,,,,,,,,,,,,,,,,,,,,,,,,
294580,2022-09-21_13h48.35.296,vts_reward_expectancy,2022.2.4,MacIntel,60.0024001,Chrome,1280,800,,,,,,,,,,,,,,,,,,,,,,,125,D,star,1,0,d,1,7,0,7,0,1,0.6636,,,,,,,,,,,,,,,,,,,,,,,,,,,,,,,,,,,,,,,,,
294580,2022-09-21_13h48.35.296,vts_reward_expectancy,2022.2.4,MacIntel,60.0024001,Chrome,1280,800,,,,,,,,,,,,,,,,,,,,,,,160,Y,hexagon,1,0,f,1,8,0,8,0,1,0.8503,,,,,,,,,,,,,,,,,,,,,,,,,,,,,,,,,,,,,,,,,
294580,2022-09-21_13h48.35.296,vts_reward_expectancy,2022.2.4,MacIntel,60.0024001,Chrome,1280,800,,,,,,,,,,,,,,,,,,,,,,,146,U,triangle,1,0,d,1,9,0,9,0,1,0.6142,,,,,,,,,,,,,,,,,,,,,,,,,,,,,,,,,,,,,,,,,
294580,2022-09-21_13h48.35.296,vts_reward_expectancy,2022.2.4,MacIntel,60.0024001,Chrome,1280,800,,,,,,,,,,,,,,,,,,,,,,,139,B,hexagon,1,0,,2,,,,,,,j,1.1985,0,0,0,0,1,,,,,,,,,,,,,,,,,,,,,,,,,,,,,,,,,,
294580,2022-09-21_13h48.35.296,vts_reward_expectancy,2022.2.4,MacIntel,60.0024001,Chrome,1280,800,,,,,,,,,,,,,,,,,,,,,,,181,Y,star,1,0,,2,,,,,,,k,0.5662,1,0,1,0,1,,,,,,,,,,,,,,,,,,,,,,,,,,,,,,,,,,
294580,2022-09-21_13h48.35.296,vts_reward_expectancy,2022.2.4,MacIntel,60.0024001,Chrome,1280,800,,,,,,,,,,,,,,,,,,,,,,,146,F,circle,1,0,,2,,,,,,,j,0.5205,2,0,2,0,1,,,,,,,,,,,,,,,,,,,,,,,,,,,,,,,,,,
294580,2022-09-21_13h48.35.296,vts_reward_expectancy,2022.2.4,MacIntel,60.0024001,Chrome,1280,800,,,,,,,,,,,,,,,,,,,,,,,174,H,triangle,1,0,,2,,,,,,,j,0.5329,3,0,3,0,1,,,,,,,,,,,,,,,,,,,,,,,,,,,,,,,,,,
294580,2022-09-21_13h48.35.296,vts_reward_expectancy,2022.2.4,MacIntel,60.0024001,Chrome,1280,800,,,,,,,,,,,,,,,,,,,,,,,125,W,hexagon,1,0,,2,,,,,,,k,0.5292,4,0,4,0,1,,,,,,,,,,,,,,,,,,,,,,,,,,,,,,,,,,
294580,2022-09-21_13h48.35.296,vts_reward_expectancy,2022.2.4,MacIntel,60.0024001,Chrome,1280,800,,,,,,,,,,,,,,,,,,,,,,,132,D,star,1,0,,2,,,,,,,j,0.499,5,0,5,0,1,,,,,,,,,,,,,,,,,,,,,,,,,,,,,,,,,,
294580,2022-09-21_13h48.35.296,vts_reward_expectancy,2022.2.4,MacIntel,60.0024001,Chrome,1280,800,,,,,,,,,,,,,,,,,,,,,,,167,S,circle,1,0,,2,,,,,,,k,0.6304,6,0,6,0,1,,,,,,,,,,,,,,,,,,,,,,,,,,,,,,,,,,
294580,2022-09-21_13h48.35.296,vts_reward_expectancy,2022.2.4,MacIntel,60.0024001,Chrome,1280,800,,,,,,,,,,,,,,,,,,,,,,,160,U,triangle,1,0,,2,,,,,,,k,0.6639,7,0,7,0,1,,,,,,,,,,,,,,,,,,,,,,,,,,,,,,,,,,
294580,2022-09-21_13h48.35.296,vts_reward_expectancy,2022.2.4,MacIntel,60.0024001,Chrome,1280,800,,,,,,,,,,,,,,,,,,,,,,,139,B,hexagon,1,0,,2,,,,,,,j,0.5202,8,0,8,0,1,,,,,,,,,,,,,,,,,,,,,,,,,,,,,,,,,,
294580,2022-09-21_13h48.35.296,vts_reward_expectancy,2022.2.4,MacIntel,60.0024001,Chrome,1280,800,,,,,,,,,,,,,,,,,,,,,,,181,Y,star,1,0,,2,,,,,,,k,0.6226,9,0,9,0,1,,,,,,,,,,,,,,,,,,,,,,,,,,,,,,,,,,
294580,2022-09-21_13h48.35.296,vts_reward_expectancy,2022.2.4,MacIntel,60.0024001,Chrome,1280,800,,,,,0,576,,,,,,,,,,,,,,,,,181,Y,triangle,0,0,,3,,,,,,,,,,,,,,-1,number,NA,d,1.5286,vtsPrac,0,0,0,0,1,,,,,,,,,,,,,,,,,,,,,,,
294580,2022-09-21_13h48.35.296,vts_reward_expectancy,2022.2.4,MacIntel,60.0024001,Chrome,1280,800,,,,,0,576,,,,,,,,,,,,,,,,,160,S,circle,1,1,,3,,,,,,,,,,,,,,repeat,number,numRpt,f,0.6384,vtsPrac,1,0,1,0,1,,,,,,,,,,,,,,,,,,,,,,,
294580,2022-09-21_13h48.35.296,vts_reward_expectancy,2022.2.4,MacIntel,60.0024001,Chrome,1280,800,,,,,0,576,,,,,,,,,,,,,,,,,125,F,triangle,1,0,,3,,,,,,,,,,,,,,repeat,number,numRpt,d,0.6468,vtsPrac,2,0,2,0,1,,,,,,,,,,,,,,,,,,,,,,,
294580,2022-09-21_13h48.35.296,vts_reward_expectancy,2022.2.4,MacIntel,60.0024001,Chrome,1280,800,,,,,0,576,,,,,,,,,,,,,,,,,167,U,circle,1,0,,3,,,,,,,,,,,,,,switch,letter,lettSwt,k,0.7435,vtsPrac,3,0,3,0,1,,,,,,,,,,,,,,,,,,,,,,,
294580,2022-09-21_13h48.35.296,vts_reward_expectancy,2022.2.4,MacIntel,60.0024001,Chrome,1280,800,,,,,0,576,,,,,,,,,,,,,,,,,181,Y,hexagon,1,0,,3,,,,,,,,,,,,,,repeat,letter,lettRpt,k,0.7525,vtsPrac,4,0,4,0,1,,,,,,,,,,,,,,,,,,,,,,,
294580,2022-09-21_13h48.35.296,vts_reward_expectancy,2022.2.4,MacIntel,60.0024001,Chrome,1280,800,,,,,0,576,,,,,,,,,,,,,,,,,160,S,star,0,0,,3,,,,,,,,,,,,,,switch,number,NA,d,0.5653,vtsPrac,5,0,5,0,1,,,,,,,,,,,,,,,,,,,,,,,
294580,2022-09-21_13h48.35.296,vts_reward_expectancy,2022.2.4,MacIntel,60.0024001,Chrome,1280,800,,,,,0,576,,,,,,,,,,,,,,,,,125,F,triangle,1,1,,3,,,,,,,,,,,,,,repeat,number,numRpt,d,0.5482,vtsPrac,6,0,6,0,1,,,,,,,,,,,,,,,,,,,,,,,
294580,2022-09-21_13h48.35.296,vts_reward_expectancy,2022.2.4,MacIntel,60.0024001,Chrome,1280,800,,,,,0,576,,,,,,,,,,,,,,,,,167,U,circle,1,0,,3,,,,,,,,,,,,,,repeat,number,numRpt,f,0.6345,vtsPrac,7,0,7,0,1,,,,,,,,,,,,,,,,,,,,,,,
294580,2022-09-21_13h48.35.296,vts_reward_expectancy,2022.2.4,MacIntel,60.0024001,Chrome,1280,800,,,,,0,576,,,,,,,,,,,,,,,,,181,U,hexagon,1,0,,3,,,,,,,,,,,,,,switch,letter,lettSwt,k,0.9861,vtsPrac,8,0,8,0,1,,,,,,,,,,,,,,,,,,,,,,,
294580,2022-09-21_13h48.35.296,vts_reward_expectancy,2022.2.4,MacIntel,60.0024001,Chrome,1280,800,,,,,0,576,,,,,,,,,,,,,,,,,174,H,triangle,1,0,,3,,,,,,,,,,,,,,repeat,letter,lettRpt,j,0.6949,vtsPrac,9,0,9,0,1,,,,,,,,,,,,,,,,,,,,,,,
294580,2022-09-21_13h48.35.296,vts_reward_expectancy,2022.2.4,MacIntel,60.0024001,Chrome,1280,800,,,,,0,576,,,,,,,,,,,,,,,,,139,Y,hexagon,1,0,,3,,,,,,,,,,,,,,switch,number,numSwt,d,0.6109,vtsPrac,10,0,10,0,1,,,,,,,,,,,,,,,,,,,,,,,
294580,2022-09-21_13h48.35.296,vts_reward_expectancy,2022.2.4,MacIntel,60.0024001,Chrome,1280,800,,,,,0,576,,,,,,,,,,,,,,,,,167,B,triangle,1,0,,3,,,,,,,,,,,,,,repeat,number,numRpt,f,0.5306,vtsPrac,11,0,11,0,1,,,,,,,,,,,,,,,,,,,,,,,
294580,2022-09-21_13h48.35.296,vts_reward_expectancy,2022.2.4,MacIntel,60.0024001,Chrome,1280,800,,,,,0,576,,,,,,,,,,,,,,,,,167,B,hexagon,1,0,,3,,,,,,,,,,,,,,switch,letter,lettSwt,j,0.941,vtsPrac,12,0,12,0,1,,,,,,,,,,,,,,,,,,,,,,,
294580,2022-09-21_13h48.35.296,vts_reward_expectancy,2022.2.4,MacIntel,60.0024001,Chrome,1280,800,,,,,0,576,,,,,,,,,,,,,,,,,132,D,star,1,0,,3,,,,,,,,,,,,,,repeat,letter,lettRpt,j,0.8166,vtsPrac,13,0,13,0,1,,,,,,,,,,,,,,,,,,,,,,,
294580,2022-09-21_13h48.35.296,vts_reward_expectancy,2022.2.4,MacIntel,60.0024001,Chrome,1280,800,,,,,0,576,,,,,,,,,,,,,,,,,125,H,star,1,0,,3,,,,,,,,,,,,,,repeat,letter,lettRpt,j,0.9658,vtsPrac,14,0,14,0,1,,,,,,,,,,,,,,,,,,,,,,,
294580,2022-09-21_13h48.35.296,vts_reward_expectancy,2022.2.4,MacIntel,60.0024001,Chrome,1280,800,,,,,0,576,,,,,,,,,,,,,,,,,139,S,circle,1,0,,3,,,,,,,,,,,,,,repeat,letter,lettRpt,k,0.629,vtsPrac,15,0,15,0,1,,,,,,,,,,,,,,,,,,,,,,,
294580,2022-09-21_13h48.35.296,vts_reward_expectancy,2022.2.4,MacIntel,60.0024001,Chrome,1280,800,,,,,,,,,,,,,,,,,,,,,,,,,,,,,,,,,,,,,,,,,,,,,,,,,,,,,,,,,,,,,,,,,,,,,,,,,,,,
294580,2022-09-21_13h48.35.296,vts_reward_expectancy,2022.2.4,MacIntel,60.0024001,Chrome,1280,800,,,,,,,,,,,,,,,,,,,,,,,,,,,,,,,,,,,,,,,,,,,,,,,,,,,,,,,,,,,,,,,,,,,,,,,,,,,,
294580,2022-09-21_13h48.35.296,vts_reward_expectancy,2022.2.4,MacIntel,60.0024001,Chrome,1280,800,,,,,0,576,,,,,,,,,,,,,,,,,167,W,triangle,0,0,,,,,,,,,,,,,,,,switch,number,NA,d,0.8842,noRew,,,,,,0,0,0,0,0,1,,,,,,,,,,,,,,,,,
294580,2022-09-21_13h48.35.296,vts_reward_expectancy,2022.2.4,MacIntel,60.0024001,Chrome,1280,800,,,,,0,576,,,,,,,,,,,,,,,,,132,B,hexagon,1,1,,,,,,,,,,,,,,,,repeat,number,numRpt,d,0.5622,noRew,,,,,,0,1,0,1,0,1,,,,,,,,,,,,,,,,,
294580,2022-09-21_13h48.35.296,vts_reward_expectancy,2022.2.4,MacIntel,60.0024001,Chrome,1280,800,,,,,0,576,,,,,,,,,,,,,,,,,146,F,triangle,1,0,,,,,,,,,,,,,,,,repeat,number,numRpt,d,0.5385,noRew,,,,,,0,2,0,2,0,1,,,,,,,,,,,,,,,,,
294580,2022-09-21_13h48.35.296,vts_reward_expectancy,2022.2.4,MacIntel,60.0024001,Chrome,1280,800,,,,,0,576,,,,,,,,,,,,,,,,,160,S,hexagon,1,0,,,,,,,,,,,,,,,,repeat,number,numRpt,f,0.4389,noRew,,,,,,0,3,0,3,0,1,,,,,,,,,,,,,,,,,
294580,2022-09-21_13h48.35.296,vts_reward_expectancy,2022.2.4,MacIntel,60.0024001,Chrome,1280,800,,,,,0,576,,,,,,,,,,,,,,,,,167,W,hexagon,1,0,,,,,,,,,,,,,,,,repeat,number,numRpt,f,0.5463,noRew,,,,,,0,4,0,4,0,1,,,,,,,,,,,,,,,,,
294580,2022-09-21_13h48.35.296,vts_reward_expectancy,2022.2.4,MacIntel,60.0024001,Chrome,1280,800,,,,,0,576,,,,,,,,,,,,,,,,,132,B,triangle,1,0,,,,,,,,,,,,,,,,repeat,number,numRpt,d,0.503,noRew,,,,,,0,5,0,5,0,1,,,,,,,,,,,,,,,,,
294580,2022-09-21_13h48.35.296,vts_reward_expectancy,2022.2.4,MacIntel,60.0024001,Chrome,1280,800,,,,,0,576,,,,,,,,,,,,,,,,,146,F,star,1,0,,,,,,,,,,,,,,,,repeat,number,numRpt,d,0.7133,noRew,,,,,,0,6,0,6,0,1,,,,,,,,,,,,,,,,,
294580,2022-09-21_13h48.35.296,vts_reward_expectancy,2022.2.4,MacIntel,60.0024001,Chrome,1280,800,,,,,0,576,,,,,,,,,,,,,,,,,160,S,hexagon,1,0,,,,,,,,,,,,,,,,repeat,number,numRpt,f,0.4641,noRew,,,,,,0,7,0,7,0,1,,,,,,,,,,,,,,,,,
294580,2022-09-21_13h48.35.296,vts_reward_expectancy,2022.2.4,MacIntel,60.0024001,Chrome,1280,800,,,,,0,576,,,,,,,,,,,,,,,,,160,D,hexagon,1,0,,,,,,,,,,,,,,,,switch,letter,lettSwt,j,1.1662,noRew,,,,,,0,8,0,8,0,1,,,,,,,,,,,,,,,,,
294580,2022-09-21_13h48.35.296,vts_reward_expectancy,2022.2.4,MacIntel,60.0024001,Chrome,1280,800,,,,,0,576,,,,,,,,,,,,,,,,,181,W,star,1,0,,,,,,,,,,,,,,,,repeat,letter,lettRpt,k,0.5558,noRew,,,,,,0,9,0,9,0,1,,,,,,,,,,,,,,,,,
294580,2022-09-21_13h48.35.296,vts_reward_expectancy,2022.2.4,MacIntel,60.0024001,Chrome,1280,800,,,,,0,576,,,,,,,,,,,,,,,,,125,H,circle,1,0,,,,,,,,,,,,,,,,repeat,letter,lettRpt,j,0.6471,noRew,,,,,,0,10,0,10,0,1,,,,,,,,,,,,,,,,,
294580,2022-09-21_13h48.35.296,vts_reward_expectancy,2022.2.4,MacIntel,60.0024001,Chrome,1280,800,,,,,0,576,,,,,,,,,,,,,,,,,167,S,hexagon,1,0,,,,,,,,,,,,,,,,repeat,letter,lettRpt,k,0.6875,noRew,,,,,,0,11,0,11,0,1,,,,,,,,,,,,,,,,,
294580,2022-09-21_13h48.35.296,vts_reward_expectancy,2022.2.4,MacIntel,60.0024001,Chrome,1280,800,,,,,0,576,,,,,,,,,,,,,,,,,139,W,star,1,0,,,,,,,,,,,,,,,,repeat,letter,lettRpt,k,0.6003,noRew,,,,,,0,12,0,12,0,1,,,,,,,,,,,,,,,,,
294580,2022-09-21_13h48.35.296,vts_reward_expectancy,2022.2.4,MacIntel,60.0024001,Chrome,1280,800,,,,,0,576,,,,,,,,,,,,,,,,,125,H,circle,1,0,,,,,,,,,,,,,,,,repeat,letter,lettRpt,j,0.5408,noRew,,,,,,0,13,0,13,0,1,,,,,,,,,,,,,,,,,
294580,2022-09-21_13h48.35.296,vts_reward_expectancy,2022.2.4,MacIntel,60.0024001,Chrome,1280,800,,,,,0,576,,,,,,,,,,,,,,,,,132,B,circle,1,0,,,,,,,,,,,,,,,,switch,number,numSwt,d,1.2283,noRew,,,,,,0,14,0,14,0,1,,,,,,,,,,,,,,,,,
294580,2022-09-21_13h48.35.296,vts_reward_expectancy,2022.2.4,MacIntel,60.0024001,Chrome,1280,800,,,,,0,576,,,,,,,,,,,,,,,,,160,F,hexagon,1,0,,,,,,,,,,,,,,,,repeat,number,numRpt,f,0.5997,noRew,,,,,,0,15,0,15,0,1,,,,,,,,,,,,,,,,,
294580,2022-09-21_13h48.35.296,vts_reward_expectancy,2022.2.4,MacIntel,60.0024001,Chrome,1280,800,,,,,0,576,,,,,,,,,,,,,,,,,181,F,triangle,1,0,,,,,,,,,,,,,,,,repeat,number,numRpt,f,0.6188,noRew,,,,,,0,16,0,16,0,1,,,,,,,,,,,,,,,,,
294580,2022-09-21_13h48.35.296,vts_reward_expectancy,2022.2.4,MacIntel,60.0024001,Chrome,1280,800,,,,,0,576,,,,,,,,,,,,,,,,,146,W,circle,1,0,,,,,,,,,,,,,,,,repeat,number,numRpt,d,0.5886,noRew,,,,,,0,17,0,17,0,1,,,,,,,,,,,,,,,,,
294580,2022-09-21_13h48.35.296,vts_reward_expectancy,2022.2.4,MacIntel,60.0024001,Chrome,1280,800,,,,,0,576,,,,,,,,,,,,,,,,,139,S,hexagon,1,0,,,,,,,,,,,,,,,,repeat,number,numRpt,d,0.7801,noRew,,,,,,0,18,0,18,0,1,,,,,,,,,,,,,,,,,
294580,2022-09-21_13h48.35.296,vts_reward_expectancy,2022.2.4,MacIntel,60.0024001,Chrome,1280,800,,,,,0,576,,,,,,,,,,,,,,,,,132,D,circle,1,0,,,,,,,,,,,,,,,,repeat,number,numRpt,d,0.7467,noRew,,,,,,0,19,0,19,0,1,,,,,,,,,,,,,,,,,
294580,2022-09-21_13h48.35.296,vts_reward_expectancy,2022.2.4,MacIntel,60.0024001,Chrome,1280,800,,,,,0,576,,,,,,,,,,,,,,,,,139,F,hexagon,0,0,,,,,,,,,,,,,,,,repeat,number,NA,f,0.7962,noRew,,,,,,0,20,0,20,0,1,,,,,,,,,,,,,,,,,
294580,2022-09-21_13h48.35.296,vts_reward_expectancy,2022.2.4,MacIntel,60.0024001,Chrome,1280,800,,,,,0,576,,,,,,,,,,,,,,,,,181,B,star,1,1,,,,,,,,,,,,,,,,repeat,number,numRpt,f,0.5386,noRew,,,,,,0,21,0,21,0,1,,,,,,,,,,,,,,,,,
294580,2022-09-21_13h48.35.296,vts_reward_expectancy,2022.2.4,MacIntel,60.0024001,Chrome,1280,800,,,,,0,576,,,,,,,,,,,,,,,,,167,W,triangle,0,0,,,,,,,,,,,,,,,,repeat,number,NA,d,0.7484,noRew,,,,,,0,22,0,22,0,1,,,,,,,,,,,,,,,,,
294580,2022-09-21_13h48.35.296,vts_reward_expectancy,2022.2.4,MacIntel,60.0024001,Chrome,1280,800,,,,,0,576,,,,,,,,,,,,,,,,,160,H,star,1,1,,,,,,,,,,,,,,,,repeat,number,numRpt,f,1.0115,noRew,,,,,,0,23,0,23,0,1,,,,,,,,,,,,,,,,,
294580,2022-09-21_13h48.35.296,vts_reward_expectancy,2022.2.4,MacIntel,60.0024001,Chrome,1280,800,,,,,0,576,,,,,,,,,,,,,,,,,146,W,hexagon,1,0,,,,,,,,,,,,,,,,repeat,number,numRpt,d,0.6813,noRew,,,,,,0,24,0,24,0,1,,,,,,,,,,,,,,,,,
294580,2022-09-21_13h48.35.296,vts_reward_expectancy,2022.2.4,MacIntel,60.0024001,Chrome,1280,800,,,,,0,576,,,,,,,,,,,,,,,,,167,H,triangle,1,0,,,,,,,,,,,,,,,,repeat,number,numRpt,f,0.6964,noRew,,,,,,0,25,0,25,0,1,,,,,,,,,,,,,,,,,
294580,2022-09-21_13h48.35.296,vts_reward_expectancy,2022.2.4,MacIntel,60.0024001,Chrome,1280,800,,,,,0,576,,,,,,,,,,,,,,,,,125,B,circle,1,0,,,,,,,,,,,,,,,,repeat,number,numRpt,d,0.6324,noRew,,,,,,0,26,0,26,0,1,,,,,,,,,,,,,,,,,
294580,2022-09-21_13h48.35.296,vts_reward_expectancy,2022.2.4,MacIntel,60.0024001,Chrome,1280,800,,,,,0,576,,,,,,,,,,,,,,,,,181,D,hexagon,1,0,,,,,,,,,,,,,,,,repeat,number,numRpt,f,0.6457,noRew,,,,,,0,27,0,27,0,1,,,,,,,,,,,,,,,,,
294580,2022-09-21_13h48.35.296,vts_reward_expectancy,2022.2.4,MacIntel,60.0024001,Chrome,1280,800,,,,,0,576,,,,,,,,,,,,,,,,,139,Y,star,1,0,,,,,,,,,,,,,,,,switch,letter,lettSwt,k,0.5208,noRew,,,,,,0,28,0,28,0,1,,,,,,,,,,,,,,,,,
294580,2022-09-21_13h48.35.296,vts_reward_expectancy,2022.2.4,MacIntel,60.0024001,Chrome,1280,800,,,,,0,576,,,,,,,,,,,,,,,,,167,F,circle,1,0,,,,,,,,,,,,,,,,repeat,letter,lettRpt,j,0.5709,noRew,,,,,,0,29,0,29,0,1,,,,,,,,,,,,,,,,,
294580,2022-09-21_13h48.35.296,vts_reward_expectancy,2022.2.4,MacIntel,60.0024001,Chrome,1280,800,,,,,0,576,,,,,,,,,,,,,,,,,132,D,star,1,0,,,,,,,,,,,,,,,,repeat,letter,lettRpt,j,0.8635,noRew,,,,,,0,30,0,30,0,1,,,,,,,,,,,,,,,,,
294580,2022-09-21_13h48.35.296,vts_reward_expectancy,2022.2.4,MacIntel,60.0024001,Chrome,1280,800,,,,,0,576,,,,,,,,,,,,,,,,,146,S,triangle,1,0,,,,,,,,,,,,,,,,repeat,letter,lettRpt,k,0.5284,noRew,,,,,,0,31,0,31,0,1,,,,,,,,,,,,,,,,,
294580,2022-09-21_13h48.35.296,vts_reward_expectancy,2022.2.4,MacIntel,60.0024001,Chrome,1280,800,,,,,0,576,,,,,,,,,,,,,,,,,132,Y,hexagon,1,0,,,,,,,,,,,,,,,,repeat,letter,lettRpt,k,0.5855,noRew,,,,,,0,32,0,32,0,1,,,,,,,,,,,,,,,,,
294580,2022-09-21_13h48.35.296,vts_reward_expectancy,2022.2.4,MacIntel,60.0024001,Chrome,1280,800,,,,,0,576,,,,,,,,,,,,,,,,,181,H,triangle,1,0,,,,,,,,,,,,,,,,repeat,letter,lettRpt,j,0.5612,noRew,,,,,,0,33,0,33,0,1,,,,,,,,,,,,,,,,,
294580,2022-09-21_13h48.35.296,vts_reward_expectancy,2022.2.4,MacIntel,60.0024001,Chrome,1280,800,,,,,0,576,,,,,,,,,,,,,,,,,139,S,star,1,0,,,,,,,,,,,,,,,,switch,number,numSwt,d,0.564,noRew,,,,,,0,34,0,34,0,1,,,,,,,,,,,,,,,,,
294580,2022-09-21_13h48.35.296,vts_reward_expectancy,2022.2.4,MacIntel,60.0024001,Chrome,1280,800,,,,,0,576,,,,,,,,,,,,,,,,,167,F,circle,1,0,,,,,,,,,,,,,,,,repeat,number,numRpt,f,0.5445,noRew,,,,,,0,35,0,35,0,1,,,,,,,,,,,,,,,,,
294580,2022-09-21_13h48.35.296,vts_reward_expectancy,2022.2.4,MacIntel,60.0024001,Chrome,1280,800,,,,,0,576,,,,,,,,,,,,,,,,,181,D,hexagon,1,0,,,,,,,,,,,,,,,,repeat,number,numRpt,f,0.6672,noRew,,,,,,0,36,0,36,0,1,,,,,,,,,,,,,,,,,
294580,2022-09-21_13h48.35.296,vts_reward_expectancy,2022.2.4,MacIntel,60.0024001,Chrome,1280,800,,,,,0,576,,,,,,,,,,,,,,,,,174,F,circle,1,0,,,,,,,,,,,,,,,,repeat,number,numRpt,f,0.7963,noRew,,,,,,0,37,0,37,0,1,,,,,,,,,,,,,,,,,
294580,2022-09-21_13h48.35.296,vts_reward_expectancy,2022.2.4,MacIntel,60.0024001,Chrome,1280,800,,,,,0,576,,,,,,,,,,,,,,,,,167,H,triangle,1,0,,,,,,,,,,,,,,,,repeat,number,numRpt,f,0.5184,noRew,,,,,,0,38,0,38,0,1,,,,,,,,,,,,,,,,,
294580,2022-09-21_13h48.35.296,vts_reward_expectancy,2022.2.4,MacIntel,60.0024001,Chrome,1280,800,,,,,0,576,,,,,,,,,,,,,,,,,146,Y,hexagon,1,0,,,,,,,,,,,,,,,,repeat,number,numRpt,d,0.6527,noRew,,,,,,0,39,0,39,0,1,,,,,,,,,,,,,,,,,
294580,2022-09-21_13h48.35.296,vts_reward_expectancy,2022.2.4,MacIntel,60.0024001,Chrome,1280,800,,,,,0,576,,,,,,,,,,,,,,,,,167,S,triangle,1,0,,,,,,,,,,,,,,,,repeat,number,numRpt,f,0.6518,noRew,,,,,,0,40,0,40,0,1,,,,,,,,,,,,,,,,,
294580,2022-09-21_13h48.35.296,vts_reward_expectancy,2022.2.4,MacIntel,60.0024001,Chrome,1280,800,,,,,0,576,,,,,,,,,,,,,,,,,174,D,hexagon,1,0,,,,,,,,,,,,,,,,repeat,number,numRpt,f,0.9288,noRew,,,,,,0,41,0,41,0,1,,,,,,,,,,,,,,,,,
294580,2022-09-21_13h48.35.296,vts_reward_expectancy,2022.2.4,MacIntel,60.0024001,Chrome,1280,800,,,,,0,576,,,,,,,,,,,,,,,,,181,U,circle,1,0,,,,,,,,,,,,,,,,repeat,number,numRpt,f,0.5788,noRew,,,,,,0,42,0,42,0,1,,,,,,,,,,,,,,,,,
294580,2022-09-21_13h48.35.296,vts_reward_expectancy,2022.2.4,MacIntel,60.0024001,Chrome,1280,800,,,,,0,576,,,,,,,,,,,,,,,,,125,H,triangle,1,0,,,,,,,,,,,,,,,,repeat,number,numRpt,d,0.886,noRew,,,,,,0,43,0,43,0,1,,,,,,,,,,,,,,,,,
294580,2022-09-21_13h48.35.296,vts_reward_expectancy,2022.2.4,MacIntel,60.0024001,Chrome,1280,800,,,,,0,576,,,,,,,,,,,,,,,,,146,F,circle,1,0,,,,,,,,,,,,,,,,repeat,number,numRpt,d,0.7853,noRew,,,,,,0,44,0,44,0,1,,,,,,,,,,,,,,,,,
294580,2022-09-21_13h48.35.296,vts_reward_expectancy,2022.2.4,MacIntel,60.0024001,Chrome,1280,800,,,,,0,576,,,,,,,,,,,,,,,,,174,D,star,1,0,,,,,,,,,,,,,,,,repeat,number,numRpt,f,0.8505,noRew,,,,,,0,45,0,45,0,1,,,,,,,,,,,,,,,,,
294580,2022-09-21_13h48.35.296,vts_reward_expectancy,2022.2.4,MacIntel,60.0024001,Chrome,1280,800,,,,,0,576,,,,,,,,,,,,,,,,,160,Y,triangle,1,0,,,,,,,,,,,,,,,,switch,letter,lettSwt,k,0.8158,noRew,,,,,,0,46,0,46,0,1,,,,,,,,,,,,,,,,,
294580,2022-09-21_13h48.35.296,vts_reward_expectancy,2022.2.4,MacIntel,60.0024001,Chrome,1280,800,,,,,0,576,,,,,,,,,,,,,,,,,167,W,circle,1,0,,,,,,,,,,,,,,,,repeat,letter,lettRpt,k,0.7139,noRew,,,,,,0,47,0,47,0,1,,,,,,,,,,,,,,,,,
294580,2022-09-21_13h48.35.296,vts_reward_expectancy,2022.2.4,MacIntel,60.0024001,Chrome,1280,800,,,,,0,576,,,,,,,,,,,,,,,,,181,F,triangle,1,0,,,,,,,,,,,,,,,,repeat,letter,lettRpt,j,0.6798,noRew,,,,,,0,48,0,48,0,1,,,,,,,,,,,,,,,,,
294580,2022-09-21_13h48.35.296,vts_reward_expectancy,2022.2.4,MacIntel,60.0024001,Chrome,1280,800,,,,,0,576,,,,,,,,,,,,,,,,,139,S,circle,1,0,,,,,,,,,,,,,,,,repeat,letter,lettRpt,k,1.0302,noRew,,,,,,0,49,0,49,0,1,,,,,,,,,,,,,,,,,
294580,2022-09-21_13h48.35.296,vts_reward_expectancy,2022.2.4,MacIntel,60.0024001,Chrome,1280,800,,,,,0,576,,,,,,,,,,,,,,,,,174,B,triangle,1,0,,,,,,,,,,,,,,,,repeat,letter,lettRpt,j,1.129,noRew,,,,,,0,50,0,50,0,1,,,,,,,,,,,,,,,,,
294580,2022-09-21_13h48.35.296,vts_reward_expectancy,2022.2.4,MacIntel,60.0024001,Chrome,1280,800,,,,,0,576,,,,,,,,,,,,,,,,,125,D,star,1,0,,,,,,,,,,,,,,,,repeat,letter,lettRpt,j,0.5971,noRew,,,,,,0,51,0,51,0,1,,,,,,,,,,,,,,,,,
294580,2022-09-21_13h48.35.296,vts_reward_expectancy,2022.2.4,MacIntel,60.0024001,Chrome,1280,800,,,,,0,576,,,,,,,,,,,,,,,,,167,D,star,1,0,,,,,,,,,,,,,,,,repeat,letter,lettRpt,j,0.6332,noRew,,,,,,0,52,0,52,0,1,,,,,,,,,,,,,,,,,
294580,2022-09-21_13h48.35.296,vts_reward_expectancy,2022.2.4,MacIntel,60.0024001,Chrome,1280,800,,,,,0,576,,,,,,,,,,,,,,,,,139,B,triangle,1,0,,,,,,,,,,,,,,,,repeat,letter,lettRpt,j,0.6702,noRew,,,,,,0,53,0,53,0,1,,,,,,,,,,,,,,,,,
294580,2022-09-21_13h48.35.296,vts_reward_expectancy,2022.2.4,MacIntel,60.0024001,Chrome,1280,800,,,,,0,576,,,,,,,,,,,,,,,,,146,W,circle,1,0,,,,,,,,,,,,,,,,repeat,letter,lettRpt,k,0.5624,noRew,,,,,,0,54,0,54,0,1,,,,,,,,,,,,,,,,,
294580,2022-09-21_13h48.35.296,vts_reward_expectancy,2022.2.4,MacIntel,60.0024001,Chrome,1280,800,,,,,0,576,,,,,,,,,,,,,,,,,181,F,triangle,1,0,,,,,,,,,,,,,,,,repeat,letter,lettRpt,j,0.6794,noRew,,,,,,0,55,0,55,0,1,,,,,,,,,,,,,,,,,
294580,2022-09-21_13h48.35.296,vts_reward_expectancy,2022.2.4,MacIntel,60.0024001,Chrome,1280,800,,,,,0,576,,,,,,,,,,,,,,,,,174,S,triangle,1,0,,,,,,,,,,,,,,,,repeat,letter,lettRpt,k,1.2636,noRew,,,,,,0,56,0,56,0,1,,,,,,,,,,,,,,,,,
294580,2022-09-21_13h48.35.296,vts_reward_expectancy,2022.2.4,MacIntel,60.0024001,Chrome,1280,800,,,,,0,576,,,,,,,,,,,,,,,,,139,Y,hexagon,1,0,,,,,,,,,,,,,,,,repeat,letter,lettRpt,k,0.6126,noRew,,,,,,0,57,0,57,0,1,,,,,,,,,,,,,,,,,
294580,2022-09-21_13h48.35.296,vts_reward_expectancy,2022.2.4,MacIntel,60.0024001,Chrome,1280,800,,,,,0,576,,,,,,,,,,,,,,,,,125,D,circle,1,0,,,,,,,,,,,,,,,,repeat,letter,lettRpt,j,0.6251,noRew,,,,,,0,58,0,58,0,1,,,,,,,,,,,,,,,,,
294580,2022-09-21_13h48.35.296,vts_reward_expectancy,2022.2.4,MacIntel,60.0024001,Chrome,1280,800,,,,,0,576,,,,,,,,,,,,,,,,,181,B,star,1,0,,,,,,,,,,,,,,,,switch,number,numSwt,f,0.4781,noRew,,,,,,0,59,0,59,0,1,,,,,,,,,,,,,,,,,
294580,2022-09-21_13h48.35.296,vts_reward_expectancy,2022.2.4,MacIntel,60.0024001,Chrome,1280,800,,,,,0,576,,,,,,,,,,,,,,,,,139,F,star,1,0,,,,,,,,,,,,,,,,repeat,number,numRpt,d,1.0791,noRew,,,,,,0,60,0,60,0,1,,,,,,,,,,,,,,,,,
294580,2022-09-21_13h48.35.296,vts_reward_expectancy,2022.2.4,MacIntel,60.0024001,Chrome,1280,800,,,,,0,576,,,,,,,,,,,,,,,,,181,U,hexagon,1,0,,,,,,,,,,,,,,,,repeat,number,numRpt,f,0.6159,noRew,,,,,,0,61,0,61,0,1,,,,,,,,,,,,,,,,,
294580,2022-09-21_13h48.35.296,vts_reward_expectancy,2022.2.4,MacIntel,60.0024001,Chrome,1280,800,,,,,0,576,,,,,,,,,,,,,,,,,174,Y,star,1,0,,,,,,,,,,,,,,,,repeat,number,numRpt,f,0.8144,noRew,,,,,,0,62,0,62,0,1,,,,,,,,,,,,,,,,,
294580,2022-09-21_13h48.35.296,vts_reward_expectancy,2022.2.4,MacIntel,60.0024001,Chrome,1280,800,,,,,0,576,,,,,,,,,,,,,,,,,160,B,hexagon,1,0,,,,,,,,,,,,,,,,repeat,number,numRpt,f,0.8631,noRew,,,,,,0,63,0,63,0,1,,,,,,,,,,,,,,,,,
294580,2022-09-21_13h48.35.296,vts_reward_expectancy,2022.2.4,MacIntel,60.0024001,Chrome,1280,800,,,,,,,,,,,,,,,,,,,,,,,,,,,,,,,,,,,,,,,,,,,,,,,,,,,,,,,,,,,,,,,,,,,,,,,,,,,,
294580,2022-09-21_13h48.35.296,vts_reward_expectancy,2022.2.4,MacIntel,60.0024001,Chrome,1280,800,,,,,0,576,,,,,,,,,,,,,,,,,181,Y,hexagon,0,0,,,,,,,,,,,,,,,,repeat,number,NA,d,1.148,noRew,,,,,,0,,,,,,space,10.0684,high,0,0,0,0,1,,,,,,,,,
294580,2022-09-21_13h48.35.296,vts_reward_expectancy,2022.2.4,MacIntel,60.0024001,Chrome,1280,800,,,,,1,577,,,,,,,,,,,,,,,,,132,F,star,1,1,,,,,,,,,,,,,,,,repeat,number,numRpt,d,0.5656,noRew,,,,,,0,,,,,,,,high,1,0,1,0,1,,,,,,,,,
294580,2022-09-21_13h48.35.296,vts_reward_expectancy,2022.2.4,MacIntel,60.0024001,Chrome,1280,800,,,,,0,577,,,,,,,,,,,,,,,,,125,D,hexagon,1,0,,,,,,,,,,,,,,,,repeat,number,numRpt,d,0.6829,noRew,,,,,,0,,,,,,,,high,2,0,2,0,1,,,,,,,,,
294580,2022-09-21_13h48.35.296,vts_reward_expectancy,2022.2.4,MacIntel,60.0024001,Chrome,1280,800,,,,,1,578,,,,,,,,,,,,,,,,,174,H,star,1,0,,,,,,,,,,,,,,,,repeat,number,numRpt,f,0.4986,noRew,,,,,,0,,,,,,,,high,3,0,3,0,1,,,,,,,,,
294580,2022-09-21_13h48.35.296,vts_reward_expectancy,2022.2.4,MacIntel,60.0024001,Chrome,1280,800,,,,,1,579,,,,,,,,,,,,,,,,,146,W,star,1,0,,,,,,,,,,,,,,,,switch,letter,lettSwt,k,0.7943,noRew,,,,,,0,,,,,,,,high,4,0,4,0,1,,,,,,,,,
294580,2022-09-21_13h48.35.296,vts_reward_expectancy,2022.2.4,MacIntel,60.0024001,Chrome,1280,800,,,,,0,579,,,,,,,,,,,,,,,,,160,U,hexagon,0,0,,,,,,,,,,,,,,,,switch,number,NA,d,0.848,noRew,,,,,,0,,,,,,,,high,5,0,5,0,1,,,,,,,,,
294580,2022-09-21_13h48.35.296,vts_reward_expectancy,2022.2.4,MacIntel,60.0024001,Chrome,1280,800,,,,,0,579,,,,,,,,,,,,,,,,,139,B,hexagon,0,1,,,,,,,,,,,,,,,,switch,letter,NA,k,0.3439,noRew,,,,,,0,,,,,,,,high,6,0,6,0,1,,,,,,,,,
294580,2022-09-21_13h48.35.296,vts_reward_expectancy,2022.2.4,MacIntel,60.0024001,Chrome,1280,800,,,,,1,580,,,,,,,,,,,,,,,,,167,S,star,1,1,,,,,,,,,,,,,,,,repeat,letter,lettRpt,k,0.7639,noRew,,,,,,0,,,,,,,,high,7,0,7,0,1,,,,,,,,,
294580,2022-09-21_13h48.35.296,vts_reward_expectancy,2022.2.4,MacIntel,60.0024001,Chrome,1280,800,,,,,0,580,,,,,,,,,,,,,,,,,181,Y,star,0,0,,,,,,,,,,,,,,,,switch,number,NA,d,0.6886,noRew,,,,,,0,,,,,,,,high,8,0,8,0,1,,,,,,,,,
294580,2022-09-21_13h48.35.296,vts_reward_expectancy,2022.2.4,MacIntel,60.0024001,Chrome,1280,800,,,,,1,581,,,,,,,,,,,,,,,,,132,F,hexagon,1,1,,,,,,,,,,,,,,,,repeat,number,numRpt,d,0.0693,noRew,,,,,,0,,,,,,,,high,9,0,9,0,1,,,,,,,,,
294580,2022-09-21_13h48.35.296,vts_reward_expectancy,2022.2.4,MacIntel,60.0024001,Chrome,1280,800,,,,,0,581,,,,,,,,,,,,,,,,,125,D,hexagon,0,0,,,,,,,,,,,,,,,,switch,letter,NA,k,0.0002,noRew,,,,,,0,,,,,,,,high,10,0,10,0,1,,,,,,,,,
294580,2022-09-21_13h48.35.296,vts_reward_expectancy,2022.2.4,MacIntel,60.0024001,Chrome,1280,800,,,,,1,582,,,,,,,,,,,,,,,,,174,H,star,1,1,,,,,,,,,,,,,,,,switch,number,numSwt,f,0.0502,noRew,,,,,,0,,,,,,,,high,11,0,11,0,1,,,,,,,,,
294580,2022-09-21_13h48.35.296,vts_reward_expectancy,2022.2.4,MacIntel,60.0024001,Chrome,1280,800,,,,,0,582,,,,,,,,,,,,,,,,,146,W,hexagon,0,0,,,,,,,,,,,,,,,,repeat,number,NA,f,0.0267,noRew,,,,,,0,,,,,,,,high,12,0,12,0,1,,,,,,,,,
294580,2022-09-21_13h48.35.296,vts_reward_expectancy,2022.2.4,MacIntel,60.0024001,Chrome,1280,800,,,,,1,583,,,,,,,,,,,,,,,,,160,U,star,1,1,,,,,,,,,,,,,,,,switch,letter,lettSwt,k,0.1533,noRew,,,,,,0,,,,,,,,high,13,0,13,0,1,,,,,,,,,
294580,2022-09-21_13h48.35.296,vts_reward_expectancy,2022.2.4,MacIntel,60.0024001,Chrome,1280,800,,,,,1,584,,,,,,,,,,,,,,,,,139,B,star,1,0,,,,,,,,,,,,,,,,switch,number,numSwt,d,0.0486,noRew,,,,,,0,,,,,,,,high,14,0,14,0,1,,,,,,,,,
294580,2022-09-21_13h48.35.296,vts_reward_expectancy,2022.2.4,MacIntel,60.0024001,Chrome,1280,800,,,,,0,584,,,,,,,,,,,,,,,,,167,S,hexagon,0,0,,,,,,,,,,,,,,,,repeat,number,NA,d,0.0034,noRew,,,,,,0,,,,,,,,high,15,0,15,0,1,,,,,,,,,
294580,2022-09-21_13h48.35.296,vts_reward_expectancy,2022.2.4,MacIntel,60.0024001,Chrome,1280,800,,,,,1,585,,,,,,,,,,,,,,,,,160,S,hexagon,1,1,,,,,,,,,,,,,,,,switch,letter,lettSwt,k,0.1152,noRew,,,,,,0,,,,,,,,high,16,0,16,0,1,,,,,,,,,
294580,2022-09-21_13h48.35.296,vts_reward_expectancy,2022.2.4,MacIntel,60.0024001,Chrome,1280,800,,,,,1,586,,,,,,,,,,,,,,,,,181,W,star,1,0,,,,,,,,,,,,,,,,repeat,letter,lettRpt,k,0.0632,noRew,,,,,,0,,,,,,,,high,17,0,17,0,1,,,,,,,,,
294580,2022-09-21_13h48.35.296,vts_reward_expectancy,2022.2.4,MacIntel,60.0024001,Chrome,1280,800,,,,,10,596,,,,,,,,,,,,,,,,,146,Y,hexagon,1,0,,,,,,,,,,,,,,,,repeat,letter,lettRpt,k,0.0092,noRew,,,,,,0,,,,,,,,high,18,0,18,0,1,,,,,,,,,
294580,2022-09-21_13h48.35.296,vts_reward_expectancy,2022.2.4,MacIntel,60.0024001,Chrome,1280,800,,,,,0,596,,,,,,,,,,,,,,,,,167,D,star,0,0,,,,,,,,,,,,,,,,switch,number,NA,d,0.92,noRew,,,,,,0,,,,,,,,high,19,0,19,0,1,,,,,,,,,
294580,2022-09-21_13h48.35.296,vts_reward_expectancy,2022.2.4,MacIntel,60.0024001,Chrome,1280,800,,,,,1,597,,,,,,,,,,,,,,,,,174,U,star,1,1,,,,,,,,,,,,,,,,repeat,number,numRpt,f,0.5114,noRew,,,,,,0,,,,,,,,high,20,0,20,0,1,,,,,,,,,
294580,2022-09-21_13h48.35.296,vts_reward_expectancy,2022.2.4,MacIntel,60.0024001,Chrome,1280,800,,,,,0,597,,,,,,,,,,,,,,,,,132,H,hexagon,1,0,,,,,,,,,,,,,,,,repeat,number,numRpt,d,0.6802,noRew,,,,,,0,,,,,,,,high,21,0,21,0,1,,,,,,,,,
294580,2022-09-21_13h48.35.296,vts_reward_expectancy,2022.2.4,MacIntel,60.0024001,Chrome,1280,800,,,,,0,597,,,,,,,,,,,,,,,,,125,B,hexagon,0,0,,,,,,,,,,,,,,,,repeat,number,NA,f,0.3172,noRew,,,,,,0,,,,,,,,high,22,0,22,0,1,,,,,,,,,
294580,2022-09-21_13h48.35.296,vts_reward_expectancy,2022.2.4,MacIntel,60.0024001,Chrome,1280,800,,,,,1,598,,,,,,,,,,,,,,,,,139,F,star,1,1,,,,,,,,,,,,,,,,switch,letter,lettSwt,j,0.8396,noRew,,,,,,0,,,,,,,,high,23,0,23,0,1,,,,,,,,,
294580,2022-09-21_13h48.35.296,vts_reward_expectancy,2022.2.4,MacIntel,60.0024001,Chrome,1280,800,,,,,1,599,,,,,,,,,,,,,,,,,181,F,star,1,0,,,,,,,,,,,,,,,,repeat,letter,lettRpt,j,0.7651,noRew,,,,,,0,,,,,,,,high,24,0,24,0,1,,,,,,,,,
294580,2022-09-21_13h48.35.296,vts_reward_expectancy,2022.2.4,MacIntel,60.0024001,Chrome,1280,800,,,,,0,599,,,,,,,,,,,,,,,,,125,D,hexagon,1,0,,,,,,,,,,,,,,,,repeat,letter,lettRpt,j,0.864,noRew,,,,,,0,,,,,,,,high,25,0,25,0,1,,,,,,,,,
294580,2022-09-21_13h48.35.296,vts_reward_expectancy,2022.2.4,MacIntel,60.0024001,Chrome,1280,800,,,,,0,599,,,,,,,,,,,,,,,,,139,S,hexagon,0,0,,,,,,,,,,,,,,,,repeat,letter,NA,j,0.0003,noRew,,,,,,0,,,,,,,,high,26,0,26,0,1,,,,,,,,,
294580,2022-09-21_13h48.35.296,vts_reward_expectancy,2022.2.4,MacIntel,60.0024001,Chrome,1280,800,,,,,0,599,,,,,,,,,,,,,,,,,132,U,star,0,1,,,,,,,,,,,,,,,,switch,number,NA,f,0.097,noRew,,,,,,0,,,,,,,,high,27,0,27,0,1,,,,,,,,,
294580,2022-09-21_13h48.35.296,vts_reward_expectancy,2022.2.4,MacIntel,60.0024001,Chrome,1280,800,,,,,1,600,,,,,,,,,,,,,,,,,146,W,hexagon,1,1,,,,,,,,,,,,,,,,switch,letter,lettSwt,k,0.027,noRew,,,,,,0,,,,,,,,high,28,0,28,0,1,,,,,,,,,
294580,2022-09-21_13h48.35.296,vts_reward_expectancy,2022.2.4,MacIntel,60.0024001,Chrome,1280,800,,,,,1,601,,,,,,,,,,,,,,,,,174,Y,star,1,0,,,,,,,,,,,,,,,,repeat,letter,lettRpt,k,0.2311,noRew,,,,,,0,,,,,,,,high,29,0,29,0,1,,,,,,,,,
294580,2022-09-21_13h48.35.296,vts_reward_expectancy,2022.2.4,MacIntel,60.0024001,Chrome,1280,800,,,,,1,602,,,,,,,,,,,,,,,,,167,B,hexagon,1,0,,,,,,,,,,,,,,,,repeat,letter,lettRpt,j,0.1794,noRew,,,,,,0,,,,,,,,high,30,0,30,0,1,,,,,,,,,
294580,2022-09-21_13h48.35.296,vts_reward_expectancy,2022.2.4,MacIntel,60.0024001,Chrome,1280,800,,,,,0,602,,,,,,,,,,,,,,,,,160,H,star,0,0,,,,,,,,,,,,,,,,switch,number,NA,d,0.1652,noRew,,,,,,0,,,,,,,,high,31,0,31,0,1,,,,,,,,,
294580,2022-09-21_13h48.35.296,vts_reward_expectancy,2022.2.4,MacIntel,60.0024001,Chrome,1280,800,,,,,1,603,,,,,,,,,,,,,,,,,125,H,circle,1,1,,,,,,,,,,,,,,,,switch,letter,lettSwt,j,0.781,noRew,,,,,,1,,,,,,space,3.4355,low,0,0,0,0,1,,,,,,,,,
294580,2022-09-21_13h48.35.296,vts_reward_expectancy,2022.2.4,MacIntel,60.0024001,Chrome,1280,800,,,,,0,603,,,,,,,,,,,,,,,,,160,D,triangle,1,0,,,,,,,,,,,,,,,,repeat,letter,lettRpt,j,0.478,noRew,,,,,,1,,,,,,,,low,1,0,1,0,1,,,,,,,,,
294580,2022-09-21_13h48.35.296,vts_reward_expectancy,2022.2.4,MacIntel,60.0024001,Chrome,1280,800,,,,,1,604,,,,,,,,,,,,,,,,,181,W,circle,1,0,,,,,,,,,,,,,,,,repeat,letter,lettRpt,k,0.4989,noRew,,,,,,1,,,,,,,,low,2,0,2,0,1,,,,,,,,,
294580,2022-09-21_13h48.35.296,vts_reward_expectancy,2022.2.4,MacIntel,60.0024001,Chrome,1280,800,,,,,0,604,,,,,,,,,,,,,,,,,167,U,triangle,1,0,,,,,,,,,,,,,,,,repeat,letter,lettRpt,k,0.4469,noRew,,,,,,1,,,,,,,,low,3,0,3,0,1,,,,,,,,,
294580,2022-09-21_13h48.35.296,vts_reward_expectancy,2022.2.4,MacIntel,60.0024001,Chrome,1280,800,,,,,0,604,,,,,,,,,,,,,,,,,139,B,triangle,1,0,,,,,,,,,,,,,,,,repeat,letter,lettRpt,j,0.4978,noRew,,,,,,1,,,,,,,,low,4,0,4,0,1,,,,,,,,,
294580,2022-09-21_13h48.35.296,vts_reward_expectancy,2022.2.4,MacIntel,60.0024001,Chrome,1280,800,,,,,1,605,,,,,,,,,,,,,,,,,174,S,circle,1,0,,,,,,,,,,,,,,,,repeat,letter,lettRpt,k,0.5148,noRew,,,,,,1,,,,,,,,low,5,0,5,0,1,,,,,,,,,
294580,2022-09-21_13h48.35.296,vts_reward_expectancy,2022.2.4,MacIntel,60.0024001,Chrome,1280,800,,,,,1,606,,,,,,,,,,,,,,,,,146,F,circle,1,0,,,,,,,,,,,,,,,,repeat,letter,lettRpt,j,0.3624,noRew,,,,,,1,,,,,,,,low,6,0,6,0,1,,,,,,,,,
294580,2022-09-21_13h48.35.296,vts_reward_expectancy,2022.2.4,MacIntel,60.0024001,Chrome,1280,800,,,,,0,606,,,,,,,,,,,,,,,,,132,Y,triangle,1,0,,,,,,,,,,,,,,,,repeat,letter,lettRpt,k,0.4784,noRew,,,,,,1,,,,,,,,low,7,0,7,0,1,,,,,,,,,
294580,2022-09-21_13h48.35.296,vts_reward_expectancy,2022.2.4,MacIntel,60.0024001,Chrome,1280,800,,,,,1,607,,,,,,,,,,,,,,,,,125,H,circle,1,0,,,,,,,,,,,,,,,,repeat,letter,lettRpt,j,0.5448,noRew,,,,,,1,,,,,,,,low,8,0,8,0,1,,,,,,,,,
294580,2022-09-21_13h48.35.296,vts_reward_expectancy,2022.2.4,MacIntel,60.0024001,Chrome,1280,800,,,,,0,607,,,,,,,,,,,,,,,,,160,D,triangle,0,0,,,,,,,,,,,,,,,,switch,number,NA,d,1.1125,noRew,,,,,,1,,,,,,,,low,9,0,9,0,1,,,,,,,,,
294580,2022-09-21_13h48.35.296,vts_reward_expectancy,2022.2.4,MacIntel,60.0024001,Chrome,1280,800,,,,,0,607,,,,,,,,,,,,,,,,,181,W,triangle,1,1,,,,,,,,,,,,,,,,repeat,number,numRpt,f,0.7387,noRew,,,,,,1,,,,,,,,low,10,0,10,0,1,,,,,,,,,
294580,2022-09-21_13h48.35.296,vts_reward_expectancy,2022.2.4,MacIntel,60.0024001,Chrome,1280,800,,,,,1,608,,,,,,,,,,,,,,,,,167,U,circle,1,0,,,,,,,,,,,,,,,,switch,letter,lettSwt,k,1.9974,noRew,,,,,,1,,,,,,,,low,11,0,11,0,1,,,,,,,,,
294580,2022-09-21_13h48.35.296,vts_reward_expectancy,2022.2.4,MacIntel,60.0024001,Chrome,1280,800,,,,,10,618,,,,,,,,,,,,,,,,,139,B,circle,1,0,,,,,,,,,,,,,,,,repeat,letter,lettRpt,j,0.7126,noRew,,,,,,1,,,,,,,,low,12,0,12,0,1,,,,,,,,,
294580,2022-09-21_13h48.35.296,vts_reward_expectancy,2022.2.4,MacIntel,60.0024001,Chrome,1280,800,,,,,0,618,,,,,,,,,,,,,,,,,174,S,triangle,0,0,,,,,,,,,,,,,,,,switch,number,NA,d,1.2967,noRew,,,,,,1,,,,,,,,low,13,0,13,0,1,,,,,,,,,
294580,2022-09-21_13h48.35.296,vts_reward_expectancy,2022.2.4,MacIntel,60.0024001,Chrome,1280,800,,,,,10,628,,,,,,,,,,,,,,,,,146,F,triangle,1,1,,,,,,,,,,,,,,,,repeat,number,numRpt,d,0.1441,noRew,,,,,,1,,,,,,,,low,14,0,14,0,1,,,,,,,,,
294580,2022-09-21_13h48.35.296,vts_reward_expectancy,2022.2.4,MacIntel,60.0024001,Chrome,1280,800,,,,,10,638,,,,,,,,,,,,,,,,,132,Y,circle,1,0,,,,,,,,,,,,,,,,switch,letter,lettSwt,k,0.5875,noRew,,,,,,1,,,,,,,,low,15,0,15,0,1,,,,,,,,,
294580,2022-09-21_13h48.35.296,vts_reward_expectancy,2022.2.4,MacIntel,60.0024001,Chrome,1280,800,,,,,10,648,,,,,,,,,,,,,,,,,174,W,circle,1,0,,,,,,,,,,,,,,,,repeat,letter,lettRpt,k,0.5814,noRew,,,,,,1,,,,,,,,low,16,0,16,0,1,,,,,,,,,
294580,2022-09-21_13h48.35.296,vts_reward_expectancy,2022.2.4,MacIntel,60.0024001,Chrome,1280,800,,,,,0,648,,,,,,,,,,,,,,,,,125,F,triangle,1,0,,,,,,,,,,,,,,,,switch,number,numSwt,d,0.6863,noRew,,,,,,1,,,,,,,,low,17,0,17,0,1,,,,,,,,,
294580,2022-09-21_13h48.35.296,vts_reward_expectancy,2022.2.4,MacIntel,60.0024001,Chrome,1280,800,,,,,10,658,,,,,,,,,,,,,,,,,181,H,triangle,1,0,,,,,,,,,,,,,,,,repeat,number,numRpt,f,0.4351,noRew,,,,,,1,,,,,,,,low,18,0,18,0,1,,,,,,,,,
294580,2022-09-21_13h48.35.296,vts_reward_expectancy,2022.2.4,MacIntel,60.0024001,Chrome,1280,800,,,,,1,659,,,,,,,,,,,,,,,,,146,B,circle,1,0,,,,,,,,,,,,,,,,switch,letter,lettSwt,j,0.4723,noRew,,,,,,1,,,,,,,,low,19,0,19,0,1,,,,,,,,,
294580,2022-09-21_13h48.35.296,vts_reward_expectancy,2022.2.4,MacIntel,60.0024001,Chrome,1280,800,,,,,0,659,,,,,,,,,,,,,,,,,167,D,triangle,1,0,,,,,,,,,,,,,,,,switch,number,numSwt,f,0.4723,noRew,,,,,,1,,,,,,,,low,20,0,20,0,1,,,,,,,,,
294580,2022-09-21_13h48.35.296,vts_reward_expectancy,2022.2.4,MacIntel,60.0024001,Chrome,1280,800,,,,,1,660,,,,,,,,,,,,,,,,,139,S,circle,1,0,,,,,,,,,,,,,,,,switch,letter,lettSwt,k,0.5819,noRew,,,,,,1,,,,,,,,low,21,0,21,0,1,,,,,,,,,
294580,2022-09-21_13h48.35.296,vts_reward_expectancy,2022.2.4,MacIntel,60.0024001,Chrome,1280,800,,,,,0,660,,,,,,,,,,,,,,,,,160,U,triangle,0,0,,,,,,,,,,,,,,,,repeat,letter,NA,j,0.0004,noRew,,,,,,1,,,,,,,,low,22,0,22,0,1,,,,,,,,,
294580,2022-09-21_13h48.35.296,vts_reward_expectancy,2022.2.4,MacIntel,60.0024001,Chrome,1280,800,,,,,1,661,,,,,,,,,,,,,,,,,132,Y,circle,1,1,,,,,,,,,,,,,,,,repeat,letter,lettRpt,k,0.0004,noRew,,,,,,1,,,,,,,,low,23,0,23,0,1,,,,,,,,,
294580,2022-09-21_13h48.35.296,vts_reward_expectancy,2022.2.4,MacIntel,60.0024001,Chrome,1280,800,,,,,0,661,,,,,,,,,,,,,,,,,174,Y,circle,0,0,,,,,,,,,,,,,,,,repeat,letter,NA,j,0.2481,noRew,,,,,,1,,,,,,,,low,24,0,24,0,1,,,,,,,,,
294580,2022-09-21_13h48.35.296,vts_reward_expectancy,2022.2.4,MacIntel,60.0024001,Chrome,1280,800,,,,,0,661,,,,,,,,,,,,,,,,,160,H,triangle,0,1,,,,,,,,,,,,,,,,repeat,letter,NA,k,0.1977,noRew,,,,,,1,,,,,,,,low,25,0,25,0,1,,,,,,,,,
294580,2022-09-21_13h48.35.296,vts_reward_expectancy,2022.2.4,MacIntel,60.0024001,Chrome,1280,800,,,,,0,661,,,,,,,,,,,,,,,,,139,B,triangle,0,1,,,,,,,,,,,,,,,,repeat,letter,NA,k,0.1171,noRew,,,,,,1,,,,,,,,low,26,0,26,0,1,,,,,,,,,
294580,2022-09-21_13h48.35.296,vts_reward_expectancy,2022.2.4,MacIntel,60.0024001,Chrome,1280,800,,,,,0,661,,,,,,,,,,,,,,,,,181,W,circle,0,1,,,,,,,,,,,,,,,,repeat,letter,NA,j,0.1649,noRew,,,,,,1,,,,,,,,low,27,0,27,0,1,,,,,,,,,
294580,2022-09-21_13h48.35.296,vts_reward_expectancy,2022.2.4,MacIntel,60.0024001,Chrome,1280,800,,,,,1,662,,,,,,,,,,,,,,,,,132,D,circle,1,1,,,,,,,,,,,,,,,,repeat,letter,lettRpt,j,0.1469,noRew,,,,,,1,,,,,,,,low,28,0,28,0,1,,,,,,,,,
294580,2022-09-21_13h48.35.296,vts_reward_expectancy,2022.2.4,MacIntel,60.0024001,Chrome,1280,800,,,,,0,662,,,,,,,,,,,,,,,,,167,U,triangle,0,0,,,,,,,,,,,,,,,,repeat,letter,NA,j,0.1166,noRew,,,,,,1,,,,,,,,low,29,0,29,0,1,,,,,,,,,
294580,2022-09-21_13h48.35.296,vts_reward_expectancy,2022.2.4,MacIntel,60.0024001,Chrome,1280,800,,,,,0,662,,,,,,,,,,,,,,,,,125,S,triangle,1,1,,,,,,,,,,,,,,,,switch,number,numSwt,d,0.6956,noRew,,,,,,1,,,,,,,,low,30,0,30,0,1,,,,,,,,,
294580,2022-09-21_13h48.35.296,vts_reward_expectancy,2022.2.4,MacIntel,60.0024001,Chrome,1280,800,,,,,1,663,,,,,,,,,,,,,,,,,146,F,circle,1,0,,,,,,,,,,,,,,,,repeat,number,numRpt,d,0.165,noRew,,,,,,1,,,,,,,,low,31,0,31,0,1,,,,,,,,,
294580,2022-09-21_13h48.35.296,vts_reward_expectancy,2022.2.4,MacIntel,60.0024001,Chrome,1280,800,,,,,10,673,,,,,,,,,,,,,,,,,146,U,triangle,1,0,,,,,,,,,,,,,,,,repeat,number,numRpt,d,0.0314,noRew,,,,,,2,,,,,,space,2.9561,low,0,0,0,0,1,,,,,,,,,
294580,2022-09-21_13h48.35.296,vts_reward_expectancy,2022.2.4,MacIntel,60.0024001,Chrome,1280,800,,,,,0,673,,,,,,,,,,,,,,,,,181,W,circle,0,0,,,,,,,,,,,,,,,,repeat,number,NA,d,0.1989,noRew,,,,,,2,,,,,,,,low,1,0,1,0,1,,,,,,,,,
294580,2022-09-21_13h48.35.296,vts_reward_expectancy,2022.2.4,MacIntel,60.0024001,Chrome,1280,800,,,,,0,673,,,,,,,,,,,,,,,,,132,D,triangle,0,1,,,,,,,,,,,,,,,,repeat,number,NA,f,0.0188,noRew,,,,,,2,,,,,,,,low,2,0,2,0,1,,,,,,,,,
294580,2022-09-21_13h48.35.296,vts_reward_expectancy,2022.2.4,MacIntel,60.0024001,Chrome,1280,800,,,,,0,673,,,,,,,,,,,,,,,,,167,H,circle,0,1,,,,,,,,,,,,,,,,repeat,number,NA,d,0.179,noRew,,,,,,2,,,,,,,,low,3,0,3,0,1,,,,,,,,,
294580,2022-09-21_13h48.35.296,vts_reward_expectancy,2022.2.4,MacIntel,60.0024001,Chrome,1280,800,,,,,10,683,,,,,,,,,,,,,,,,,160,F,circle,1,1,,,,,,,,,,,,,,,,repeat,number,numRpt,f,0.1631,noRew,,,,,,2,,,,,,,,low,4,0,4,0,1,,,,,,,,,
294580,2022-09-21_13h48.35.296,vts_reward_expectancy,2022.2.4,MacIntel,60.0024001,Chrome,1280,800,,,,,0,683,,,,,,,,,,,,,,,,,174,Y,triangle,0,0,,,,,,,,,,,,,,,,repeat,number,NA,d,0.0002,noRew,,,,,,2,,,,,,,,low,5,0,5,0,1,,,,,,,,,
294580,2022-09-21_13h48.35.296,vts_reward_expectancy,2022.2.4,MacIntel,60.0024001,Chrome,1280,800,,,,,0,683,,,,,,,,,,,,,,,,,125,S,circle,0,1,,,,,,,,,,,,,,,,repeat,number,NA,f,0.0806,noRew,,,,,,2,,,,,,,,low,6,0,6,0,1,,,,,,,,,
294580,2022-09-21_13h48.35.296,vts_reward_expectancy,2022.2.4,MacIntel,60.0024001,Chrome,1280,800,,,,,0,683,,,,,,,,,,,,,,,,,139,B,triangle,0,1,,,,,,,,,,,,,,,,repeat,number,NA,f,0.1637,noRew,,,,,,2,,,,,,,,low,7,0,7,0,1,,,,,,,,,
294580,2022-09-21_13h48.35.296,vts_reward_expectancy,2022.2.4,MacIntel,60.0024001,Chrome,1280,800,,,,,0,683,,,,,,,,,,,,,,,,,146,U,circle,0,1,,,,,,,,,,,,,,,,repeat,number,NA,f,0.0279,noRew,,,,,,2,,,,,,,,low,8,0,8,0,1,,,,,,,,,
294580,2022-09-21_13h48.35.296,vts_reward_expectancy,2022.2.4,MacIntel,60.0024001,Chrome,1280,800,,,,,1,684,,,,,,,,,,,,,,,,,181,W,triangle,1,1,,,,,,,,,,,,,,,,repeat,number,numRpt,f,0.1132,noRew,,,,,,2,,,,,,,,low,9,0,9,0,1,,,,,,,,,
294580,2022-09-21_13h48.35.296,vts_reward_expectancy,2022.2.4,MacIntel,60.0024001,Chrome,1280,800,,,,,10,694,,,,,,,,,,,,,,,,,132,D,circle,1,0,,,,,,,,,,,,,,,,repeat,number,numRpt,d,0.1687,noRew,,,,,,2,,,,,,,,low,10,0,10,0,1,,,,,,,,,
294580,2022-09-21_13h48.35.296,vts_reward_expectancy,2022.2.4,MacIntel,60.0024001,Chrome,1280,800,,,,,0,694,,,,,,,,,,,,,,,,,167,H,triangle,0,0,,,,,,,,,,,,,,,,repeat,number,NA,d,0.029,noRew,,,,,,2,,,,,,,,low,11,0,11,0,1,,,,,,,,,
294580,2022-09-21_13h48.35.296,vts_reward_expectancy,2022.2.4,MacIntel,60.0024001,Chrome,1280,800,,,,,1,695,,,,,,,,,,,,,,,,,160,F,triangle,1,1,,,,,,,,,,,,,,,,repeat,number,numRpt,f,0.002,noRew,,,,,,2,,,,,,,,low,12,0,12,0,1,,,,,,,,,
294580,2022-09-21_13h48.35.296,vts_reward_expectancy,2022.2.4,MacIntel,60.0024001,Chrome,1280,800,,,,,0,695,,,,,,,,,,,,,,,,,174,Y,circle,0,0,,,,,,,,,,,,,,,,repeat,number,NA,d,0.0464,noRew,,,,,,2,,,,,,,,low,13,0,13,0,1,,,,,,,,,
294580,2022-09-21_13h48.35.296,vts_reward_expectancy,2022.2.4,MacIntel,60.0024001,Chrome,1280,800,,,,,1,696,,,,,,,,,,,,,,,,,125,S,circle,1,1,,,,,,,,,,,,,,,,repeat,number,numRpt,d,0.2792,noRew,,,,,,2,,,,,,,,low,14,0,14,0,1,,,,,,,,,
294580,2022-09-21_13h48.35.296,vts_reward_expectancy,2022.2.4,MacIntel,60.0024001,Chrome,1280,800,,,,,0,696,,,,,,,,,,,,,,,,,139,B,triangle,0,0,,,,,,,,,,,,,,,,repeat,number,NA,f,0.0783,noRew,,,,,,2,,,,,,,,low,15,0,15,0,1,,,,,,,,,
294580,2022-09-21_13h48.35.296,vts_reward_expectancy,2022.2.4,MacIntel,60.0024001,Chrome,1280,800,,,,,0,696,,,,,,,,,,,,,,,,,174,B,circle,0,1,,,,,,,,,,,,,,,,repeat,number,NA,d,0.1988,noRew,,,,,,2,,,,,,,,low,16,0,16,0,1,,,,,,,,,
294580,2022-09-21_13h48.35.296,vts_reward_expectancy,2022.2.4,MacIntel,60.0024001,Chrome,1280,800,,,,,10,706,,,,,,,,,,,,,,,,,132,F,triangle,1,1,,,,,,,,,,,,,,,,repeat,number,numRpt,d,0.0489,noRew,,,,,,2,,,,,,,,low,17,0,17,0,1,,,,,,,,,
294580,2022-09-21_13h48.35.296,vts_reward_expectancy,2022.2.4,MacIntel,60.0024001,Chrome,1280,800,,,,,1,707,,,,,,,,,,,,,,,,,139,H,circle,1,0,,,,,,,,,,,,,,,,repeat,number,numRpt,d,0.0665,noRew,,,,,,2,,,,,,,,low,18,0,18,0,1,,,,,,,,,
294580,2022-09-21_13h48.35.296,vts_reward_expectancy,2022.2.4,MacIntel,60.0024001,Chrome,1280,800,,,,,0,707,,,,,,,,,,,,,,,,,181,S,triangle,1,0,,,,,,,,,,,,,,,,repeat,number,numRpt,f,0.2304,noRew,,,,,,2,,,,,,,,low,19,0,19,0,1,,,,,,,,,
294580,2022-09-21_13h48.35.296,vts_reward_expectancy,2022.2.4,MacIntel,60.0024001,Chrome,1280,800,,,,,0,707,,,,,,,,,,,,,,,,,146,D,circle,0,0,,,,,,,,,,,,,,,,repeat,number,NA,f,0.0797,noRew,,,,,,2,,,,,,,,low,20,0,20,0,1,,,,,,,,,
294580,2022-09-21_13h48.35.296,vts_reward_expectancy,2022.2.4,MacIntel,60.0024001,Chrome,1280,800,,,,,0,707,,,,,,,,,,,,,,,,,125,W,triangle,0,1,,,,,,,,,,,,,,,,repeat,number,NA,f,0.2148,noRew,,,,,,2,,,,,,,,low,21,0,21,0,1,,,,,,,,,
294580,2022-09-21_13h48.35.296,vts_reward_expectancy,2022.2.4,MacIntel,60.0024001,Chrome,1280,800,,,,,1,708,,,,,,,,,,,,,,,,,167,U,circle,1,1,,,,,,,,,,,,,,,,repeat,number,numRpt,f,0.113,noRew,,,,,,2,,,,,,,,low,22,0,22,0,1,,,,,,,,,
294580,2022-09-21_13h48.35.296,vts_reward_expectancy,2022.2.4,MacIntel,60.0024001,Chrome,1280,800,,,,,0,708,,,,,,,,,,,,,,,,,160,Y,triangle,0,0,,,,,,,,,,,,,,,,repeat,number,NA,d,0.1343,noRew,,,,,,2,,,,,,,,low,23,0,23,0,1,,,,,,,,,
294580,2022-09-21_13h48.35.296,vts_reward_expectancy,2022.2.4,MacIntel,60.0024001,Chrome,1280,800,,,,,10,718,,,,,,,,,,,,,,,,,174,H,circle,1,1,,,,,,,,,,,,,,,,repeat,number,numRpt,f,0.2016,noRew,,,,,,2,,,,,,,,low,24,0,24,0,1,,,,,,,,,
294580,2022-09-21_13h48.35.296,vts_reward_expectancy,2022.2.4,MacIntel,60.0024001,Chrome,1280,800,,,,,10,728,,,,,,,,,,,,,,,,,146,Y,triangle,1,0,,,,,,,,,,,,,,,,switch,letter,lettSwt,k,0.0375,noRew,,,,,,2,,,,,,,,low,25,0,25,0,1,,,,,,,,,
294580,2022-09-21_13h48.35.296,vts_reward_expectancy,2022.2.4,MacIntel,60.0024001,Chrome,1280,800,,,,,0,728,,,,,,,,,,,,,,,,,139,D,circle,0,0,,,,,,,,,,,,,,,,repeat,letter,NA,k,0.0794,noRew,,,,,,2,,,,,,,,low,26,0,26,0,1,,,,,,,,,
294580,2022-09-21_13h48.35.296,vts_reward_expectancy,2022.2.4,MacIntel,60.0024001,Chrome,1280,800,,,,,0,728,,,,,,,,,,,,,,,,,167,F,triangle,0,1,,,,,,,,,,,,,,,,repeat,letter,NA,k,0.1616,noRew,,,,,,2,,,,,,,,low,27,0,27,0,1,,,,,,,,,
294580,2022-09-21_13h48.35.296,vts_reward_expectancy,2022.2.4,MacIntel,60.0024001,Chrome,1280,800,,,,,10,738,,,,,,,,,,,,,,,,,160,U,circle,1,1,,,,,,,,,,,,,,,,repeat,letter,lettRpt,k,0.1859,noRew,,,,,,2,,,,,,,,low,28,0,28,0,1,,,,,,,,,
294580,2022-09-21_13h48.35.296,vts_reward_expectancy,2022.2.4,MacIntel,60.0024001,Chrome,1280,800,,,,,0,738,,,,,,,,,,,,,,,,,125,S,triangle,0,0,,,,,,,,,,,,,,,,repeat,letter,NA,j,0.0956,noRew,,,,,,2,,,,,,,,low,29,0,29,0,1,,,,,,,,,
294580,2022-09-21_13h48.35.296,vts_reward_expectancy,2022.2.4,MacIntel,60.0024001,Chrome,1280,800,,,,,0,738,,,,,,,,,,,,,,,,,132,B,circle,0,1,,,,,,,,,,,,,,,,repeat,letter,NA,k,0.331,noRew,,,,,,2,,,,,,,,low,30,0,30,0,1,,,,,,,,,
294580,2022-09-21_13h48.35.296,vts_reward_expectancy,2022.2.4,MacIntel,60.0024001,Chrome,1280,800,,,,,0,738,,,,,,,,,,,,,,,,,181,W,triangle,0,1,,,,,,,,,,,,,,,,repeat,letter,NA,j,0.249,noRew,,,,,,2,,,,,,,,low,31,0,31,0,1,,,,,,,,,
294580,2022-09-21_13h48.35.296,vts_reward_expectancy,2022.2.4,MacIntel,60.0024001,Chrome,1280,800,,,,,0,738,,,,,,,,,,,,,,,,,181,W,circle,0,1,,,,,,,,,,,,,,,,repeat,letter,NA,j,0.2329,noRew,,,,,,3,,,,,,space,1.541,low,0,0,0,0,1,,,,,,,,,
294580,2022-09-21_13h48.35.296,vts_reward_expectancy,2022.2.4,MacIntel,60.0024001,Chrome,1280,800,,,,,0,738,,,,,,,,,,,,,,,,,146,H,triangle,0,1,,,,,,,,,,,,,,,,repeat,letter,NA,k,1.0628,noRew,,,,,,3,,,,,,,,low,1,0,1,0,1,,,,,,,,,
294580,2022-09-21_13h48.35.296,vts_reward_expectancy,2022.2.4,MacIntel,60.0024001,Chrome,1280,800,,,,,0,738,,,,,,,,,,,,,,,,,174,B,circle,0,1,,,,,,,,,,,,,,,,repeat,letter,NA,k,0.2473,noRew,,,,,,3,,,,,,,,low,2,0,2,0,1,,,,,,,,,
294580,2022-09-21_13h48.35.296,vts_reward_expectancy,2022.2.4,MacIntel,60.0024001,Chrome,1280,800,,,,,0,738,,,,,,,,,,,,,,,,,167,S,triangle,1,1,,,,,,,,,,,,,,,,repeat,letter,lettRpt,k,2.8043,noRew,,,,,,3,,,,,,,,low,3,0,3,0,1,,,,,,,,,
294580,2022-09-21_13h48.35.296,vts_reward_expectancy,2022.2.4,MacIntel,60.0024001,Chrome,1280,800,,,,,0,738,,,,,,,,,,,,,,,,,139,U,circle,0,0,,,,,,,,,,,,,,,,repeat,letter,NA,j,0.1828,noRew,,,,,,3,,,,,,,,low,4,0,4,0,1,,,,,,,,,
294580,2022-09-21_13h48.35.296,vts_reward_expectancy,2022.2.4,MacIntel,60.0024001,Chrome,1280,800,,,,,0,738,,,,,,,,,,,,,,,,,132,Y,triangle,1,1,,,,,,,,,,,,,,,,repeat,letter,lettRpt,k,0.4058,noRew,,,,,,3,,,,,,,,low,5,0,5,0,1,,,,,,,,,
294580,2022-09-21_13h48.35.296,vts_reward_expectancy,2022.2.4,MacIntel,60.0024001,Chrome,1280,800,,,,,10,748,,,,,,,,,,,,,,,,,160,F,circle,1,0,,,,,,,,,,,,,,,,repeat,letter,lettRpt,j,0.0119,noRew,,,,,,3,,,,,,,,low,6,0,6,0,1,,,,,,,,,
294580,2022-09-21_13h48.35.296,vts_reward_expectancy,2022.2.4,MacIntel,60.0024001,Chrome,1280,800,,,,,0,748,,,,,,,,,,,,,,,,,125,D,triangle,1,0,,,,,,,,,,,,,,,,repeat,letter,lettRpt,j,0.2021,noRew,,,,,,3,,,,,,,,low,7,0,7,0,1,,,,,,,,,
294580,2022-09-21_13h48.35.296,vts_reward_expectancy,2022.2.4,MacIntel,60.0024001,Chrome,1280,800,,,,,0,748,,,,,,,,,,,,,,,,,181,W,circle,0,0,,,,,,,,,,,,,,,,repeat,letter,NA,j,0.2366,noRew,,,,,,3,,,,,,,,low,8,0,8,0,1,,,,,,,,,
294580,2022-09-21_13h48.35.296,vts_reward_expectancy,2022.2.4,MacIntel,60.0024001,Chrome,1280,800,,,,,0,748,,,,,,,,,,,,,,,,,146,H,triangle,0,1,,,,,,,,,,,,,,,,repeat,letter,NA,k,0.0002,noRew,,,,,,3,,,,,,,,low,9,0,9,0,1,,,,,,,,,
294580,2022-09-21_13h48.35.296,vts_reward_expectancy,2022.2.4,MacIntel,60.0024001,Chrome,1280,800,,,,,1,749,,,,,,,,,,,,,,,,,174,B,circle,1,1,,,,,,,,,,,,,,,,repeat,letter,lettRpt,j,0.0025,noRew,,,,,,3,,,,,,,,low,10,0,10,0,1,,,,,,,,,
294580,2022-09-21_13h48.35.296,vts_reward_expectancy,2022.2.4,MacIntel,60.0024001,Chrome,1280,800,,,,,0,749,,,,,,,,,,,,,,,,,167,S,triangle,0,0,,,,,,,,,,,,,,,,repeat,letter,NA,j,0.0368,noRew,,,,,,3,,,,,,,,low,11,0,11,0,1,,,,,,,,,
294580,2022-09-21_13h48.35.296,vts_reward_expectancy,2022.2.4,MacIntel,60.0024001,Chrome,1280,800,,,,,10,759,,,,,,,,,,,,,,,,,139,U,circle,1,1,,,,,,,,,,,,,,,,repeat,letter,lettRpt,k,1.0966,noRew,,,,,,3,,,,,,,,low,12,0,12,0,1,,,,,,,,,
294580,2022-09-21_13h48.35.296,vts_reward_expectancy,2022.2.4,MacIntel,60.0024001,Chrome,1280,800,,,,,1,760,,,,,,,,,,,,,,,,,132,Y,triangle,1,0,,,,,,,,,,,,,,,,repeat,letter,lettRpt,k,0.1309,noRew,,,,,,3,,,,,,,,low,13,0,13,0,1,,,,,,,,,
294580,2022-09-21_13h48.35.296,vts_reward_expectancy,2022.2.4,MacIntel,60.0024001,Chrome,1280,800,,,,,0,760,,,,,,,,,,,,,,,,,160,F,triangle,1,0,,,,,,,,,,,,,,,,repeat,letter,lettRpt,j,0.2686,noRew,,,,,,3,,,,,,,,low,14,0,14,0,1,,,,,,,,,
294580,2022-09-21_13h48.35.296,vts_reward_expectancy,2022.2.4,MacIntel,60.0024001,Chrome,1280,800,,,,,1,761,,,,,,,,,,,,,,,,,125,D,circle,1,0,,,,,,,,,,,,,,,,repeat,letter,lettRpt,j,0.2475,noRew,,,,,,3,,,,,,,,low,15,0,15,0,1,,,,,,,,,
294580,2022-09-21_13h48.35.296,vts_reward_expectancy,2022.2.4,MacIntel,60.0024001,Chrome,1280,800,,,,,10,771,,,,,,,,,,,,,,,,,132,D,circle,1,0,,,,,,,,,,,,,,,,repeat,letter,lettRpt,j,0.1168,noRew,,,,,,3,,,,,,,,low,16,0,16,0,1,,,,,,,,,
294580,2022-09-21_13h48.35.296,vts_reward_expectancy,2022.2.4,MacIntel,60.0024001,Chrome,1280,800,,,,,0,771,,,,,,,,,,,,,,,,,125,F,triangle,0,0,,,,,,,,,,,,,,,,repeat,letter,NA,k,0.1677,noRew,,,,,,3,,,,,,,,low,17,0,17,0,1,,,,,,,,,
294580,2022-09-21_13h48.35.296,vts_reward_expectancy,2022.2.4,MacIntel,60.0024001,Chrome,1280,800,,,,,0,771,,,,,,,,,,,,,,,,,146,H,triangle,0,1,,,,,,,,,,,,,,,,repeat,letter,NA,k,0.2028,noRew,,,,,,3,,,,,,,,low,18,0,18,0,1,,,,,,,,,
294580,2022-09-21_13h48.35.296,vts_reward_expectancy,2022.2.4,MacIntel,60.0024001,Chrome,1280,800,,,,,1,772,,,,,,,,,,,,,,,,,181,U,circle,1,1,,,,,,,,,,,,,,,,repeat,letter,lettRpt,k,0.2186,noRew,,,,,,3,,,,,,,,low,19,0,19,0,1,,,,,,,,,
294580,2022-09-21_13h48.35.296,vts_reward_expectancy,2022.2.4,MacIntel,60.0024001,Chrome,1280,800,,,,,10,782,,,,,,,,,,,,,,,,,174,S,triangle,1,0,,,,,,,,,,,,,,,,repeat,letter,lettRpt,k,0.0027,noRew,,,,,,3,,,,,,,,low,20,0,20,0,1,,,,,,,,,
294580,2022-09-21_13h48.35.296,vts_reward_expectancy,2022.2.4,MacIntel,60.0024001,Chrome,1280,800,,,,,10,792,,,,,,,,,,,,,,,,,139,W,circle,1,0,,,,,,,,,,,,,,,,repeat,letter,lettRpt,k,0.0799,noRew,,,,,,3,,,,,,,,low,21,0,21,0,1,,,,,,,,,
294580,2022-09-21_13h48.35.296,vts_reward_expectancy,2022.2.4,MacIntel,60.0024001,Chrome,1280,800,,,,,0,792,,,,,,,,,,,,,,,,,167,B,circle,0,0,,,,,,,,,,,,,,,,repeat,letter,NA,k,0.0982,noRew,,,,,,3,,,,,,,,low,22,0,22,0,1,,,,,,,,,
294580,2022-09-21_13h48.35.296,vts_reward_expectancy,2022.2.4,MacIntel,60.0024001,Chrome,1280,800,,,,,10,802,,,,,,,,,,,,,,,,,160,Y,triangle,1,1,,,,,,,,,,,,,,,,repeat,letter,lettRpt,k,0.1691,noRew,,,,,,3,,,,,,,,low,23,0,23,0,1,,,,,,,,,
294580,2022-09-21_13h48.35.296,vts_reward_expectancy,2022.2.4,MacIntel,60.0024001,Chrome,1280,800,,,,,0,802,,,,,,,,,,,,,,,,,167,U,circle,0,0,,,,,,,,,,,,,,,,repeat,letter,NA,j,0.1116,noRew,,,,,,3,,,,,,,,low,24,0,24,0,1,,,,,,,,,
294580,2022-09-21_13h48.35.296,vts_reward_expectancy,2022.2.4,MacIntel,60.0024001,Chrome,1280,800,,,,,0,802,,,,,,,,,,,,,,,,,181,S,triangle,1,1,,,,,,,,,,,,,,,,repeat,letter,lettRpt,k,1.5124,noRew,,,,,,3,,,,,,,,low,25,0,25,0,1,,,,,,,,,
294580,2022-09-21_13h48.35.296,vts_reward_expectancy,2022.2.4,MacIntel,60.0024001,Chrome,1280,800,,,,,0,802,,,,,,,,,,,,,,,,,146,B,triangle,0,0,,,,,,,,,,,,,,,,repeat,letter,NA,k,0.0432,noRew,,,,,,3,,,,,,,,low,26,0,26,0,1,,,,,,,,,
294580,2022-09-21_13h48.35.296,vts_reward_expectancy,2022.2.4,MacIntel,60.0024001,Chrome,1280,800,,,,,10,812,,,,,,,,,,,,,,,,,125,H,circle,1,1,,,,,,,,,,,,,,,,repeat,letter,lettRpt,j,0.1345,noRew,,,,,,3,,,,,,,,low,27,0,27,0,1,,,,,,,,,
294580,2022-09-21_13h48.35.296,vts_reward_expectancy,2022.2.4,MacIntel,60.0024001,Chrome,1280,800,,,,,0,812,,,,,,,,,,,,,,,,,132,D,triangle,0,0,,,,,,,,,,,,,,,,repeat,letter,NA,k,0.1783,noRew,,,,,,3,,,,,,,,low,28,0,28,0,1,,,,,,,,,
294580,2022-09-21_13h48.35.296,vts_reward_expectancy,2022.2.4,MacIntel,60.0024001,Chrome,1280,800,,,,,0,812,,,,,,,,,,,,,,,,,160,Y,circle,0,1,,,,,,,,,,,,,,,,repeat,letter,NA,j,0.185,noRew,,,,,,3,,,,,,,,low,29,0,29,0,1,,,,,,,,,
294580,2022-09-21_13h48.35.296,vts_reward_expectancy,2022.2.4,MacIntel,60.0024001,Chrome,1280,800,,,,,0,812,,,,,,,,,,,,,,,,,174,W,circle,0,1,,,,,,,,,,,,,,,,repeat,letter,NA,j,0.135,noRew,,,,,,3,,,,,,,,low,30,0,30,0,1,,,,,,,,,
294580,2022-09-21_13h48.35.296,vts_reward_expectancy,2022.2.4,MacIntel,60.0024001,Chrome,1280,800,,,,,0,812,,,,,,,,,,,,,,,,,139,F,triangle,0,1,,,,,,,,,,,,,,,,repeat,letter,NA,k,0.1309,noRew,,,,,,3,,,,,,,,low,31,0,31,0,1,,,,,,,,,
294580,2022-09-21_13h48.35.296,vts_reward_expectancy,2022.2.4,MacIntel,60.0024001,Chrome,1280,800,,,,,0,812,,,,,,,,,,,,,,,,,146,B,hexagon,0,1,,,,,,,,,,,,,,,,switch,number,NA,f,0.1368,noRew,,,,,,4,,,,,,space,0.4243,high,0,0,0,0,1,,,,,,,,,
294580,2022-09-21_13h48.35.296,vts_reward_expectancy,2022.2.4,MacIntel,60.0024001,Chrome,1280,800,,,,,0,812,,,,,,,,,,,,,,,,,132,W,star,0,1,,,,,,,,,,,,,,,,repeat,number,NA,f,0.0321,noRew,,,,,,4,,,,,,,,high,1,0,1,0,1,,,,,,,,,
294580,2022-09-21_13h48.35.296,vts_reward_expectancy,2022.2.4,MacIntel,60.0024001,Chrome,1280,800,,,,,0,812,,,,,,,,,,,,,,,,,181,H,hexagon,0,1,,,,,,,,,,,,,,,,repeat,number,NA,d,0.0536,noRew,,,,,,4,,,,,,,,high,2,0,2,0,1,,,,,,,,,
294580,2022-09-21_13h48.35.296,vts_reward_expectancy,2022.2.4,MacIntel,60.0024001,Chrome,1280,800,,,,,1,813,,,,,,,,,,,,,,,,,167,F,star,1,1,,,,,,,,,,,,,,,,repeat,number,numRpt,f,0.0003,noRew,,,,,,4,,,,,,,,high,3,0,3,0,1,,,,,,,,,
294580,2022-09-21_13h48.35.296,vts_reward_expectancy,2022.2.4,MacIntel,60.0024001,Chrome,1280,800,,,,,0,813,,,,,,,,,,,,,,,,,174,D,hexagon,0,0,,,,,,,,,,,,,,,,repeat,number,NA,d,0.3074,noRew,,,,,,4,,,,,,,,high,4,0,4,0,1,,,,,,,,,
294580,2022-09-21_13h48.35.296,vts_reward_expectancy,2022.2.4,MacIntel,60.0024001,Chrome,1280,800,,,,,10,823,,,,,,,,,,,,,,,,,160,Y,star,1,1,,,,,,,,,,,,,,,,repeat,number,numRpt,f,0.0187,noRew,,,,,,4,,,,,,,,high,5,0,5,0,1,,,,,,,,,
294580,2022-09-21_13h48.35.296,vts_reward_expectancy,2022.2.4,MacIntel,60.0024001,Chrome,1280,800,,,,,10,833,,,,,,,,,,,,,,,,,139,U,hexagon,1,0,,,,,,,,,,,,,,,,repeat,number,numRpt,d,0.0701,noRew,,,,,,4,,,,,,,,high,6,0,6,0,1,,,,,,,,,
294580,2022-09-21_13h48.35.296,vts_reward_expectancy,2022.2.4,MacIntel,60.0024001,Chrome,1280,800,,,,,0,833,,,,,,,,,,,,,,,,,125,S,star,0,0,,,,,,,,,,,,,,,,repeat,number,NA,f,0.1486,noRew,,,,,,4,,,,,,,,high,7,0,7,0,1,,,,,,,,,
294580,2022-09-21_13h48.35.296,vts_reward_expectancy,2022.2.4,MacIntel,60.0024001,Chrome,1280,800,,,,,0,833,,,,,,,,,,,,,,,,,146,B,hexagon,0,1,,,,,,,,,,,,,,,,repeat,number,NA,f,0.1307,noRew,,,,,,4,,,,,,,,high,8,0,8,0,1,,,,,,,,,
294580,2022-09-21_13h48.35.296,vts_reward_expectancy,2022.2.4,MacIntel,60.0024001,Chrome,1280,800,,,,,0,833,,,,,,,,,,,,,,,,,132,W,star,0,1,,,,,,,,,,,,,,,,repeat,number,NA,f,0.3486,noRew,,,,,,4,,,,,,,,high,9,0,9,0,1,,,,,,,,,
294580,2022-09-21_13h48.35.296,vts_reward_expectancy,2022.2.4,MacIntel,60.0024001,Chrome,1280,800,,,,,1,834,,,,,,,,,,,,,,,,,181,H,hexagon,1,1,,,,,,,,,,,,,,,,repeat,number,numRpt,f,0.8987,noRew,,,,,,4,,,,,,,,high,10,0,10,0,1,,,,,,,,,
294580,2022-09-21_13h48.35.296,vts_reward_expectancy,2022.2.4,MacIntel,60.0024001,Chrome,1280,800,,,,,0,834,,,,,,,,,,,,,,,,,167,F,star,-1,0,,,,,,,,,,,,,,,,switch,no_choice,NA,,,noRew,,,,,,4,,,,,,,,high,11,0,11,0,1,,,,,,,,,
294580,2022-09-21_13h48.35.296,vts_reward_expectancy,2022.2.4,MacIntel,60.0024001,Chrome,1280,800,,,,,0,834,,,,,,,,,,,,,,,,,174,D,star,0,0,,,,,,,,,,,,,,,,switch,number,NA,d,0.1976,noRew,,,,,,4,,,,,,,,high,12,0,12,0,1,,,,,,,,,
294580,2022-09-21_13h48.35.296,vts_reward_expectancy,2022.2.4,MacIntel,60.0024001,Chrome,1280,800,,,,,10,844,,,,,,,,,,,,,,,,,160,Y,hexagon,1,1,,,,,,,,,,,,,,,,repeat,number,numRpt,f,0.0647,noRew,,,,,,4,,,,,,,,high,13,0,13,0,1,,,,,,,,,
294580,2022-09-21_13h48.35.296,vts_reward_expectancy,2022.2.4,MacIntel,60.0024001,Chrome,1280,800,,,,,10,854,,,,,,,,,,,,,,,,,139,U,hexagon,1,0,,,,,,,,,,,,,,,,repeat,number,numRpt,d,0.153,noRew,,,,,,4,,,,,,,,high,14,0,14,0,1,,,,,,,,,
294580,2022-09-21_13h48.35.296,vts_reward_expectancy,2022.2.4,MacIntel,60.0024001,Chrome,1280,800,,,,,1,855,,,,,,,,,,,,,,,,,125,S,star,1,0,,,,,,,,,,,,,,,,repeat,number,numRpt,d,0.6161,noRew,,,,,,4,,,,,,,,high,15,0,15,0,1,,,,,,,,,
294580,2022-09-21_13h48.35.296,vts_reward_expectancy,2022.2.4,MacIntel,60.0024001,Chrome,1280,800,,,,,10,865,,,,,,,,,,,,,,,,,181,H,hexagon,1,0,,,,,,,,,,,,,,,,repeat,number,numRpt,f,0.8639,noRew,,,,,,4,,,,,,,,high,16,0,16,0,1,,,,,,,,,
294580,2022-09-21_13h48.35.296,vts_reward_expectancy,2022.2.4,MacIntel,60.0024001,Chrome,1280,800,,,,,1,866,,,,,,,,,,,,,,,,,160,S,star,1,0,,,,,,,,,,,,,,,,repeat,number,numRpt,f,0.0338,noRew,,,,,,4,,,,,,,,high,17,0,17,0,1,,,,,,,,,
294580,2022-09-21_13h48.35.296,vts_reward_expectancy,2022.2.4,MacIntel,60.0024001,Chrome,1280,800,,,,,0,866,,,,,,,,,,,,,,,,,132,D,hexagon,0,0,,,,,,,,,,,,,,,,repeat,number,NA,f,0.347,noRew,,,,,,4,,,,,,,,high,18,0,18,0,1,,,,,,,,,
294580,2022-09-21_13h48.35.296,vts_reward_expectancy,2022.2.4,MacIntel,60.0024001,Chrome,1280,800,,,,,0,866,,,,,,,,,,,,,,,,,146,F,star,0,1,,,,,,,,,,,,,,,,repeat,number,NA,f,0.3826,noRew,,,,,,4,,,,,,,,high,19,0,19,0,1,,,,,,,,,
294580,2022-09-21_13h48.35.296,vts_reward_expectancy,2022.2.4,MacIntel,60.0024001,Chrome,1280,800,,,,,10,876,,,,,,,,,,,,,,,,,167,Y,hexagon,1,1,,,,,,,,,,,,,,,,repeat,number,numRpt,f,0.2656,noRew,,,,,,4,,,,,,,,high,20,0,20,0,1,,,,,,,,,
294580,2022-09-21_13h48.35.296,vts_reward_expectancy,2022.2.4,MacIntel,60.0024001,Chrome,1280,800,,,,,0,876,,,,,,,,,,,,,,,,,125,U,star,0,0,,,,,,,,,,,,,,,,repeat,number,NA,f,0.2463,noRew,,,,,,4,,,,,,,,high,21,0,21,0,1,,,,,,,,,
294580,2022-09-21_13h48.35.296,vts_reward_expectancy,2022.2.4,MacIntel,60.0024001,Chrome,1280,800,,,,,0,876,,,,,,,,,,,,,,,,,139,W,hexagon,0,1,,,,,,,,,,,,,,,,repeat,number,NA,f,0.4278,noRew,,,,,,4,,,,,,,,high,22,0,22,0,1,,,,,,,,,
294580,2022-09-21_13h48.35.296,vts_reward_expectancy,2022.2.4,MacIntel,60.0024001,Chrome,1280,800,,,,,10,886,,,,,,,,,,,,,,,,,174,B,star,1,1,,,,,,,,,,,,,,,,repeat,number,numRpt,f,0.1467,noRew,,,,,,4,,,,,,,,high,23,0,23,0,1,,,,,,,,,
294580,2022-09-21_13h48.35.296,vts_reward_expectancy,2022.2.4,MacIntel,60.0024001,Chrome,1280,800,,,,,1,887,,,,,,,,,,,,,,,,,181,Y,star,1,0,,,,,,,,,,,,,,,,repeat,number,numRpt,f,0.4903,noRew,,,,,,4,,,,,,,,high,24,0,24,0,1,,,,,,,,,
294580,2022-09-21_13h48.35.296,vts_reward_expectancy,2022.2.4,MacIntel,60.0024001,Chrome,1280,800,,,,,10,897,,,,,,,,,,,,,,,,,167,S,hexagon,1,0,,,,,,,,,,,,,,,,repeat,number,numRpt,f,0.1134,noRew,,,,,,4,,,,,,,,high,25,0,25,0,1,,,,,,,,,
294580,2022-09-21_13h48.35.296,vts_reward_expectancy,2022.2.4,MacIntel,60.0024001,Chrome,1280,800,,,,,0,897,,,,,,,,,,,,,,,,,146,D,star,0,0,,,,,,,,,,,,,,,,repeat,number,NA,f,0.1955,noRew,,,,,,4,,,,,,,,high,26,0,26,0,1,,,,,,,,,
294580,2022-09-21_13h48.35.296,vts_reward_expectancy,2022.2.4,MacIntel,60.0024001,Chrome,1280,800,,,,,10,907,,,,,,,,,,,,,,,,,125,H,hexagon,1,1,,,,,,,,,,,,,,,,switch,letter,lettSwt,j,0.1371,noRew,,,,,,4,,,,,,,,high,27,0,27,0,1,,,,,,,,,
294580,2022-09-21_13h48.35.296,vts_reward_expectancy,2022.2.4,MacIntel,60.0024001,Chrome,1280,800,,,,,0,907,,,,,,,,,,,,,,,,,174,W,hexagon,1,0,,,,,,,,,,,,,,,,repeat,letter,lettRpt,k,0.2362,noRew,,,,,,4,,,,,,,,high,28,0,28,0,1,,,,,,,,,
294580,2022-09-21_13h48.35.296,vts_reward_expectancy,2022.2.4,MacIntel,60.0024001,Chrome,1280,800,,,,,0,907,,,,,,,,,,,,,,,,,132,U,star,0,0,,,,,,,,,,,,,,,,repeat,letter,NA,j,0.0483,noRew,,,,,,4,,,,,,,,high,29,0,29,0,1,,,,,,,,,
294580,2022-09-21_13h48.35.296,vts_reward_expectancy,2022.2.4,MacIntel,60.0024001,Chrome,1280,800,,,,,1,908,,,,,,,,,,,,,,,,,160,F,star,1,1,,,,,,,,,,,,,,,,repeat,letter,lettRpt,j,0.2823,noRew,,,,,,4,,,,,,,,high,30,0,30,0,1,,,,,,,,,
294580,2022-09-21_13h48.35.296,vts_reward_expectancy,2022.2.4,MacIntel,60.0024001,Chrome,1280,800,,,,,10,918,,,,,,,,,,,,,,,,,139,B,hexagon,1,0,,,,,,,,,,,,,,,,repeat,letter,lettRpt,j,0.1221,noRew,,,,,,4,,,,,,,,high,31,0,31,0,1,,,,,,,,,
294580,2022-09-21_13h48.35.296,vts_reward_expectancy,2022.2.4,MacIntel,60.0024001,Chrome,1280,800,,,,,0,918,,,,,,,,,,,,,,,,,167,F,star,0,0,,,,,,,,,,,,,,,,repeat,letter,NA,k,0.0003,noRew,,,,,,5,,,,,,space,5.5926,high,0,0,0,0,1,,,,,,,,,
294580,2022-09-21_13h48.35.296,vts_reward_expectancy,2022.2.4,MacIntel,60.0024001,Chrome,1280,800,,,,,0,918,,,,,,,,,,,,,,,,,125,H,hexagon,0,1,,,,,,,,,,,,,,,,repeat,letter,NA,k,0.3503,noRew,,,,,,5,,,,,,,,high,1,0,1,0,1,,,,,,,,,
294580,2022-09-21_13h48.35.296,vts_reward_expectancy,2022.2.4,MacIntel,60.0024001,Chrome,1280,800,,,,,0,918,,,,,,,,,,,,,,,,,160,B,star,0,1,,,,,,,,,,,,,,,,repeat,letter,NA,k,0.8839,noRew,,,,,,5,,,,,,,,high,2,0,2,0,1,,,,,,,,,
294580,2022-09-21_13h48.35.296,vts_reward_expectancy,2022.2.4,MacIntel,60.0024001,Chrome,1280,800,,,,,0,918,,,,,,,,,,,,,,,,,139,S,hexagon,0,1,,,,,,,,,,,,,,,,repeat,letter,NA,j,0.1309,noRew,,,,,,5,,,,,,,,high,3,0,3,0,1,,,,,,,,,
294580,2022-09-21_13h48.35.296,vts_reward_expectancy,2022.2.4,MacIntel,60.0024001,Chrome,1280,800,,,,,10,928,,,,,,,,,,,,,,,,,132,D,hexagon,1,1,,,,,,,,,,,,,,,,repeat,letter,lettRpt,j,0.0632,noRew,,,,,,5,,,,,,,,high,4,0,4,0,1,,,,,,,,,
294580,2022-09-21_13h48.35.296,vts_reward_expectancy,2022.2.4,MacIntel,60.0024001,Chrome,1280,800,,,,,0,928,,,,,,,,,,,,,,,,,174,W,star,0,0,,,,,,,,,,,,,,,,repeat,letter,NA,j,0.0002,noRew,,,,,,5,,,,,,,,high,5,0,5,0,1,,,,,,,,,
294580,2022-09-21_13h48.35.296,vts_reward_expectancy,2022.2.4,MacIntel,60.0024001,Chrome,1280,800,,,,,0,928,,,,,,,,,,,,,,,,,146,Y,hexagon,0,1,,,,,,,,,,,,,,,,repeat,letter,NA,j,0.0531,noRew,,,,,,5,,,,,,,,high,6,0,6,0,1,,,,,,,,,
294580,2022-09-21_13h48.35.296,vts_reward_expectancy,2022.2.4,MacIntel,60.0024001,Chrome,1280,800,,,,,1,929,,,,,,,,,,,,,,,,,181,U,star,1,1,,,,,,,,,,,,,,,,repeat,letter,lettRpt,k,0.3649,noRew,,,,,,5,,,,,,,,high,7,0,7,0,1,,,,,,,,,
294580,2022-09-21_13h48.35.296,vts_reward_expectancy,2022.2.4,MacIntel,60.0024001,Chrome,1280,800,,,,,0,929,,,,,,,,,,,,,,,,,167,F,star,0,0,,,,,,,,,,,,,,,,switch,number,NA,d,1.0211,noRew,,,,,,5,,,,,,,,high,8,0,8,0,1,,,,,,,,,
294580,2022-09-21_13h48.35.296,vts_reward_expectancy,2022.2.4,MacIntel,60.0024001,Chrome,1280,800,,,,,0,929,,,,,,,,,,,,,,,,,125,H,hexagon,1,1,,,,,,,,,,,,,,,,repeat,number,numRpt,d,0.162,noRew,,,,,,5,,,,,,,,high,9,0,9,0,1,,,,,,,,,
294580,2022-09-21_13h48.35.296,vts_reward_expectancy,2022.2.4,MacIntel,60.0024001,Chrome,1280,800,,,,,1,930,,,,,,,,,,,,,,,,,160,B,star,1,0,,,,,,,,,,,,,,,,repeat,number,numRpt,f,0.3311,noRew,,,,,,5,,,,,,,,high,10,0,10,0,1,,,,,,,,,
294580,2022-09-21_13h48.35.296,vts_reward_expectancy,2022.2.4,MacIntel,60.0024001,Chrome,1280,800,,,,,0,930,,,,,,,,,,,,,,,,,139,S,hexagon,0,0,,,,,,,,,,,,,,,,repeat,number,NA,f,0.2147,noRew,,,,,,5,,,,,,,,high,11,0,11,0,1,,,,,,,,,
294580,2022-09-21_13h48.35.296,vts_reward_expectancy,2022.2.4,MacIntel,60.0024001,Chrome,1280,800,,,,,0,930,,,,,,,,,,,,,,,,,132,D,hexagon,1,1,,,,,,,,,,,,,,,,repeat,number,numRpt,d,0.1316,noRew,,,,,,5,,,,,,,,high,12,0,12,0,1,,,,,,,,,
294580,2022-09-21_13h48.35.296,vts_reward_expectancy,2022.2.4,MacIntel,60.0024001,Chrome,1280,800,,,,,0,930,,,,,,,,,,,,,,,,,174,W,star,0,0,,,,,,,,,,,,,,,,repeat,number,NA,d,0.2966,noRew,,,,,,5,,,,,,,,high,13,0,13,0,1,,,,,,,,,
294580,2022-09-21_13h48.35.296,vts_reward_expectancy,2022.2.4,MacIntel,60.0024001,Chrome,1280,800,,,,,0,930,,,,,,,,,,,,,,,,,146,Y,hexagon,0,1,,,,,,,,,,,,,,,,repeat,number,NA,f,0.0159,noRew,,,,,,5,,,,,,,,high,14,0,14,0,1,,,,,,,,,
294580,2022-09-21_13h48.35.296,vts_reward_expectancy,2022.2.4,MacIntel,60.0024001,Chrome,1280,800,,,,,0,930,,,,,,,,,,,,,,,,,181,U,star,0,1,,,,,,,,,,,,,,,,repeat,number,NA,d,0.0862,noRew,,,,,,5,,,,,,,,high,15,0,15,0,1,,,,,,,,,
294580,2022-09-21_13h48.35.296,vts_reward_expectancy,2022.2.4,MacIntel,60.0024001,Chrome,1280,800,,,,,1,931,,,,,,,,,,,,,,,,,146,S,star,1,1,,,,,,,,,,,,,,,,repeat,number,numRpt,d,0.0311,noRew,,,,,,5,,,,,,,,high,16,0,16,0,1,,,,,,,,,
294580,2022-09-21_13h48.35.296,vts_reward_expectancy,2022.2.4,MacIntel,60.0024001,Chrome,1280,800,,,,,0,931,,,,,,,,,,,,,,,,,132,D,hexagon,0,0,,,,,,,,,,,,,,,,repeat,number,NA,f,0.0218,noRew,,,,,,5,,,,,,,,high,17,0,17,0,1,,,,,,,,,
294580,2022-09-21_13h48.35.296,vts_reward_expectancy,2022.2.4,MacIntel,60.0024001,Chrome,1280,800,,,,,1,932,,,,,,,,,,,,,,,,,181,B,star,1,1,,,,,,,,,,,,,,,,repeat,number,numRpt,f,0.046,noRew,,,,,,5,,,,,,,,high,18,0,18,0,1,,,,,,,,,
294580,2022-09-21_13h48.35.296,vts_reward_expectancy,2022.2.4,MacIntel,60.0024001,Chrome,1280,800,,,,,0,932,,,,,,,,,,,,,,,,,174,F,hexagon,0,0,,,,,,,,,,,,,,,,repeat,number,NA,d,0.713,noRew,,,,,,5,,,,,,,,high,19,0,19,0,1,,,,,,,,,
294580,2022-09-21_13h48.35.296,vts_reward_expectancy,2022.2.4,MacIntel,60.0024001,Chrome,1280,800,,,,,0,932,,,,,,,,,,,,,,,,,125,W,hexagon,1,1,,,,,,,,,,,,,,,,repeat,number,numRpt,d,0.3789,noRew,,,,,,5,,,,,,,,high,20,0,20,0,1,,,,,,,,,
294580,2022-09-21_13h48.35.296,vts_reward_expectancy,2022.2.4,MacIntel,60.0024001,Chrome,1280,800,,,,,10,942,,,,,,,,,,,,,,,,,167,H,star,1,0,,,,,,,,,,,,,,,,repeat,number,numRpt,f,0.0002,noRew,,,,,,5,,,,,,,,high,21,0,21,0,1,,,,,,,,,
294580,2022-09-21_13h48.35.296,vts_reward_expectancy,2022.2.4,MacIntel,60.0024001,Chrome,1280,800,,,,,0,942,,,,,,,,,,,,,,,,,160,U,star,0,0,,,,,,,,,,,,,,,,repeat,number,NA,d,0.0462,noRew,,,,,,5,,,,,,,,high,22,0,22,0,1,,,,,,,,,
294580,2022-09-21_13h48.35.296,vts_reward_expectancy,2022.2.4,MacIntel,60.0024001,Chrome,1280,800,,,,,0,942,,,,,,,,,,,,,,,,,139,Y,hexagon,0,1,,,,,,,,,,,,,,,,repeat,number,NA,f,0.0676,noRew,,,,,,5,,,,,,,,high,23,0,23,0,1,,,,,,,,,
294580,2022-09-21_13h48.35.296,vts_reward_expectancy,2022.2.4,MacIntel,60.0024001,Chrome,1280,800,,,,,0,942,,,,,,,,,,,,,,,,,132,F,hexagon,1,1,,,,,,,,,,,,,,,,repeat,number,numRpt,d,0.15,noRew,,,,,,5,,,,,,,,high,24,0,24,0,1,,,,,,,,,
294580,2022-09-21_13h48.35.296,vts_reward_expectancy,2022.2.4,MacIntel,60.0024001,Chrome,1280,800,,,,,1,943,,,,,,,,,,,,,,,,,139,B,star,1,0,,,,,,,,,,,,,,,,repeat,number,numRpt,d,0.0045,noRew,,,,,,5,,,,,,,,high,25,0,25,0,1,,,,,,,,,
294580,2022-09-21_13h48.35.296,vts_reward_expectancy,2022.2.4,MacIntel,60.0024001,Chrome,1280,800,,,,,1,944,,,,,,,,,,,,,,,,,160,U,star,1,0,,,,,,,,,,,,,,,,repeat,number,numRpt,f,0.0457,noRew,,,,,,5,,,,,,,,high,26,0,26,0,1,,,,,,,,,
294580,2022-09-21_13h48.35.296,vts_reward_expectancy,2022.2.4,MacIntel,60.0024001,Chrome,1280,800,,,,,0,944,,,,,,,,,,,,,,,,,167,S,hexagon,0,0,,,,,,,,,,,,,,,,repeat,number,NA,d,0.0968,noRew,,,,,,5,,,,,,,,high,27,0,27,0,1,,,,,,,,,
294580,2022-09-21_13h48.35.296,vts_reward_expectancy,2022.2.4,MacIntel,60.0024001,Chrome,1280,800,,,,,1,945,,,,,,,,,,,,,,,,,174,W,star,1,1,,,,,,,,,,,,,,,,repeat,number,numRpt,f,0.1637,noRew,,,,,,5,,,,,,,,high,28,0,28,0,1,,,,,,,,,
294580,2022-09-21_13h48.35.296,vts_reward_expectancy,2022.2.4,MacIntel,60.0024001,Chrome,1280,800,,,,,0,945,,,,,,,,,,,,,,,,,125,D,hexagon,0,0,,,,,,,,,,,,,,,,repeat,number,NA,f,0.0004,noRew,,,,,,5,,,,,,,,high,29,0,29,0,1,,,,,,,,,
294580,2022-09-21_13h48.35.296,vts_reward_expectancy,2022.2.4,MacIntel,60.0024001,Chrome,1280,800,,,,,0,945,,,,,,,,,,,,,,,,,146,Y,star,0,1,,,,,,,,,,,,,,,,repeat,number,NA,f,0.0003,noRew,,,,,,5,,,,,,,,high,30,0,30,0,1,,,,,,,,,
294580,2022-09-21_13h48.35.296,vts_reward_expectancy,2022.2.4,MacIntel,60.0024001,Chrome,1280,800,,,,,0,945,,,,,,,,,,,,,,,,,181,H,hexagon,0,1,,,,,,,,,,,,,,,,repeat,number,NA,d,0.0453,noRew,,,,,,5,,,,,,,,high,31,0,31,0,1,,,,,,,,,
294580,2022-09-21_13h48.35.296,vts_reward_expectancy,2022.2.4,MacIntel,60.0024001,Chrome,1280,800,,,,,,,,,,,,,,,,,,,,,,,,,,,,,,,,,,,,,,,,,,,,,,,,,,,,,,6,,,,,,,,,,,,,,"I was asked to chose to either click the keys based on the shape, number, or letter",2,every part,3,1,,2,1280,800
