participant,date,expName,psychopyVersion,OS,frameRate,browser,xResolution,yResolution,key_resp.keys,key_resp.rt,training_resp.keys,training_resp.rt,points_trial,points_cumul,trainBlock,training.thisRepN,training.thisTrialN,training.thisN,training.thisIndex,training.ran,LTriangleOpac,LCircleOpac,LHexagonOpac,LStarOpac,RTriangleOpac,RCircleOpac,RHexagonOpac,RStarOpac,LShape_ID,RShape_ID,curr_topStim,curr_bottStim,curr_shape,acc,E1,target_resp_prac1.keys,target_resp_prac1.rt,pracBlock,task1_prac_trials.thisRepN,task1_prac_trials.thisTrialN,task1_prac_trials.thisN,task1_prac_trials.thisIndex,task1_prac_trials.ran,target_resp_prac2.keys,target_resp_prac2.rt,task2_praac_trials.thisRepN,task2_praac_trials.thisTrialN,task2_praac_trials.thisN,task2_praac_trials.thisIndex,task2_praac_trials.ran,alt,task,condition,target_resp.keys,rewCond,vts_practice_trials.thisRepN,vts_practice_trials.thisTrialN,vts_practice_trials.thisN,vts_practice_trials.thisIndex,vts_practice_trials.ran,target_resp.rt,blockNum,trials_norew.thisRepN,trials_norew.thisTrialN,trials_norew.thisN,trials_norew.thisIndex,trials_norew.ran,key_resp_2.keys,key_resp_2.rt,rewExpect,trials_rew.thisRepN,trials_rew.thisTrialN,trials_rew.thisN,trials_rew.thisIndex,trials_rew.ran,Q1,Q2,Q2_text,Q3,Q4,Q5_text,Q5,xRes,yRes
294208,2022-09-24_11h38.34.053,vts_reward_expectancy,2022.2.4,Win32,60.04202942,Chrome,1504,1003,,,,,,,,,,,,,,,,,,,,,,,,,,,,,,,,,,,,,,,,,,,,,,,,,,,,,,,,,,,,,,,,,,,,,,,,,,,,
294208,2022-09-24_11h38.34.053,vts_reward_expectancy,2022.2.4,Win32,60.04202942,Chrome,1504,1003,space,15.6808,,,,,,,,,,,,,,,,,,,,,,,,,,,,,,,,,,,,,,,,,,,,,,,,,,,,,,,,,,,,,,,,,,,,,,,,,,
294208,2022-09-24_11h38.34.053,vts_reward_expectancy,2022.2.4,Win32,60.04202942,Chrome,1504,1003,,,,,,,,,,,,,,,,,,,,,,,,,,,,,,,,,,,,,,,,,,,,,,,,,,,,,,,,,,,,,,,,,,,,,,,,,,,,
294208,2022-09-24_11h38.34.053,vts_reward_expectancy,2022.2.4,Win32,60.04202942,Chrome,1504,1003,,,a,1.4606,1,1,0,0,0,0,1,1,1,0,0,0,0,0,1,0,triangle,hexagon,,,,,,,,,,,,,,,,,,,,,,,,,,,,,,,,,,,,,,,,,,,,,,,,,,,,,,
294208,2022-09-24_11h38.34.053,vts_reward_expectancy,2022.2.4,Win32,60.04202942,Chrome,1504,1003,,,a,1.3939,10,11,0,0,1,1,7,1,0,0,1,0,0,1,0,0,hexagon,circle,,,,,,,,,,,,,,,,,,,,,,,,,,,,,,,,,,,,,,,,,,,,,,,,,,,,,,
294208,2022-09-24_11h38.34.053,vts_reward_expectancy,2022.2.4,Win32,60.04202942,Chrome,1504,1003,,,l,1.939,1,12,0,0,2,2,11,1,0,0,0,1,0,0,1,0,star,hexagon,,,,,,,,,,,,,,,,,,,,,,,,,,,,,,,,,,,,,,,,,,,,,,,,,,,,,,
294208,2022-09-24_11h38.34.053,vts_reward_expectancy,2022.2.4,Win32,60.04202942,Chrome,1504,1003,,,l,1.2223,1,13,0,0,3,3,5,1,0,1,0,0,0,0,0,1,circle,star,,,,,,,,,,,,,,,,,,,,,,,,,,,,,,,,,,,,,,,,,,,,,,,,,,,,,,
294208,2022-09-24_11h38.34.053,vts_reward_expectancy,2022.2.4,Win32,60.04202942,Chrome,1504,1003,,,l,1.5292,10,23,0,0,4,4,3,1,0,1,0,0,1,0,0,0,circle,triangle,,,,,,,,,,,,,,,,,,,,,,,,,,,,,,,,,,,,,,,,,,,,,,,,,,,,,,
294208,2022-09-24_11h38.34.053,vts_reward_expectancy,2022.2.4,Win32,60.04202942,Chrome,1504,1003,,,a,1.2806,10,33,0,0,5,5,10,1,0,0,0,1,0,1,0,0,star ,circle,,,,,,,,,,,,,,,,,,,,,,,,,,,,,,,,,,,,,,,,,,,,,,,,,,,,,,
294208,2022-09-24_11h38.34.053,vts_reward_expectancy,2022.2.4,Win32,60.04202942,Chrome,1504,1003,,,l,1.7356,1,34,0,0,6,6,2,1,1,0,0,0,0,0,0,1,triangle,star,,,,,,,,,,,,,,,,,,,,,,,,,,,,,,,,,,,,,,,,,,,,,,,,,,,,,,
294208,2022-09-24_11h38.34.053,vts_reward_expectancy,2022.2.4,Win32,60.04202942,Chrome,1504,1003,,,a,1.5786,10,44,0,0,7,7,0,1,1,0,0,0,0,1,0,0,triangle,circle,,,,,,,,,,,,,,,,,,,,,,,,,,,,,,,,,,,,,,,,,,,,,,,,,,,,,,
294208,2022-09-24_11h38.34.053,vts_reward_expectancy,2022.2.4,Win32,60.04202942,Chrome,1504,1003,,,a,1.0739,1,45,0,0,8,8,6,1,0,0,1,0,1,0,0,0,hexagon,triangle,,,,,,,,,,,,,,,,,,,,,,,,,,,,,,,,,,,,,,,,,,,,,,,,,,,,,,
294208,2022-09-24_11h38.34.053,vts_reward_expectancy,2022.2.4,Win32,60.04202942,Chrome,1504,1003,,,a,1.4055,1,46,0,0,9,9,8,1,0,0,1,0,0,0,0,1,hexagon,star,,,,,,,,,,,,,,,,,,,,,,,,,,,,,,,,,,,,,,,,,,,,,,,,,,,,,,
294208,2022-09-24_11h38.34.053,vts_reward_expectancy,2022.2.4,Win32,60.04202942,Chrome,1504,1003,,,l,0.974,10,56,0,0,10,10,4,1,0,1,0,0,0,0,1,0,circle,hexagon,,,,,,,,,,,,,,,,,,,,,,,,,,,,,,,,,,,,,,,,,,,,,,,,,,,,,,
294208,2022-09-24_11h38.34.053,vts_reward_expectancy,2022.2.4,Win32,60.04202942,Chrome,1504,1003,,,a,2.306599999,1,57,0,0,11,11,9,1,0,0,0,1,1,0,0,0,star,triangle,,,,,,,,,,,,,,,,,,,,,,,,,,,,,,,,,,,,,,,,,,,,,,,,,,,,,,
294208,2022-09-24_11h38.34.053,vts_reward_expectancy,2022.2.4,Win32,60.04202942,Chrome,1504,1003,,,a,0.8987,1,58,0,1,0,12,6,1,0,0,1,0,1,0,0,0,hexagon,triangle,,,,,,,,,,,,,,,,,,,,,,,,,,,,,,,,,,,,,,,,,,,,,,,,,,,,,,
294208,2022-09-24_11h38.34.053,vts_reward_expectancy,2022.2.4,Win32,60.04202942,Chrome,1504,1003,,,l,1.0138,10,68,0,1,1,13,11,1,0,0,0,1,0,0,1,0,star,hexagon,,,,,,,,,,,,,,,,,,,,,,,,,,,,,,,,,,,,,,,,,,,,,,,,,,,,,,
294208,2022-09-24_11h38.34.053,vts_reward_expectancy,2022.2.4,Win32,60.04202942,Chrome,1504,1003,,,l,1.5515,10,78,0,1,2,14,3,1,0,1,0,0,1,0,0,0,circle,triangle,,,,,,,,,,,,,,,,,,,,,,,,,,,,,,,,,,,,,,,,,,,,,,,,,,,,,,
294208,2022-09-24_11h38.34.053,vts_reward_expectancy,2022.2.4,Win32,60.04202942,Chrome,1504,1003,,,a,0.940900001,1,79,0,1,3,15,7,1,0,0,1,0,0,1,0,0,hexagon,circle,,,,,,,,,,,,,,,,,,,,,,,,,,,,,,,,,,,,,,,,,,,,,,,,,,,,,,
294208,2022-09-24_11h38.34.053,vts_reward_expectancy,2022.2.4,Win32,60.04202942,Chrome,1504,1003,,,a,1.042,10,89,0,1,4,16,1,1,1,0,0,0,0,0,1,0,triangle,hexagon,,,,,,,,,,,,,,,,,,,,,,,,,,,,,,,,,,,,,,,,,,,,,,,,,,,,,,
294208,2022-09-24_11h38.34.053,vts_reward_expectancy,2022.2.4,Win32,60.04202942,Chrome,1504,1003,,,a,0.6062,10,99,0,1,5,17,10,1,0,0,0,1,0,1,0,0,star ,circle,,,,,,,,,,,,,,,,,,,,,,,,,,,,,,,,,,,,,,,,,,,,,,,,,,,,,,
294208,2022-09-24_11h38.34.053,vts_reward_expectancy,2022.2.4,Win32,60.04202942,Chrome,1504,1003,,,a,0.6913,1,100,0,1,6,18,8,1,0,0,1,0,0,0,0,1,hexagon,star,,,,,,,,,,,,,,,,,,,,,,,,,,,,,,,,,,,,,,,,,,,,,,,,,,,,,,
294208,2022-09-24_11h38.34.053,vts_reward_expectancy,2022.2.4,Win32,60.04202942,Chrome,1504,1003,,,l,1.0979,1,101,0,1,7,19,4,1,0,1,0,0,0,0,1,0,circle,hexagon,,,,,,,,,,,,,,,,,,,,,,,,,,,,,,,,,,,,,,,,,,,,,,,,,,,,,,
294208,2022-09-24_11h38.34.053,vts_reward_expectancy,2022.2.4,Win32,60.04202942,Chrome,1504,1003,,,l,1.4405,1,102,0,1,8,20,2,1,1,0,0,0,0,0,0,1,triangle,star,,,,,,,,,,,,,,,,,,,,,,,,,,,,,,,,,,,,,,,,,,,,,,,,,,,,,,
294208,2022-09-24_11h38.34.053,vts_reward_expectancy,2022.2.4,Win32,60.04202942,Chrome,1504,1003,,,l,1.6064,1,103,0,1,9,21,0,1,1,0,0,0,0,1,0,0,triangle,circle,,,,,,,,,,,,,,,,,,,,,,,,,,,,,,,,,,,,,,,,,,,,,,,,,,,,,,
294208,2022-09-24_11h38.34.053,vts_reward_expectancy,2022.2.4,Win32,60.04202942,Chrome,1504,1003,,,a,1.3977,1,104,0,1,10,22,9,1,0,0,0,1,1,0,0,0,star,triangle,,,,,,,,,,,,,,,,,,,,,,,,,,,,,,,,,,,,,,,,,,,,,,,,,,,,,,
294208,2022-09-24_11h38.34.053,vts_reward_expectancy,2022.2.4,Win32,60.04202942,Chrome,1504,1003,,,a,0.873299999,10,114,0,1,11,23,5,1,0,1,0,0,0,0,0,1,circle,star,,,,,,,,,,,,,,,,,,,,,,,,,,,,,,,,,,,,,,,,,,,,,,,,,,,,,,
294208,2022-09-24_11h38.34.053,vts_reward_expectancy,2022.2.4,Win32,60.04202942,Chrome,1504,1003,,,l,0.9133,10,124,0,2,0,24,2,1,1,0,0,0,0,0,0,1,triangle,star,,,,,,,,,,,,,,,,,,,,,,,,,,,,,,,,,,,,,,,,,,,,,,,,,,,,,,
294208,2022-09-24_11h38.34.053,vts_reward_expectancy,2022.2.4,Win32,60.04202942,Chrome,1504,1003,,,l,1.0367,10,134,0,2,1,25,3,1,0,1,0,0,1,0,0,0,circle,triangle,,,,,,,,,,,,,,,,,,,,,,,,,,,,,,,,,,,,,,,,,,,,,,,,,,,,,,
294208,2022-09-24_11h38.34.053,vts_reward_expectancy,2022.2.4,Win32,60.04202942,Chrome,1504,1003,,,a,1.3743,1,135,0,2,2,26,9,1,0,0,0,1,1,0,0,0,star,triangle,,,,,,,,,,,,,,,,,,,,,,,,,,,,,,,,,,,,,,,,,,,,,,,,,,,,,,
294208,2022-09-24_11h38.34.053,vts_reward_expectancy,2022.2.4,Win32,60.04202942,Chrome,1504,1003,,,a,0.6156,1,136,0,2,3,27,7,1,0,0,1,0,0,1,0,0,hexagon,circle,,,,,,,,,,,,,,,,,,,,,,,,,,,,,,,,,,,,,,,,,,,,,,,,,,,,,,
294208,2022-09-24_11h38.34.053,vts_reward_expectancy,2022.2.4,Win32,60.04202942,Chrome,1504,1003,,,l,0.608,10,146,0,2,4,28,5,1,0,1,0,0,0,0,0,1,circle,star,,,,,,,,,,,,,,,,,,,,,,,,,,,,,,,,,,,,,,,,,,,,,,,,,,,,,,
294208,2022-09-24_11h38.34.053,vts_reward_expectancy,2022.2.4,Win32,60.04202942,Chrome,1504,1003,,,a,0.4074,1,147,0,2,5,29,8,1,0,0,1,0,0,0,0,1,hexagon,star,,,,,,,,,,,,,,,,,,,,,,,,,,,,,,,,,,,,,,,,,,,,,,,,,,,,,,
294208,2022-09-24_11h38.34.053,vts_reward_expectancy,2022.2.4,Win32,60.04202942,Chrome,1504,1003,,,l,0.2229,1,148,0,2,6,30,1,1,1,0,0,0,0,0,1,0,triangle,hexagon,,,,,,,,,,,,,,,,,,,,,,,,,,,,,,,,,,,,,,,,,,,,,,,,,,,,,,
294208,2022-09-24_11h38.34.053,vts_reward_expectancy,2022.2.4,Win32,60.04202942,Chrome,1504,1003,,,a,0.6249,1,149,0,2,7,31,0,1,1,0,0,0,0,1,0,0,triangle,circle,,,,,,,,,,,,,,,,,,,,,,,,,,,,,,,,,,,,,,,,,,,,,,,,,,,,,,
294208,2022-09-24_11h38.34.053,vts_reward_expectancy,2022.2.4,Win32,60.04202942,Chrome,1504,1003,,,l,0.8062,10,159,0,2,8,32,11,1,0,0,0,1,0,0,1,0,star,hexagon,,,,,,,,,,,,,,,,,,,,,,,,,,,,,,,,,,,,,,,,,,,,,,,,,,,,,,
294208,2022-09-24_11h38.34.053,vts_reward_expectancy,2022.2.4,Win32,60.04202942,Chrome,1504,1003,,,l,0.2143,10,169,0,2,9,33,6,1,0,0,1,0,1,0,0,0,hexagon,triangle,,,,,,,,,,,,,,,,,,,,,,,,,,,,,,,,,,,,,,,,,,,,,,,,,,,,,,
294208,2022-09-24_11h38.34.053,vts_reward_expectancy,2022.2.4,Win32,60.04202942,Chrome,1504,1003,,,l,0.2832,10,179,0,2,10,34,4,1,0,1,0,0,0,0,1,0,circle,hexagon,,,,,,,,,,,,,,,,,,,,,,,,,,,,,,,,,,,,,,,,,,,,,,,,,,,,,,
294208,2022-09-24_11h38.34.053,vts_reward_expectancy,2022.2.4,Win32,60.04202942,Chrome,1504,1003,,,a,0.256,10,189,0,2,11,35,10,1,0,0,0,1,0,1,0,0,star ,circle,,,,,,,,,,,,,,,,,,,,,,,,,,,,,,,,,,,,,,,,,,,,,,,,,,,,,,
294208,2022-09-24_11h38.34.053,vts_reward_expectancy,2022.2.4,Win32,60.04202942,Chrome,1504,1003,,,a,1.8014,1,190,1,0,0,0,8,1,0,0,1,0,0,0,0,1,hexagon,star,,,,,,,,,,,,,,,,,,,,,,,,,,,,,,,,,,,,,,,,,,,,,,,,,,,,,,
294208,2022-09-24_11h38.34.053,vts_reward_expectancy,2022.2.4,Win32,60.04202942,Chrome,1504,1003,,,l,0.2426,10,200,1,0,1,1,7,1,0,0,1,0,0,1,0,0,hexagon,circle,,,,,,,,,,,,,,,,,,,,,,,,,,,,,,,,,,,,,,,,,,,,,,,,,,,,,,
294208,2022-09-24_11h38.34.053,vts_reward_expectancy,2022.2.4,Win32,60.04202942,Chrome,1504,1003,,,a,0.782900001,10,210,1,0,2,2,2,1,1,0,0,0,0,0,0,1,triangle,star,,,,,,,,,,,,,,,,,,,,,,,,,,,,,,,,,,,,,,,,,,,,,,,,,,,,,,
294208,2022-09-24_11h38.34.053,vts_reward_expectancy,2022.2.4,Win32,60.04202942,Chrome,1504,1003,,,l,1.2862,10,220,1,0,3,3,9,1,0,0,0,1,1,0,0,0,star,triangle,,,,,,,,,,,,,,,,,,,,,,,,,,,,,,,,,,,,,,,,,,,,,,,,,,,,,,
294208,2022-09-24_11h38.34.053,vts_reward_expectancy,2022.2.4,Win32,60.04202942,Chrome,1504,1003,,,l,1.243200001,10,230,1,0,4,4,10,1,0,0,0,1,0,1,0,0,star ,circle,,,,,,,,,,,,,,,,,,,,,,,,,,,,,,,,,,,,,,,,,,,,,,,,,,,,,,
294208,2022-09-24_11h38.34.053,vts_reward_expectancy,2022.2.4,Win32,60.04202942,Chrome,1504,1003,,,l,1.1034,1,231,1,0,5,5,6,1,0,0,1,0,1,0,0,0,hexagon,triangle,,,,,,,,,,,,,,,,,,,,,,,,,,,,,,,,,,,,,,,,,,,,,,,,,,,,,,
294208,2022-09-24_11h38.34.053,vts_reward_expectancy,2022.2.4,Win32,60.04202942,Chrome,1504,1003,,,l,23.8507,1,232,1,0,6,6,1,1,1,0,0,0,0,0,1,0,triangle,hexagon,,,,,,,,,,,,,,,,,,,,,,,,,,,,,,,,,,,,,,,,,,,,,,,,,,,,,,
294208,2022-09-24_11h38.34.053,vts_reward_expectancy,2022.2.4,Win32,60.04202942,Chrome,1504,1003,,,a,0.2279,1,233,1,0,7,7,11,1,0,0,0,1,0,0,1,0,star,hexagon,,,,,,,,,,,,,,,,,,,,,,,,,,,,,,,,,,,,,,,,,,,,,,,,,,,,,,
294208,2022-09-24_11h38.34.053,vts_reward_expectancy,2022.2.4,Win32,60.04202942,Chrome,1504,1003,,,a,1.265900001,10,243,1,0,8,8,4,1,0,1,0,0,0,0,1,0,circle,hexagon,,,,,,,,,,,,,,,,,,,,,,,,,,,,,,,,,,,,,,,,,,,,,,,,,,,,,,
294208,2022-09-24_11h38.34.053,vts_reward_expectancy,2022.2.4,Win32,60.04202942,Chrome,1504,1003,,,l,0.7187,10,253,1,0,9,9,0,1,1,0,0,0,0,1,0,0,triangle,circle,,,,,,,,,,,,,,,,,,,,,,,,,,,,,,,,,,,,,,,,,,,,,,,,,,,,,,
294208,2022-09-24_11h38.34.053,vts_reward_expectancy,2022.2.4,Win32,60.04202942,Chrome,1504,1003,,,a,0.6119,10,263,1,0,10,10,3,1,0,1,0,0,1,0,0,0,circle,triangle,,,,,,,,,,,,,,,,,,,,,,,,,,,,,,,,,,,,,,,,,,,,,,,,,,,,,,
294208,2022-09-24_11h38.34.053,vts_reward_expectancy,2022.2.4,Win32,60.04202942,Chrome,1504,1003,,,a,0.908099999,10,273,1,0,11,11,5,1,0,1,0,0,0,0,0,1,circle,star,,,,,,,,,,,,,,,,,,,,,,,,,,,,,,,,,,,,,,,,,,,,,,,,,,,,,,
294208,2022-09-24_11h38.34.053,vts_reward_expectancy,2022.2.4,Win32,60.04202942,Chrome,1504,1003,,,a,0.6753,10,283,1,1,0,12,3,1,0,1,0,0,1,0,0,0,circle,triangle,,,,,,,,,,,,,,,,,,,,,,,,,,,,,,,,,,,,,,,,,,,,,,,,,,,,,,
294208,2022-09-24_11h38.34.053,vts_reward_expectancy,2022.2.4,Win32,60.04202942,Chrome,1504,1003,,,a,0.9436,1,284,1,1,1,13,6,1,0,0,1,0,1,0,0,0,hexagon,triangle,,,,,,,,,,,,,,,,,,,,,,,,,,,,,,,,,,,,,,,,,,,,,,,,,,,,,,
294208,2022-09-24_11h38.34.053,vts_reward_expectancy,2022.2.4,Win32,60.04202942,Chrome,1504,1003,,,a,0.790400001,10,294,1,1,2,14,2,1,1,0,0,0,0,0,0,1,triangle,star,,,,,,,,,,,,,,,,,,,,,,,,,,,,,,,,,,,,,,,,,,,,,,,,,,,,,,
294208,2022-09-24_11h38.34.053,vts_reward_expectancy,2022.2.4,Win32,60.04202942,Chrome,1504,1003,,,l,1.5607,1,295,1,1,3,15,8,1,0,0,1,0,0,0,0,1,hexagon,star,,,,,,,,,,,,,,,,,,,,,,,,,,,,,,,,,,,,,,,,,,,,,,,,,,,,,,
294208,2022-09-24_11h38.34.053,vts_reward_expectancy,2022.2.4,Win32,60.04202942,Chrome,1504,1003,,,l,0.9276,10,305,1,1,4,16,10,1,0,0,0,1,0,1,0,0,star ,circle,,,,,,,,,,,,,,,,,,,,,,,,,,,,,,,,,,,,,,,,,,,,,,,,,,,,,,
294208,2022-09-24_11h38.34.053,vts_reward_expectancy,2022.2.4,Win32,60.04202942,Chrome,1504,1003,,,a,3.7004,1,306,1,1,5,17,7,1,0,0,1,0,0,1,0,0,hexagon,circle,,,,,,,,,,,,,,,,,,,,,,,,,,,,,,,,,,,,,,,,,,,,,,,,,,,,,,
294208,2022-09-24_11h38.34.053,vts_reward_expectancy,2022.2.4,Win32,60.04202942,Chrome,1504,1003,,,a,1.3427,10,316,1,1,6,18,9,1,0,0,0,1,1,0,0,0,star,triangle,,,,,,,,,,,,,,,,,,,,,,,,,,,,,,,,,,,,,,,,,,,,,,,,,,,,,,
294208,2022-09-24_11h38.34.053,vts_reward_expectancy,2022.2.4,Win32,60.04202942,Chrome,1504,1003,,,l,0.9513,1,317,1,1,7,19,0,1,1,0,0,0,0,1,0,0,triangle,circle,,,,,,,,,,,,,,,,,,,,,,,,,,,,,,,,,,,,,,,,,,,,,,,,,,,,,,
294208,2022-09-24_11h38.34.053,vts_reward_expectancy,2022.2.4,Win32,60.04202942,Chrome,1504,1003,,,l,0.5918,10,327,1,1,8,20,1,1,1,0,0,0,0,0,1,0,triangle,hexagon,,,,,,,,,,,,,,,,,,,,,,,,,,,,,,,,,,,,,,,,,,,,,,,,,,,,,,
294208,2022-09-24_11h38.34.053,vts_reward_expectancy,2022.2.4,Win32,60.04202942,Chrome,1504,1003,,,a,1.043599999,10,337,1,1,9,21,4,1,0,1,0,0,0,0,1,0,circle,hexagon,,,,,,,,,,,,,,,,,,,,,,,,,,,,,,,,,,,,,,,,,,,,,,,,,,,,,,
294208,2022-09-24_11h38.34.053,vts_reward_expectancy,2022.2.4,Win32,60.04202942,Chrome,1504,1003,,,a,0.9341,1,338,1,1,10,22,5,1,0,1,0,0,0,0,0,1,circle,star,,,,,,,,,,,,,,,,,,,,,,,,,,,,,,,,,,,,,,,,,,,,,,,,,,,,,,
294208,2022-09-24_11h38.34.053,vts_reward_expectancy,2022.2.4,Win32,60.04202942,Chrome,1504,1003,,,l,0.559400001,10,348,1,1,11,23,11,1,0,0,0,1,0,0,1,0,star,hexagon,,,,,,,,,,,,,,,,,,,,,,,,,,,,,,,,,,,,,,,,,,,,,,,,,,,,,,
294208,2022-09-24_11h38.34.053,vts_reward_expectancy,2022.2.4,Win32,60.04202942,Chrome,1504,1003,,,l,0.6497,10,358,1,2,0,24,7,1,0,0,1,0,0,1,0,0,hexagon,circle,,,,,,,,,,,,,,,,,,,,,,,,,,,,,,,,,,,,,,,,,,,,,,,,,,,,,,
294208,2022-09-24_11h38.34.053,vts_reward_expectancy,2022.2.4,Win32,60.04202942,Chrome,1504,1003,,,l,0.5942,10,368,1,2,1,25,1,1,1,0,0,0,0,0,1,0,triangle,hexagon,,,,,,,,,,,,,,,,,,,,,,,,,,,,,,,,,,,,,,,,,,,,,,,,,,,,,,
294208,2022-09-24_11h38.34.053,vts_reward_expectancy,2022.2.4,Win32,60.04202942,Chrome,1504,1003,,,l,0.9433,10,378,1,2,2,26,10,1,0,0,0,1,0,1,0,0,star ,circle,,,,,,,,,,,,,,,,,,,,,,,,,,,,,,,,,,,,,,,,,,,,,,,,,,,,,,
294208,2022-09-24_11h38.34.053,vts_reward_expectancy,2022.2.4,Win32,60.04202942,Chrome,1504,1003,,,a,1.0032,1,379,1,2,3,27,11,1,0,0,0,1,0,0,1,0,star,hexagon,,,,,,,,,,,,,,,,,,,,,,,,,,,,,,,,,,,,,,,,,,,,,,,,,,,,,,
294208,2022-09-24_11h38.34.053,vts_reward_expectancy,2022.2.4,Win32,60.04202942,Chrome,1504,1003,,,a,0.7341,1,380,1,2,4,28,9,1,0,0,0,1,1,0,0,0,star,triangle,,,,,,,,,,,,,,,,,,,,,,,,,,,,,,,,,,,,,,,,,,,,,,,,,,,,,,
294208,2022-09-24_11h38.34.053,vts_reward_expectancy,2022.2.4,Win32,60.04202942,Chrome,1504,1003,,,a,0.7006,10,390,1,2,5,29,2,1,1,0,0,0,0,0,0,1,triangle,star,,,,,,,,,,,,,,,,,,,,,,,,,,,,,,,,,,,,,,,,,,,,,,,,,,,,,,
294208,2022-09-24_11h38.34.053,vts_reward_expectancy,2022.2.4,Win32,60.04202942,Chrome,1504,1003,,,l,0.6504,10,400,1,2,6,30,3,1,0,1,0,0,1,0,0,0,circle,triangle,,,,,,,,,,,,,,,,,,,,,,,,,,,,,,,,,,,,,,,,,,,,,,,,,,,,,,
294208,2022-09-24_11h38.34.053,vts_reward_expectancy,2022.2.4,Win32,60.04202942,Chrome,1504,1003,,,l,0.877,1,401,1,2,7,31,6,1,0,0,1,0,1,0,0,0,hexagon,triangle,,,,,,,,,,,,,,,,,,,,,,,,,,,,,,,,,,,,,,,,,,,,,,,,,,,,,,
294208,2022-09-24_11h38.34.053,vts_reward_expectancy,2022.2.4,Win32,60.04202942,Chrome,1504,1003,,,a,0.9175,10,411,1,2,8,32,4,1,0,1,0,0,0,0,1,0,circle,hexagon,,,,,,,,,,,,,,,,,,,,,,,,,,,,,,,,,,,,,,,,,,,,,,,,,,,,,,
294208,2022-09-24_11h38.34.053,vts_reward_expectancy,2022.2.4,Win32,60.04202942,Chrome,1504,1003,,,l,0.555599999,10,421,1,2,9,33,0,1,1,0,0,0,0,1,0,0,triangle,circle,,,,,,,,,,,,,,,,,,,,,,,,,,,,,,,,,,,,,,,,,,,,,,,,,,,,,,
294208,2022-09-24_11h38.34.053,vts_reward_expectancy,2022.2.4,Win32,60.04202942,Chrome,1504,1003,,,a,0.425599999,1,422,1,2,10,34,8,1,0,0,1,0,0,0,0,1,hexagon,star,,,,,,,,,,,,,,,,,,,,,,,,,,,,,,,,,,,,,,,,,,,,,,,,,,,,,,
294208,2022-09-24_11h38.34.053,vts_reward_expectancy,2022.2.4,Win32,60.04202942,Chrome,1504,1003,,,a,0.9,10,432,1,2,11,35,5,1,0,1,0,0,0,0,0,1,circle,star,,,,,,,,,,,,,,,,,,,,,,,,,,,,,,,,,,,,,,,,,,,,,,,,,,,,,,
294208,2022-09-24_11h38.34.053,vts_reward_expectancy,2022.2.4,Win32,60.04202942,Chrome,1504,1003,,,l,3.019700001,10,442,2,0,0,0,0,1,1,0,0,0,0,1,0,0,triangle,circle,,,,,,,,,,,,,,,,,,,,,,,,,,,,,,,,,,,,,,,,,,,,,,,,,,,,,,
294208,2022-09-24_11h38.34.053,vts_reward_expectancy,2022.2.4,Win32,60.04202942,Chrome,1504,1003,,,a,1.2604,1,443,2,0,1,1,9,1,0,0,0,1,1,0,0,0,star,triangle,,,,,,,,,,,,,,,,,,,,,,,,,,,,,,,,,,,,,,,,,,,,,,,,,,,,,,
294208,2022-09-24_11h38.34.053,vts_reward_expectancy,2022.2.4,Win32,60.04202942,Chrome,1504,1003,,,a,2.884599999,10,453,2,0,2,2,4,1,0,1,0,0,0,0,1,0,circle,hexagon,,,,,,,,,,,,,,,,,,,,,,,,,,,,,,,,,,,,,,,,,,,,,,,,,,,,,,
294208,2022-09-24_11h38.34.053,vts_reward_expectancy,2022.2.4,Win32,60.04202942,Chrome,1504,1003,,,a,0.8008,10,463,2,0,3,3,5,1,0,1,0,0,0,0,0,1,circle,star,,,,,,,,,,,,,,,,,,,,,,,,,,,,,,,,,,,,,,,,,,,,,,,,,,,,,,
294208,2022-09-24_11h38.34.053,vts_reward_expectancy,2022.2.4,Win32,60.04202942,Chrome,1504,1003,,,l,1.042099999,10,473,2,0,4,4,10,1,0,0,0,1,0,1,0,0,star ,circle,,,,,,,,,,,,,,,,,,,,,,,,,,,,,,,,,,,,,,,,,,,,,,,,,,,,,,
294208,2022-09-24_11h38.34.053,vts_reward_expectancy,2022.2.4,Win32,60.04202942,Chrome,1504,1003,,,l,0.553200001,1,474,2,0,5,5,11,1,0,0,0,1,0,0,1,0,star,hexagon,,,,,,,,,,,,,,,,,,,,,,,,,,,,,,,,,,,,,,,,,,,,,,,,,,,,,,
294208,2022-09-24_11h38.34.053,vts_reward_expectancy,2022.2.4,Win32,60.04202942,Chrome,1504,1003,,,a,0.4731,10,484,2,0,6,6,8,1,0,0,1,0,0,0,0,1,hexagon,star,,,,,,,,,,,,,,,,,,,,,,,,,,,,,,,,,,,,,,,,,,,,,,,,,,,,,,
294208,2022-09-24_11h38.34.053,vts_reward_expectancy,2022.2.4,Win32,60.04202942,Chrome,1504,1003,,,a,0.6329,10,494,2,0,7,7,6,1,0,0,1,0,1,0,0,0,hexagon,triangle,,,,,,,,,,,,,,,,,,,,,,,,,,,,,,,,,,,,,,,,,,,,,,,,,,,,,,
294208,2022-09-24_11h38.34.053,vts_reward_expectancy,2022.2.4,Win32,60.04202942,Chrome,1504,1003,,,l,0.8945,1,495,2,0,8,8,2,1,1,0,0,0,0,0,0,1,triangle,star,,,,,,,,,,,,,,,,,,,,,,,,,,,,,,,,,,,,,,,,,,,,,,,,,,,,,,
294208,2022-09-24_11h38.34.053,vts_reward_expectancy,2022.2.4,Win32,60.04202942,Chrome,1504,1003,,,a,0.8836,10,505,2,0,9,9,3,1,0,1,0,0,1,0,0,0,circle,triangle,,,,,,,,,,,,,,,,,,,,,,,,,,,,,,,,,,,,,,,,,,,,,,,,,,,,,,
294208,2022-09-24_11h38.34.053,vts_reward_expectancy,2022.2.4,Win32,60.04202942,Chrome,1504,1003,,,l,0.709400001,1,506,2,0,10,10,1,1,1,0,0,0,0,0,1,0,triangle,hexagon,,,,,,,,,,,,,,,,,,,,,,,,,,,,,,,,,,,,,,,,,,,,,,,,,,,,,,
294208,2022-09-24_11h38.34.053,vts_reward_expectancy,2022.2.4,Win32,60.04202942,Chrome,1504,1003,,,a,1.426700001,1,507,2,0,11,11,7,1,0,0,1,0,0,1,0,0,hexagon,circle,,,,,,,,,,,,,,,,,,,,,,,,,,,,,,,,,,,,,,,,,,,,,,,,,,,,,,
294208,2022-09-24_11h38.34.053,vts_reward_expectancy,2022.2.4,Win32,60.04202942,Chrome,1504,1003,,,l,2.8285,10,517,2,1,0,12,9,1,0,0,0,1,1,0,0,0,star,triangle,,,,,,,,,,,,,,,,,,,,,,,,,,,,,,,,,,,,,,,,,,,,,,,,,,,,,,
294208,2022-09-24_11h38.34.053,vts_reward_expectancy,2022.2.4,Win32,60.04202942,Chrome,1504,1003,,,l,0.8357,10,527,2,1,1,13,0,1,1,0,0,0,0,1,0,0,triangle,circle,,,,,,,,,,,,,,,,,,,,,,,,,,,,,,,,,,,,,,,,,,,,,,,,,,,,,,
294208,2022-09-24_11h38.34.053,vts_reward_expectancy,2022.2.4,Win32,60.04202942,Chrome,1504,1003,,,a,1.4106,10,537,2,1,2,14,5,1,0,1,0,0,0,0,0,1,circle,star,,,,,,,,,,,,,,,,,,,,,,,,,,,,,,,,,,,,,,,,,,,,,,,,,,,,,,
294208,2022-09-24_11h38.34.053,vts_reward_expectancy,2022.2.4,Win32,60.04202942,Chrome,1504,1003,,,a,0.9223,10,547,2,1,3,15,4,1,0,1,0,0,0,0,1,0,circle,hexagon,,,,,,,,,,,,,,,,,,,,,,,,,,,,,,,,,,,,,,,,,,,,,,,,,,,,,,
294208,2022-09-24_11h38.34.053,vts_reward_expectancy,2022.2.4,Win32,60.04202942,Chrome,1504,1003,,,l,0.5751,10,557,2,1,4,16,1,1,1,0,0,0,0,0,1,0,triangle,hexagon,,,,,,,,,,,,,,,,,,,,,,,,,,,,,,,,,,,,,,,,,,,,,,,,,,,,,,
294208,2022-09-24_11h38.34.053,vts_reward_expectancy,2022.2.4,Win32,60.04202942,Chrome,1504,1003,,,l,1.2443,10,567,2,1,5,17,10,1,0,0,0,1,0,1,0,0,star ,circle,,,,,,,,,,,,,,,,,,,,,,,,,,,,,,,,,,,,,,,,,,,,,,,,,,,,,,
294208,2022-09-24_11h38.34.053,vts_reward_expectancy,2022.2.4,Win32,60.04202942,Chrome,1504,1003,,,a,0.621,1,568,2,1,6,18,3,1,0,1,0,0,1,0,0,0,circle,triangle,,,,,,,,,,,,,,,,,,,,,,,,,,,,,,,,,,,,,,,,,,,,,,,,,,,,,,
294208,2022-09-24_11h38.34.053,vts_reward_expectancy,2022.2.4,Win32,60.04202942,Chrome,1504,1003,,,l,0.6675,1,569,2,1,7,19,2,1,1,0,0,0,0,0,0,1,triangle,star,,,,,,,,,,,,,,,,,,,,,,,,,,,,,,,,,,,,,,,,,,,,,,,,,,,,,,
294208,2022-09-24_11h38.34.053,vts_reward_expectancy,2022.2.4,Win32,60.04202942,Chrome,1504,1003,,,a,0.5441,10,579,2,1,8,20,6,1,0,0,1,0,1,0,0,0,hexagon,triangle,,,,,,,,,,,,,,,,,,,,,,,,,,,,,,,,,,,,,,,,,,,,,,,,,,,,,,
294208,2022-09-24_11h38.34.053,vts_reward_expectancy,2022.2.4,Win32,60.04202942,Chrome,1504,1003,,,l,0.5533,10,589,2,1,9,21,11,1,0,0,0,1,0,0,1,0,star,hexagon,,,,,,,,,,,,,,,,,,,,,,,,,,,,,,,,,,,,,,,,,,,,,,,,,,,,,,
294208,2022-09-24_11h38.34.053,vts_reward_expectancy,2022.2.4,Win32,60.04202942,Chrome,1504,1003,,,a,0.4522,1,590,2,1,10,22,8,1,0,0,1,0,0,0,0,1,hexagon,star,,,,,,,,,,,,,,,,,,,,,,,,,,,,,,,,,,,,,,,,,,,,,,,,,,,,,,
294208,2022-09-24_11h38.34.053,vts_reward_expectancy,2022.2.4,Win32,60.04202942,Chrome,1504,1003,,,l,0.401,10,600,2,1,11,23,7,1,0,0,1,0,0,1,0,0,hexagon,circle,,,,,,,,,,,,,,,,,,,,,,,,,,,,,,,,,,,,,,,,,,,,,,,,,,,,,,
294208,2022-09-24_11h38.34.053,vts_reward_expectancy,2022.2.4,Win32,60.04202942,Chrome,1504,1003,,,a,0.703,1,601,2,2,0,24,4,1,0,1,0,0,0,0,1,0,circle,hexagon,,,,,,,,,,,,,,,,,,,,,,,,,,,,,,,,,,,,,,,,,,,,,,,,,,,,,,
294208,2022-09-24_11h38.34.053,vts_reward_expectancy,2022.2.4,Win32,60.04202942,Chrome,1504,1003,,,l,0.5698,1,602,2,2,1,25,11,1,0,0,0,1,0,0,1,0,star,hexagon,,,,,,,,,,,,,,,,,,,,,,,,,,,,,,,,,,,,,,,,,,,,,,,,,,,,,,
294208,2022-09-24_11h38.34.053,vts_reward_expectancy,2022.2.4,Win32,60.04202942,Chrome,1504,1003,,,a,0.6428,10,612,2,2,2,26,6,1,0,0,1,0,1,0,0,0,hexagon,triangle,,,,,,,,,,,,,,,,,,,,,,,,,,,,,,,,,,,,,,,,,,,,,,,,,,,,,,
294208,2022-09-24_11h38.34.053,vts_reward_expectancy,2022.2.4,Win32,60.04202942,Chrome,1504,1003,,,a,0.4418,10,622,2,2,3,27,8,1,0,0,1,0,0,0,0,1,hexagon,star,,,,,,,,,,,,,,,,,,,,,,,,,,,,,,,,,,,,,,,,,,,,,,,,,,,,,,
294208,2022-09-24_11h38.34.053,vts_reward_expectancy,2022.2.4,Win32,60.04202942,Chrome,1504,1003,,,l,0.851,1,623,2,2,4,28,2,1,1,0,0,0,0,0,0,1,triangle,star,,,,,,,,,,,,,,,,,,,,,,,,,,,,,,,,,,,,,,,,,,,,,,,,,,,,,,
294208,2022-09-24_11h38.34.053,vts_reward_expectancy,2022.2.4,Win32,60.04202942,Chrome,1504,1003,,,l,0.582099999,10,633,2,2,5,29,0,1,1,0,0,0,0,1,0,0,triangle,circle,,,,,,,,,,,,,,,,,,,,,,,,,,,,,,,,,,,,,,,,,,,,,,,,,,,,,,
294208,2022-09-24_11h38.34.053,vts_reward_expectancy,2022.2.4,Win32,60.04202942,Chrome,1504,1003,,,l,0.8938,1,634,2,2,6,30,7,1,0,0,1,0,0,1,0,0,hexagon,circle,,,,,,,,,,,,,,,,,,,,,,,,,,,,,,,,,,,,,,,,,,,,,,,,,,,,,,
294208,2022-09-24_11h38.34.053,vts_reward_expectancy,2022.2.4,Win32,60.04202942,Chrome,1504,1003,,,a,1.9604,1,635,2,2,7,31,3,1,0,1,0,0,1,0,0,0,circle,triangle,,,,,,,,,,,,,,,,,,,,,,,,,,,,,,,,,,,,,,,,,,,,,,,,,,,,,,
294208,2022-09-24_11h38.34.053,vts_reward_expectancy,2022.2.4,Win32,60.04202942,Chrome,1504,1003,,,l,2.306,1,636,2,2,8,32,1,1,1,0,0,0,0,0,1,0,triangle,hexagon,,,,,,,,,,,,,,,,,,,,,,,,,,,,,,,,,,,,,,,,,,,,,,,,,,,,,,
294208,2022-09-24_11h38.34.053,vts_reward_expectancy,2022.2.4,Win32,60.04202942,Chrome,1504,1003,,,l,1.6187,10,646,2,2,9,33,10,1,0,0,0,1,0,1,0,0,star ,circle,,,,,,,,,,,,,,,,,,,,,,,,,,,,,,,,,,,,,,,,,,,,,,,,,,,,,,
294208,2022-09-24_11h38.34.053,vts_reward_expectancy,2022.2.4,Win32,60.04202942,Chrome,1504,1003,,,a,1.133,10,656,2,2,10,34,5,1,0,1,0,0,0,0,0,1,circle,star,,,,,,,,,,,,,,,,,,,,,,,,,,,,,,,,,,,,,,,,,,,,,,,,,,,,,,
294208,2022-09-24_11h38.34.053,vts_reward_expectancy,2022.2.4,Win32,60.04202942,Chrome,1504,1003,,,l,2.4258,10,666,2,2,11,35,9,1,0,0,0,1,1,0,0,0,star,triangle,,,,,,,,,,,,,,,,,,,,,,,,,,,,,,,,,,,,,,,,,,,,,,,,,,,,,,
294208,2022-09-24_11h38.34.053,vts_reward_expectancy,2022.2.4,Win32,60.04202942,Chrome,1504,1003,,,,,,,,,,,,,,,,,,,,,,,139,F,circle,1,0,d,1.967400001,0,0,0,0,0,1,,,,,,,,,,,,,,,,,,,,,,,,,,,,,,,,,,,,,,,,,
294208,2022-09-24_11h38.34.053,vts_reward_expectancy,2022.2.4,Win32,60.04202942,Chrome,1504,1003,,,,,,,,,,,,,,,,,,,,,,,181,D,triangle,1,0,f,1.0874,0,1,0,1,0,1,,,,,,,,,,,,,,,,,,,,,,,,,,,,,,,,,,,,,,,,,
294208,2022-09-24_11h38.34.053,vts_reward_expectancy,2022.2.4,Win32,60.04202942,Chrome,1504,1003,,,,,,,,,,,,,,,,,,,,,,,125,B,hexagon,1,0,d,0.667900001,0,2,0,2,0,1,,,,,,,,,,,,,,,,,,,,,,,,,,,,,,,,,,,,,,,,,
294208,2022-09-24_11h38.34.053,vts_reward_expectancy,2022.2.4,Win32,60.04202942,Chrome,1504,1003,,,,,,,,,,,,,,,,,,,,,,,146,U,star,1,0,d,0.8769,0,3,0,3,0,1,,,,,,,,,,,,,,,,,,,,,,,,,,,,,,,,,,,,,,,,,
294208,2022-09-24_11h38.34.053,vts_reward_expectancy,2022.2.4,Win32,60.04202942,Chrome,1504,1003,,,,,,,,,,,,,,,,,,,,,,,160,H,circle,1,0,f,1.0327,0,4,0,4,0,1,,,,,,,,,,,,,,,,,,,,,,,,,,,,,,,,,,,,,,,,,
294208,2022-09-24_11h38.34.053,vts_reward_expectancy,2022.2.4,Win32,60.04202942,Chrome,1504,1003,,,,,,,,,,,,,,,,,,,,,,,174,W,triangle,1,0,f,1.0842,0,5,0,5,0,1,,,,,,,,,,,,,,,,,,,,,,,,,,,,,,,,,,,,,,,,,
294208,2022-09-24_11h38.34.053,vts_reward_expectancy,2022.2.4,Win32,60.04202942,Chrome,1504,1003,,,,,,,,,,,,,,,,,,,,,,,167,S,hexagon,1,0,f,0.9554,0,6,0,6,0,1,,,,,,,,,,,,,,,,,,,,,,,,,,,,,,,,,,,,,,,,,
294208,2022-09-24_11h38.34.053,vts_reward_expectancy,2022.2.4,Win32,60.04202942,Chrome,1504,1003,,,,,,,,,,,,,,,,,,,,,,,132,Y,star,1,0,d,0.8845,0,7,0,7,0,1,,,,,,,,,,,,,,,,,,,,,,,,,,,,,,,,,,,,,,,,,
294208,2022-09-24_11h38.34.053,vts_reward_expectancy,2022.2.4,Win32,60.04202942,Chrome,1504,1003,,,,,,,,,,,,,,,,,,,,,,,139,F,hexagon,1,0,d,0.8173,0,8,0,8,0,1,,,,,,,,,,,,,,,,,,,,,,,,,,,,,,,,,,,,,,,,,
294208,2022-09-24_11h38.34.053,vts_reward_expectancy,2022.2.4,Win32,60.04202942,Chrome,1504,1003,,,,,,,,,,,,,,,,,,,,,,,181,D,triangle,1,0,f,0.901099999,0,9,0,9,0,1,,,,,,,,,,,,,,,,,,,,,,,,,,,,,,,,,,,,,,,,,
294208,2022-09-24_11h38.34.053,vts_reward_expectancy,2022.2.4,Win32,60.04202942,Chrome,1504,1003,,,,,,,,,,,,,,,,,,,,,,,160,S,hexagon,1,0,,,1,,,,,,k,1.7345,0,0,0,0,1,,,,,,,,,,,,,,,,,,,,,,,,,,,,,,,,,,
294208,2022-09-24_11h38.34.053,vts_reward_expectancy,2022.2.4,Win32,60.04202942,Chrome,1504,1003,,,,,,,,,,,,,,,,,,,,,,,181,F,triangle,1,0,,,1,,,,,,j,2.6003,1,0,1,0,1,,,,,,,,,,,,,,,,,,,,,,,,,,,,,,,,,,
294208,2022-09-24_11h38.34.053,vts_reward_expectancy,2022.2.4,Win32,60.04202942,Chrome,1504,1003,,,,,,,,,,,,,,,,,,,,,,,132,D,star,1,0,,,1,,,,,,j,1.534,2,0,2,0,1,,,,,,,,,,,,,,,,,,,,,,,,,,,,,,,,,,
294208,2022-09-24_11h38.34.053,vts_reward_expectancy,2022.2.4,Win32,60.04202942,Chrome,1504,1003,,,,,,,,,,,,,,,,,,,,,,,139,B,circle,1,0,,,1,,,,,,j,0.801700001,3,0,3,0,1,,,,,,,,,,,,,,,,,,,,,,,,,,,,,,,,,,
294208,2022-09-24_11h38.34.053,vts_reward_expectancy,2022.2.4,Win32,60.04202942,Chrome,1504,1003,,,,,,,,,,,,,,,,,,,,,,,146,W,hexagon,1,0,,,1,,,,,,k,0.4764,4,0,4,0,1,,,,,,,,,,,,,,,,,,,,,,,,,,,,,,,,,,
294208,2022-09-24_11h38.34.053,vts_reward_expectancy,2022.2.4,Win32,60.04202942,Chrome,1504,1003,,,,,,,,,,,,,,,,,,,,,,,125,Y,triangle,1,0,,,1,,,,,,k,0.7427,5,0,5,0,1,,,,,,,,,,,,,,,,,,,,,,,,,,,,,,,,,,
294208,2022-09-24_11h38.34.053,vts_reward_expectancy,2022.2.4,Win32,60.04202942,Chrome,1504,1003,,,,,,,,,,,,,,,,,,,,,,,167,U,star,1,0,,,1,,,,,,k,0.7077,6,0,6,0,1,,,,,,,,,,,,,,,,,,,,,,,,,,,,,,,,,,
294208,2022-09-24_11h38.34.053,vts_reward_expectancy,2022.2.4,Win32,60.04202942,Chrome,1504,1003,,,,,,,,,,,,,,,,,,,,,,,174,H,circle,1,0,,,1,,,,,,j,1.239099999,7,0,7,0,1,,,,,,,,,,,,,,,,,,,,,,,,,,,,,,,,,,
294208,2022-09-24_11h38.34.053,vts_reward_expectancy,2022.2.4,Win32,60.04202942,Chrome,1504,1003,,,,,,,,,,,,,,,,,,,,,,,160,S,circle,0,0,,,1,,,,,,,,8,0,8,0,1,,,,,,,,,,,,,,,,,,,,,,,,,,,,,,,,,,
294208,2022-09-24_11h38.34.053,vts_reward_expectancy,2022.2.4,Win32,60.04202942,Chrome,1504,1003,,,,,,,,,,,,,,,,,,,,,,,181,F,star,1,1,,,1,,,,,,j,2.1192,9,0,9,0,1,,,,,,,,,,,,,,,,,,,,,,,,,,,,,,,,,,
294208,2022-09-24_11h38.34.053,vts_reward_expectancy,2022.2.4,Win32,60.04202942,Chrome,1504,1003,,,,,0,666,,,,,,,,,,,,,,,,,160,F,hexagon,-1,0,,,2,,,,,,,,,,,,,-1,no_choice,NA,,vtsPrac,0,0,0,0,1,,,,,,,,,,,,,,,,,,,,,,,,
294208,2022-09-24_11h38.34.053,vts_reward_expectancy,2022.2.4,Win32,60.04202942,Chrome,1504,1003,,,,,0,666,,,,,,,,,,,,,,,,,132,Y,star,1,0,,,2,,,,,,,,,,,,,switch,number,numSwt,d,vtsPrac,1,0,1,0,1,0.5941,,,,,,,,,,,,,,,,,,,,,,,
294208,2022-09-24_11h38.34.053,vts_reward_expectancy,2022.2.4,Win32,60.04202942,Chrome,1504,1003,,,,,0,666,,,,,,,,,,,,,,,,,125,S,hexagon,1,0,,,2,,,,,,,,,,,,,repeat,number,numRpt,d,vtsPrac,2,0,2,0,1,1.1416,,,,,,,,,,,,,,,,,,,,,,,
294208,2022-09-24_11h38.34.053,vts_reward_expectancy,2022.2.4,Win32,60.04202942,Chrome,1504,1003,,,,,0,666,,,,,,,,,,,,,,,,,167,B,star,1,0,,,2,,,,,,,,,,,,,switch,letter,lettSwt,j,vtsPrac,3,0,3,0,1,0.8874,,,,,,,,,,,,,,,,,,,,,,,
294208,2022-09-24_11h38.34.053,vts_reward_expectancy,2022.2.4,Win32,60.04202942,Chrome,1504,1003,,,,,0,666,,,,,,,,,,,,,,,,,160,F,star,1,0,,,2,,,,,,,,,,,,,switch,number,numSwt,f,vtsPrac,4,0,4,0,1,0.7207,,,,,,,,,,,,,,,,,,,,,,,
294208,2022-09-24_11h38.34.053,vts_reward_expectancy,2022.2.4,Win32,60.04202942,Chrome,1504,1003,,,,,0,666,,,,,,,,,,,,,,,,,132,Y,hexagon,0,0,,,2,,,,,,,,,,,,,repeat,number,NA,f,vtsPrac,5,0,5,0,1,0.6193,,,,,,,,,,,,,,,,,,,,,,,
294208,2022-09-24_11h38.34.053,vts_reward_expectancy,2022.2.4,Win32,60.04202942,Chrome,1504,1003,,,,,0,666,,,,,,,,,,,,,,,,,125,S,star,1,1,,,2,,,,,,,,,,,,,switch,letter,lettSwt,k,vtsPrac,6,0,6,0,1,0.5501,,,,,,,,,,,,,,,,,,,,,,,
294208,2022-09-24_11h38.34.053,vts_reward_expectancy,2022.2.4,Win32,60.04202942,Chrome,1504,1003,,,,,0,666,,,,,,,,,,,,,,,,,167,B,hexagon,0,0,,,2,,,,,,,,,,,,,repeat,letter,NA,k,vtsPrac,7,0,7,0,1,0.6237,,,,,,,,,,,,,,,,,,,,,,,
294208,2022-09-24_11h38.34.053,vts_reward_expectancy,2022.2.4,Win32,60.04202942,Chrome,1504,1003,,,,,0,666,,,,,,,,,,,,,,,,,125,S,hexagon,1,1,,,2,,,,,,,,,,,,,repeat,letter,lettRpt,k,vtsPrac,8,0,8,0,1,0.7004,,,,,,,,,,,,,,,,,,,,,,,
294208,2022-09-24_11h38.34.053,vts_reward_expectancy,2022.2.4,Win32,60.04202942,Chrome,1504,1003,,,,,0,666,,,,,,,,,,,,,,,,,167,D,triangle,0,0,,,2,,,,,,,,,,,,,switch,number,NA,d,vtsPrac,9,0,9,0,1,0.6103,,,,,,,,,,,,,,,,,,,,,,,
294208,2022-09-24_11h38.34.053,vts_reward_expectancy,2022.2.4,Win32,60.04202942,Chrome,1504,1003,,,,,0,666,,,,,,,,,,,,,,,,,160,Y,triangle,1,1,,,2,,,,,,,,,,,,,switch,letter,lettSwt,k,vtsPrac,10,0,10,0,1,0.883200001,,,,,,,,,,,,,,,,,,,,,,,
294208,2022-09-24_11h38.34.053,vts_reward_expectancy,2022.2.4,Win32,60.04202942,Chrome,1504,1003,,,,,0,666,,,,,,,,,,,,,,,,,132,H,star,1,0,,,2,,,,,,,,,,,,,switch,number,numSwt,d,vtsPrac,11,0,11,0,1,0.7932,,,,,,,,,,,,,,,,,,,,,,,
294208,2022-09-24_11h38.34.053,vts_reward_expectancy,2022.2.4,Win32,60.04202942,Chrome,1504,1003,,,,,0,666,,,,,,,,,,,,,,,,,125,S,triangle,1,0,,,2,,,,,,,,,,,,,repeat,number,numRpt,d,vtsPrac,12,0,12,0,1,0.5849,,,,,,,,,,,,,,,,,,,,,,,
294208,2022-09-24_11h38.34.053,vts_reward_expectancy,2022.2.4,Win32,60.04202942,Chrome,1504,1003,,,,,0,666,,,,,,,,,,,,,,,,,146,Y,hexagon,1,0,,,2,,,,,,,,,,,,,switch,letter,lettSwt,k,vtsPrac,13,0,13,0,1,0.578299999,,,,,,,,,,,,,,,,,,,,,,,
294208,2022-09-24_11h38.34.053,vts_reward_expectancy,2022.2.4,Win32,60.04202942,Chrome,1504,1003,,,,,0,666,,,,,,,,,,,,,,,,,181,W,circle,1,0,,,2,,,,,,,,,,,,,repeat,letter,lettRpt,k,vtsPrac,14,0,14,0,1,0.5911,,,,,,,,,,,,,,,,,,,,,,,
294208,2022-09-24_11h38.34.053,vts_reward_expectancy,2022.2.4,Win32,60.04202942,Chrome,1504,1003,,,,,0,666,,,,,,,,,,,,,,,,,174,D,triangle,1,0,,,2,,,,,,,,,,,,,switch,number,numSwt,f,vtsPrac,15,0,15,0,1,0.443200001,,,,,,,,,,,,,,,,,,,,,,,
294208,2022-09-24_11h38.34.053,vts_reward_expectancy,2022.2.4,Win32,60.04202942,Chrome,1504,1003,,,,,0,666,,,,,,,,,,,,,,,,,181,B,hexagon,0,0,,,3,,,,,,,,,,,,,switch,letter,NA,k,vtsPrac,0,0,0,0,1,0.849900001,,,,,,,,,,,,,,,,,,,,,,,
294208,2022-09-24_11h38.34.053,vts_reward_expectancy,2022.2.4,Win32,60.04202942,Chrome,1504,1003,,,,,0,666,,,,,,,,,,,,,,,,,125,U,triangle,1,1,,,3,,,,,,,,,,,,,switch,number,numSwt,d,vtsPrac,1,0,1,0,1,1.528,,,,,,,,,,,,,,,,,,,,,,,
294208,2022-09-24_11h38.34.053,vts_reward_expectancy,2022.2.4,Win32,60.04202942,Chrome,1504,1003,,,,,0,666,,,,,,,,,,,,,,,,,160,Y,hexagon,1,0,,,3,,,,,,,,,,,,,switch,letter,lettSwt,k,vtsPrac,2,0,2,0,1,0.844900001,,,,,,,,,,,,,,,,,,,,,,,
294208,2022-09-24_11h38.34.053,vts_reward_expectancy,2022.2.4,Win32,60.04202942,Chrome,1504,1003,,,,,0,666,,,,,,,,,,,,,,,,,132,H,triangle,1,0,,,3,,,,,,,,,,,,,switch,number,numSwt,d,vtsPrac,3,0,3,0,1,1.1439,,,,,,,,,,,,,,,,,,,,,,,
294208,2022-09-24_11h38.34.053,vts_reward_expectancy,2022.2.4,Win32,60.04202942,Chrome,1504,1003,,,,,0,666,,,,,,,,,,,,,,,,,181,B,star,0,0,,,3,,,,,,,,,,,,,repeat,number,NA,d,vtsPrac,4,0,4,0,1,1.0756,,,,,,,,,,,,,,,,,,,,,,,
294208,2022-09-24_11h38.34.053,vts_reward_expectancy,2022.2.4,Win32,60.04202942,Chrome,1504,1003,,,,,0,666,,,,,,,,,,,,,,,,,125,U,circle,0,1,,,3,,,,,,,,,,,,,switch,letter,NA,j,vtsPrac,5,0,5,0,1,0.6554,,,,,,,,,,,,,,,,,,,,,,,
294208,2022-09-24_11h38.34.053,vts_reward_expectancy,2022.2.4,Win32,60.04202942,Chrome,1504,1003,,,,,0,666,,,,,,,,,,,,,,,,,160,Y,hexagon,1,1,,,3,,,,,,,,,,,,,switch,number,numSwt,f,vtsPrac,6,0,6,0,1,0.684900001,,,,,,,,,,,,,,,,,,,,,,,
294208,2022-09-24_11h38.34.053,vts_reward_expectancy,2022.2.4,Win32,60.04202942,Chrome,1504,1003,,,,,0,666,,,,,,,,,,,,,,,,,132,H,circle,1,0,,,3,,,,,,,,,,,,,repeat,number,numRpt,d,vtsPrac,7,0,7,0,1,1.0547,,,,,,,,,,,,,,,,,,,,,,,
294208,2022-09-24_11h38.34.053,vts_reward_expectancy,2022.2.4,Win32,60.04202942,Chrome,1504,1003,,,,,0,666,,,,,,,,,,,,,,,,,146,U,hexagon,1,0,,,3,,,,,,,,,,,,,switch,letter,lettSwt,k,vtsPrac,8,0,8,0,1,0.5683,,,,,,,,,,,,,,,,,,,,,,,
294208,2022-09-24_11h38.34.053,vts_reward_expectancy,2022.2.4,Win32,60.04202942,Chrome,1504,1003,,,,,0,666,,,,,,,,,,,,,,,,,167,Y,triangle,1,0,,,3,,,,,,,,,,,,,repeat,letter,lettRpt,k,vtsPrac,9,0,9,0,1,0.567099999,,,,,,,,,,,,,,,,,,,,,,,
294208,2022-09-24_11h38.34.053,vts_reward_expectancy,2022.2.4,Win32,60.04202942,Chrome,1504,1003,,,,,0,666,,,,,,,,,,,,,,,,,174,S,hexagon,1,0,,,3,,,,,,,,,,,,,repeat,letter,lettRpt,k,vtsPrac,10,0,10,0,1,0.8938,,,,,,,,,,,,,,,,,,,,,,,
294208,2022-09-24_11h38.34.053,vts_reward_expectancy,2022.2.4,Win32,60.04202942,Chrome,1504,1003,,,,,0,666,,,,,,,,,,,,,,,,,181,W,triangle,0,0,,,3,,,,,,,,,,,,,switch,number,NA,d,vtsPrac,11,0,11,0,1,1.344099999,,,,,,,,,,,,,,,,,,,,,,,
294208,2022-09-24_11h38.34.053,vts_reward_expectancy,2022.2.4,Win32,60.04202942,Chrome,1504,1003,,,,,0,666,,,,,,,,,,,,,,,,,125,W,circle,1,1,,,3,,,,,,,,,,,,,repeat,number,numRpt,d,vtsPrac,12,0,12,0,1,0.5355,,,,,,,,,,,,,,,,,,,,,,,
294208,2022-09-24_11h38.34.053,vts_reward_expectancy,2022.2.4,Win32,60.04202942,Chrome,1504,1003,,,,,0,666,,,,,,,,,,,,,,,,,139,D,hexagon,1,0,,,3,,,,,,,,,,,,,repeat,number,numRpt,d,vtsPrac,13,0,13,0,1,1.284599999,,,,,,,,,,,,,,,,,,,,,,,
294208,2022-09-24_11h38.34.053,vts_reward_expectancy,2022.2.4,Win32,60.04202942,Chrome,1504,1003,,,,,0,666,,,,,,,,,,,,,,,,,167,H,star,1,0,,,3,,,,,,,,,,,,,switch,letter,lettSwt,j,vtsPrac,14,0,14,0,1,0.7113,,,,,,,,,,,,,,,,,,,,,,,
294208,2022-09-24_11h38.34.053,vts_reward_expectancy,2022.2.4,Win32,60.04202942,Chrome,1504,1003,,,,,0,666,,,,,,,,,,,,,,,,,160,B,triangle,1,0,,,3,,,,,,,,,,,,,switch,number,numSwt,f,vtsPrac,15,0,15,0,1,0.9946,,,,,,,,,,,,,,,,,,,,,,,
294208,2022-09-24_11h38.34.053,vts_reward_expectancy,2022.2.4,Win32,60.04202942,Chrome,1504,1003,,,,,0,666,,,,,,,,,,,,,,,,,132,H,star,1,0,,,4,,,,,,,,,,,,,repeat,number,numRpt,d,vtsPrac,0,0,0,0,1,1.068,,,,,,,,,,,,,,,,,,,,,,,
294208,2022-09-24_11h38.34.053,vts_reward_expectancy,2022.2.4,Win32,60.04202942,Chrome,1504,1003,,,,,0,666,,,,,,,,,,,,,,,,,174,S,circle,1,0,,,4,,,,,,,,,,,,,switch,letter,lettSwt,k,vtsPrac,1,0,1,0,1,0.7594,,,,,,,,,,,,,,,,,,,,,,,
294208,2022-09-24_11h38.34.053,vts_reward_expectancy,2022.2.4,Win32,60.04202942,Chrome,1504,1003,,,,,0,666,,,,,,,,,,,,,,,,,181,B,star,0,0,,,4,,,,,,,,,,,,,switch,number,NA,d,vtsPrac,2,0,2,0,1,1.069900001,,,,,,,,,,,,,,,,,,,,,,,
294208,2022-09-24_11h38.34.053,vts_reward_expectancy,2022.2.4,Win32,60.04202942,Chrome,1504,1003,,,,,0,666,,,,,,,,,,,,,,,,,146,F,circle,1,1,,,4,,,,,,,,,,,,,repeat,number,numRpt,d,vtsPrac,3,0,3,0,1,1.237299999,,,,,,,,,,,,,,,,,,,,,,,
294208,2022-09-24_11h38.34.053,vts_reward_expectancy,2022.2.4,Win32,60.04202942,Chrome,1504,1003,,,,,0,666,,,,,,,,,,,,,,,,,132,H,star,1,0,,,4,,,,,,,,,,,,,switch,letter,lettSwt,j,vtsPrac,4,0,4,0,1,0.8354,,,,,,,,,,,,,,,,,,,,,,,
294208,2022-09-24_11h38.34.053,vts_reward_expectancy,2022.2.4,Win32,60.04202942,Chrome,1504,1003,,,,,0,666,,,,,,,,,,,,,,,,,174,S,hexagon,1,0,,,4,,,,,,,,,,,,,repeat,letter,lettRpt,k,vtsPrac,5,0,5,0,1,1.6835,,,,,,,,,,,,,,,,,,,,,,,
294208,2022-09-24_11h38.34.053,vts_reward_expectancy,2022.2.4,Win32,60.04202942,Chrome,1504,1003,,,,,0,666,,,,,,,,,,,,,,,,,181,B,hexagon,1,0,,,4,,,,,,,,,,,,,repeat,letter,lettRpt,j,vtsPrac,6,0,6,0,1,2.2786,,,,,,,,,,,,,,,,,,,,,,,
294208,2022-09-24_11h38.34.053,vts_reward_expectancy,2022.2.4,Win32,60.04202942,Chrome,1504,1003,,,,,0,666,,,,,,,,,,,,,,,,,146,F,circle,0,0,,,4,,,,,,,,,,,,,repeat,letter,NA,k,vtsPrac,7,0,7,0,1,1.7114,,,,,,,,,,,,,,,,,,,,,,,
294208,2022-09-24_11h38.34.053,vts_reward_expectancy,2022.2.4,Win32,60.04202942,Chrome,1504,1003,,,,,0,666,,,,,,,,,,,,,,,,,160,H,triangle,1,1,,,4,,,,,,,,,,,,,repeat,letter,lettRpt,j,vtsPrac,8,0,8,0,1,1.5773,,,,,,,,,,,,,,,,,,,,,,,
294208,2022-09-24_11h38.34.053,vts_reward_expectancy,2022.2.4,Win32,60.04202942,Chrome,1504,1003,,,,,0,666,,,,,,,,,,,,,,,,,132,Y,star,1,0,,,4,,,,,,,,,,,,,switch,number,numSwt,d,vtsPrac,9,0,9,0,1,0.889400001,,,,,,,,,,,,,,,,,,,,,,,
294208,2022-09-24_11h38.34.053,vts_reward_expectancy,2022.2.4,Win32,60.04202942,Chrome,1504,1003,,,,,0,666,,,,,,,,,,,,,,,,,139,W,star,1,0,,,4,,,,,,,,,,,,,repeat,number,numRpt,d,vtsPrac,10,0,10,0,1,0.7836,,,,,,,,,,,,,,,,,,,,,,,
294208,2022-09-24_11h38.34.053,vts_reward_expectancy,2022.2.4,Win32,60.04202942,Chrome,1504,1003,,,,,0,666,,,,,,,,,,,,,,,,,146,B,triangle,1,0,,,4,,,,,,,,,,,,,repeat,number,numRpt,d,vtsPrac,11,0,11,0,1,0.866700001,,,,,,,,,,,,,,,,,,,,,,,
294208,2022-09-24_11h38.34.053,vts_reward_expectancy,2022.2.4,Win32,60.04202942,Chrome,1504,1003,,,,,0,666,,,,,,,,,,,,,,,,,167,D,triangle,0,0,,,4,,,,,,,,,,,,,repeat,number,NA,d,vtsPrac,12,0,12,0,1,2.0183,,,,,,,,,,,,,,,,,,,,,,,
294208,2022-09-24_11h38.34.053,vts_reward_expectancy,2022.2.4,Win32,60.04202942,Chrome,1504,1003,,,,,0,666,,,,,,,,,,,,,,,,,146,F,hexagon,0,1,,,4,,,,,,,,,,,,,switch,letter,NA,k,vtsPrac,13,0,13,0,1,1.483,,,,,,,,,,,,,,,,,,,,,,,
294208,2022-09-24_11h38.34.053,vts_reward_expectancy,2022.2.4,Win32,60.04202942,Chrome,1504,1003,,,,,0,666,,,,,,,,,,,,,,,,,125,S,triangle,1,1,,,4,,,,,,,,,,,,,switch,number,numSwt,d,vtsPrac,14,0,14,0,1,0.7526,,,,,,,,,,,,,,,,,,,,,,,
294208,2022-09-24_11h38.34.053,vts_reward_expectancy,2022.2.4,Win32,60.04202942,Chrome,1504,1003,,,,,0,666,,,,,,,,,,,,,,,,,160,Y,star,1,0,,,4,,,,,,,,,,,,,repeat,number,numRpt,f,vtsPrac,15,0,15,0,1,1.2605,,,,,,,,,,,,,,,,,,,,,,,
294208,2022-09-24_11h38.34.053,vts_reward_expectancy,2022.2.4,Win32,60.04202942,Chrome,1504,1003,,,,,,,,,,,,,,,,,,,,,,,,,,,,,,,,,,,,,,,,,,,,,,,,,,,,,,,,,,,,,,,,,,,,,,,,,,,,
294208,2022-09-24_11h38.34.053,vts_reward_expectancy,2022.2.4,Win32,60.04202942,Chrome,1504,1003,,,,,,,,,,,,,,,,,,,,,,,,,,,,,,,,,,,,,,,,,,,,,,,,,,,,,,,,,,,,,,,,,,,,,,,,,,,,
294208,2022-09-24_11h38.34.053,vts_reward_expectancy,2022.2.4,Win32,60.04202942,Chrome,1504,1003,,,,,0,666,,,,,,,,,,,,,,,,,132,F,triangle,0,0,,,,,,,,,,,,,,,,repeat,number,NA,f,noRew,,,,,,1.258400001,0,0,0,0,0,1,,,,,,,,,,,,,,,,,
294208,2022-09-24_11h38.34.053,vts_reward_expectancy,2022.2.4,Win32,60.04202942,Chrome,1504,1003,,,,,0,666,,,,,,,,,,,,,,,,,146,D,circle,1,1,,,,,,,,,,,,,,,,repeat,number,numRpt,d,noRew,,,,,,1.3223,0,1,0,1,0,1,,,,,,,,,,,,,,,,,
294208,2022-09-24_11h38.34.053,vts_reward_expectancy,2022.2.4,Win32,60.04202942,Chrome,1504,1003,,,,,0,666,,,,,,,,,,,,,,,,,174,U,triangle,1,0,,,,,,,,,,,,,,,,switch,letter,lettSwt,k,noRew,,,,,,0.5088,0,2,0,2,0,1,,,,,,,,,,,,,,,,,
294208,2022-09-24_11h38.34.053,vts_reward_expectancy,2022.2.4,Win32,60.04202942,Chrome,1504,1003,,,,,0,666,,,,,,,,,,,,,,,,,125,W,circle,1,0,,,,,,,,,,,,,,,,repeat,letter,lettRpt,k,noRew,,,,,,0.54,0,3,0,3,0,1,,,,,,,,,,,,,,,,,
294208,2022-09-24_11h38.34.053,vts_reward_expectancy,2022.2.4,Win32,60.04202942,Chrome,1504,1003,,,,,0,666,,,,,,,,,,,,,,,,,132,F,triangle,1,0,,,,,,,,,,,,,,,,switch,number,numSwt,d,noRew,,,,,,0.4832,0,4,0,4,0,1,,,,,,,,,,,,,,,,,
294208,2022-09-24_11h38.34.053,vts_reward_expectancy,2022.2.4,Win32,60.04202942,Chrome,1504,1003,,,,,0,666,,,,,,,,,,,,,,,,,146,D,circle,1,0,,,,,,,,,,,,,,,,switch,letter,lettSwt,j,noRew,,,,,,0.900700001,0,5,0,5,0,1,,,,,,,,,,,,,,,,,
294208,2022-09-24_11h38.34.053,vts_reward_expectancy,2022.2.4,Win32,60.04202942,Chrome,1504,1003,,,,,0,666,,,,,,,,,,,,,,,,,174,U,circle,1,0,,,,,,,,,,,,,,,,switch,number,numSwt,f,noRew,,,,,,1.2218,0,6,0,6,0,1,,,,,,,,,,,,,,,,,
294208,2022-09-24_11h38.34.053,vts_reward_expectancy,2022.2.4,Win32,60.04202942,Chrome,1504,1003,,,,,0,666,,,,,,,,,,,,,,,,,125,W,triangle,1,0,,,,,,,,,,,,,,,,switch,letter,lettSwt,k,noRew,,,,,,0.6673,0,7,0,7,0,1,,,,,,,,,,,,,,,,,
294208,2022-09-24_11h38.34.053,vts_reward_expectancy,2022.2.4,Win32,60.04202942,Chrome,1504,1003,,,,,0,666,,,,,,,,,,,,,,,,,174,H,star,1,0,,,,,,,,,,,,,,,,switch,number,numSwt,f,noRew,,,,,,0.8438,0,8,0,8,0,1,,,,,,,,,,,,,,,,,
294208,2022-09-24_11h38.34.053,vts_reward_expectancy,2022.2.4,Win32,60.04202942,Chrome,1504,1003,,,,,0,666,,,,,,,,,,,,,,,,,125,W,circle,1,0,,,,,,,,,,,,,,,,repeat,number,numRpt,d,noRew,,,,,,0.768200001,0,9,0,9,0,1,,,,,,,,,,,,,,,,,
294208,2022-09-24_11h38.34.053,vts_reward_expectancy,2022.2.4,Win32,60.04202942,Chrome,1504,1003,,,,,0,666,,,,,,,,,,,,,,,,,146,Y,star,1,0,,,,,,,,,,,,,,,,switch,letter,lettSwt,k,noRew,,,,,,0.8081,0,10,0,10,0,1,,,,,,,,,,,,,,,,,
294208,2022-09-24_11h38.34.053,vts_reward_expectancy,2022.2.4,Win32,60.04202942,Chrome,1504,1003,,,,,0,666,,,,,,,,,,,,,,,,,139,S,hexagon,1,0,,,,,,,,,,,,,,,,repeat,letter,lettRpt,k,noRew,,,,,,1.0515,0,11,0,11,0,1,,,,,,,,,,,,,,,,,
294208,2022-09-24_11h38.34.053,vts_reward_expectancy,2022.2.4,Win32,60.04202942,Chrome,1504,1003,,,,,0,666,,,,,,,,,,,,,,,,,125,H,circle,1,0,,,,,,,,,,,,,,,,repeat,letter,lettRpt,j,noRew,,,,,,1.018900001,0,12,0,12,0,1,,,,,,,,,,,,,,,,,
294208,2022-09-24_11h38.34.053,vts_reward_expectancy,2022.2.4,Win32,60.04202942,Chrome,1504,1003,,,,,0,666,,,,,,,,,,,,,,,,,146,D,hexagon,1,0,,,,,,,,,,,,,,,,switch,number,numSwt,d,noRew,,,,,,1.0698,0,13,0,13,0,1,,,,,,,,,,,,,,,,,
294208,2022-09-24_11h38.34.053,vts_reward_expectancy,2022.2.4,Win32,60.04202942,Chrome,1504,1003,,,,,0,666,,,,,,,,,,,,,,,,,139,Y,star,1,0,,,,,,,,,,,,,,,,switch,letter,lettSwt,k,noRew,,,,,,0.7012,0,14,0,14,0,1,,,,,,,,,,,,,,,,,
294208,2022-09-24_11h38.34.053,vts_reward_expectancy,2022.2.4,Win32,60.04202942,Chrome,1504,1003,,,,,0,666,,,,,,,,,,,,,,,,,160,F,hexagon,1,0,,,,,,,,,,,,,,,,repeat,letter,lettRpt,j,noRew,,,,,,1.0087,0,15,0,15,0,1,,,,,,,,,,,,,,,,,
294208,2022-09-24_11h38.34.053,vts_reward_expectancy,2022.2.4,Win32,60.04202942,Chrome,1504,1003,,,,,0,666,,,,,,,,,,,,,,,,,139,H,circle,1,0,,,,,,,,,,,,,,,,repeat,letter,lettRpt,j,noRew,,,,,,1.758,0,16,0,16,0,1,,,,,,,,,,,,,,,,,
294208,2022-09-24_11h38.34.053,vts_reward_expectancy,2022.2.4,Win32,60.04202942,Chrome,1504,1003,,,,,0,666,,,,,,,,,,,,,,,,,132,S,star,1,0,,,,,,,,,,,,,,,,switch,number,numSwt,d,noRew,,,,,,0.8277,0,17,0,17,0,1,,,,,,,,,,,,,,,,,
294208,2022-09-24_11h38.34.053,vts_reward_expectancy,2022.2.4,Win32,60.04202942,Chrome,1504,1003,,,,,0,666,,,,,,,,,,,,,,,,,146,B,hexagon,1,0,,,,,,,,,,,,,,,,repeat,number,numRpt,d,noRew,,,,,,0.610900001,0,18,0,18,0,1,,,,,,,,,,,,,,,,,
294208,2022-09-24_11h38.34.053,vts_reward_expectancy,2022.2.4,Win32,60.04202942,Chrome,1504,1003,,,,,0,666,,,,,,,,,,,,,,,,,125,W,circle,1,0,,,,,,,,,,,,,,,,repeat,number,numRpt,d,noRew,,,,,,0.639,0,19,0,19,0,1,,,,,,,,,,,,,,,,,
294208,2022-09-24_11h38.34.053,vts_reward_expectancy,2022.2.4,Win32,60.04202942,Chrome,1504,1003,,,,,0,666,,,,,,,,,,,,,,,,,181,S,hexagon,1,0,,,,,,,,,,,,,,,,repeat,number,numRpt,f,noRew,,,,,,0.5659,0,20,0,20,0,1,,,,,,,,,,,,,,,,,
294208,2022-09-24_11h38.34.053,vts_reward_expectancy,2022.2.4,Win32,60.04202942,Chrome,1504,1003,,,,,0,666,,,,,,,,,,,,,,,,,132,F,circle,1,0,,,,,,,,,,,,,,,,repeat,number,numRpt,d,noRew,,,,,,0.8728,0,21,0,21,0,1,,,,,,,,,,,,,,,,,
294208,2022-09-24_11h38.34.053,vts_reward_expectancy,2022.2.4,Win32,60.04202942,Chrome,1504,1003,,,,,0,666,,,,,,,,,,,,,,,,,125,H,star,1,0,,,,,,,,,,,,,,,,switch,letter,lettSwt,j,noRew,,,,,,1.7675,0,22,0,22,0,1,,,,,,,,,,,,,,,,,
294208,2022-09-24_11h38.34.053,vts_reward_expectancy,2022.2.4,Win32,60.04202942,Chrome,1504,1003,,,,,0,666,,,,,,,,,,,,,,,,,167,U,triangle,1,0,,,,,,,,,,,,,,,,repeat,letter,lettRpt,k,noRew,,,,,,1.5276,0,23,0,23,0,1,,,,,,,,,,,,,,,,,
294208,2022-09-24_11h38.34.053,vts_reward_expectancy,2022.2.4,Win32,60.04202942,Chrome,1504,1003,,,,,0,666,,,,,,,,,,,,,,,,,125,D,circle,1,0,,,,,,,,,,,,,,,,repeat,letter,lettRpt,j,noRew,,,,,,1.5335,0,24,0,24,0,1,,,,,,,,,,,,,,,,,
294208,2022-09-24_11h38.34.053,vts_reward_expectancy,2022.2.4,Win32,60.04202942,Chrome,1504,1003,,,,,0,666,,,,,,,,,,,,,,,,,174,Y,triangle,1,0,,,,,,,,,,,,,,,,repeat,letter,lettRpt,k,noRew,,,,,,0.7833,0,25,0,25,0,1,,,,,,,,,,,,,,,,,
294208,2022-09-24_11h38.34.053,vts_reward_expectancy,2022.2.4,Win32,60.04202942,Chrome,1504,1003,,,,,0,666,,,,,,,,,,,,,,,,,167,S,hexagon,1,0,,,,,,,,,,,,,,,,repeat,letter,lettRpt,k,noRew,,,,,,0.883700001,0,26,0,26,0,1,,,,,,,,,,,,,,,,,
294208,2022-09-24_11h38.34.053,vts_reward_expectancy,2022.2.4,Win32,60.04202942,Chrome,1504,1003,,,,,0,666,,,,,,,,,,,,,,,,,139,F,star,1,0,,,,,,,,,,,,,,,,repeat,letter,lettRpt,j,noRew,,,,,,0.900099999,0,27,0,27,0,1,,,,,,,,,,,,,,,,,
294208,2022-09-24_11h38.34.053,vts_reward_expectancy,2022.2.4,Win32,60.04202942,Chrome,1504,1003,,,,,0,666,,,,,,,,,,,,,,,,,125,H,circle,1,0,,,,,,,,,,,,,,,,switch,number,numSwt,d,noRew,,,,,,1.439200001,0,28,0,28,0,1,,,,,,,,,,,,,,,,,
294208,2022-09-24_11h38.34.053,vts_reward_expectancy,2022.2.4,Win32,60.04202942,Chrome,1504,1003,,,,,0,666,,,,,,,,,,,,,,,,,174,S,hexagon,1,0,,,,,,,,,,,,,,,,repeat,number,numRpt,f,noRew,,,,,,1.550299999,0,29,0,29,0,1,,,,,,,,,,,,,,,,,
294208,2022-09-24_11h38.34.053,vts_reward_expectancy,2022.2.4,Win32,60.04202942,Chrome,1504,1003,,,,,0,666,,,,,,,,,,,,,,,,,160,D,circle,1,0,,,,,,,,,,,,,,,,repeat,number,numRpt,f,noRew,,,,,,1.7758,0,30,0,30,0,1,,,,,,,,,,,,,,,,,
294208,2022-09-24_11h38.34.053,vts_reward_expectancy,2022.2.4,Win32,60.04202942,Chrome,1504,1003,,,,,0,666,,,,,,,,,,,,,,,,,146,Y,triangle,1,0,,,,,,,,,,,,,,,,switch,letter,lettSwt,k,noRew,,,,,,1.4556,0,31,0,31,0,1,,,,,,,,,,,,,,,,,
294208,2022-09-24_11h38.34.053,vts_reward_expectancy,2022.2.4,Win32,60.04202942,Chrome,1504,1003,,,,,0,666,,,,,,,,,,,,,,,,,139,F,circle,1,0,,,,,,,,,,,,,,,,repeat,letter,lettRpt,j,noRew,,,,,,1.4728,0,32,0,32,0,1,,,,,,,,,,,,,,,,,
294208,2022-09-24_11h38.34.053,vts_reward_expectancy,2022.2.4,Win32,60.04202942,Chrome,1504,1003,,,,,0,666,,,,,,,,,,,,,,,,,160,S,triangle,1,0,,,,,,,,,,,,,,,,repeat,letter,lettRpt,k,noRew,,,,,,1.5083,0,33,0,33,0,1,,,,,,,,,,,,,,,,,
294208,2022-09-24_11h38.34.053,vts_reward_expectancy,2022.2.4,Win32,60.04202942,Chrome,1504,1003,,,,,0,666,,,,,,,,,,,,,,,,,125,W,star,1,0,,,,,,,,,,,,,,,,switch,number,numSwt,d,noRew,,,,,,2.1073,0,34,0,34,0,1,,,,,,,,,,,,,,,,,
294208,2022-09-24_11h38.34.053,vts_reward_expectancy,2022.2.4,Win32,60.04202942,Chrome,1504,1003,,,,,0,666,,,,,,,,,,,,,,,,,146,D,triangle,1,0,,,,,,,,,,,,,,,,repeat,number,numRpt,d,noRew,,,,,,1.1008,0,35,0,35,0,1,,,,,,,,,,,,,,,,,
294208,2022-09-24_11h38.34.053,vts_reward_expectancy,2022.2.4,Win32,60.04202942,Chrome,1504,1003,,,,,0,666,,,,,,,,,,,,,,,,,125,D,star,1,0,,,,,,,,,,,,,,,,repeat,number,numRpt,d,noRew,,,,,,0.5327,0,36,0,36,0,1,,,,,,,,,,,,,,,,,
294208,2022-09-24_11h38.34.053,vts_reward_expectancy,2022.2.4,Win32,60.04202942,Chrome,1504,1003,,,,,0,666,,,,,,,,,,,,,,,,,146,F,hexagon,1,0,,,,,,,,,,,,,,,,repeat,number,numRpt,d,noRew,,,,,,0.6208,0,37,0,37,0,1,,,,,,,,,,,,,,,,,
294208,2022-09-24_11h38.34.053,vts_reward_expectancy,2022.2.4,Win32,60.04202942,Chrome,1504,1003,,,,,0,666,,,,,,,,,,,,,,,,,139,W,star,1,0,,,,,,,,,,,,,,,,repeat,number,numRpt,d,noRew,,,,,,1.3918,0,38,0,38,0,1,,,,,,,,,,,,,,,,,
294208,2022-09-24_11h38.34.053,vts_reward_expectancy,2022.2.4,Win32,60.04202942,Chrome,1504,1003,,,,,0,666,,,,,,,,,,,,,,,,,174,Y,triangle,1,0,,,,,,,,,,,,,,,,repeat,number,numRpt,f,noRew,,,,,,1.1755,0,39,0,39,0,1,,,,,,,,,,,,,,,,,
294208,2022-09-24_11h38.34.053,vts_reward_expectancy,2022.2.4,Win32,60.04202942,Chrome,1504,1003,,,,,0,666,,,,,,,,,,,,,,,,,132,S,triangle,1,0,,,,,,,,,,,,,,,,switch,letter,lettSwt,k,noRew,,,,,,0.6436,0,40,0,40,0,1,,,,,,,,,,,,,,,,,
294208,2022-09-24_11h38.34.053,vts_reward_expectancy,2022.2.4,Win32,60.04202942,Chrome,1504,1003,,,,,0,666,,,,,,,,,,,,,,,,,139,F,star,1,0,,,,,,,,,,,,,,,,repeat,letter,lettRpt,j,noRew,,,,,,1.1013,0,41,0,41,0,1,,,,,,,,,,,,,,,,,
294208,2022-09-24_11h38.34.053,vts_reward_expectancy,2022.2.4,Win32,60.04202942,Chrome,1504,1003,,,,,0,666,,,,,,,,,,,,,,,,,125,H,triangle,0,0,,,,,,,,,,,,,,,,repeat,letter,NA,k,noRew,,,,,,0.594,0,42,0,42,0,1,,,,,,,,,,,,,,,,,
294208,2022-09-24_11h38.34.053,vts_reward_expectancy,2022.2.4,Win32,60.04202942,Chrome,1504,1003,,,,,0,666,,,,,,,,,,,,,,,,,174,U,star,0,1,,,,,,,,,,,,,,,,repeat,letter,NA,j,noRew,,,,,,0.708099999,0,43,0,43,0,1,,,,,,,,,,,,,,,,,
294208,2022-09-24_11h38.34.053,vts_reward_expectancy,2022.2.4,Win32,60.04202942,Chrome,1504,1003,,,,,0,666,,,,,,,,,,,,,,,,,139,B,circle,1,1,,,,,,,,,,,,,,,,repeat,letter,lettRpt,j,noRew,,,,,,1.1062,0,44,0,44,0,1,,,,,,,,,,,,,,,,,
294208,2022-09-24_11h38.34.053,vts_reward_expectancy,2022.2.4,Win32,60.04202942,Chrome,1504,1003,,,,,0,666,,,,,,,,,,,,,,,,,132,D,triangle,1,0,,,,,,,,,,,,,,,,repeat,letter,lettRpt,j,noRew,,,,,,0.624,0,45,0,45,0,1,,,,,,,,,,,,,,,,,
294208,2022-09-24_11h38.34.053,vts_reward_expectancy,2022.2.4,Win32,60.04202942,Chrome,1504,1003,,,,,0,666,,,,,,,,,,,,,,,,,160,W,triangle,1,0,,,,,,,,,,,,,,,,repeat,letter,lettRpt,k,noRew,,,,,,1.5847,0,46,0,46,0,1,,,,,,,,,,,,,,,,,
294208,2022-09-24_11h38.34.053,vts_reward_expectancy,2022.2.4,Win32,60.04202942,Chrome,1504,1003,,,,,0,666,,,,,,,,,,,,,,,,,146,H,star,1,0,,,,,,,,,,,,,,,,repeat,letter,lettRpt,j,noRew,,,,,,1.2378,0,47,0,47,0,1,,,,,,,,,,,,,,,,,
294208,2022-09-24_11h38.34.053,vts_reward_expectancy,2022.2.4,Win32,60.04202942,Chrome,1504,1003,,,,,0,666,,,,,,,,,,,,,,,,,160,S,hexagon,0,0,,,,,,,,,,,,,,,,switch,number,NA,d,noRew,,,,,,1.6002,0,48,0,48,0,1,,,,,,,,,,,,,,,,,
294208,2022-09-24_11h38.34.053,vts_reward_expectancy,2022.2.4,Win32,60.04202942,Chrome,1504,1003,,,,,0,666,,,,,,,,,,,,,,,,,146,U,star,0,1,,,,,,,,,,,,,,,,repeat,number,NA,f,noRew,,,,,,1.367599999,0,49,0,49,0,1,,,,,,,,,,,,,,,,,
294208,2022-09-24_11h38.34.053,vts_reward_expectancy,2022.2.4,Win32,60.04202942,Chrome,1504,1003,,,,,0,666,,,,,,,,,,,,,,,,,174,D,hexagon,0,1,,,,,,,,,,,,,,,,repeat,number,NA,d,noRew,,,,,,1.7195,0,50,0,50,0,1,,,,,,,,,,,,,,,,,
294208,2022-09-24_11h38.34.053,vts_reward_expectancy,2022.2.4,Win32,60.04202942,Chrome,1504,1003,,,,,0,666,,,,,,,,,,,,,,,,,181,Y,circle,1,1,,,,,,,,,,,,,,,,repeat,number,numRpt,f,noRew,,,,,,0.875599999,0,51,0,51,0,1,,,,,,,,,,,,,,,,,
294208,2022-09-24_11h38.34.053,vts_reward_expectancy,2022.2.4,Win32,60.04202942,Chrome,1504,1003,,,,,0,666,,,,,,,,,,,,,,,,,160,D,hexagon,1,0,,,,,,,,,,,,,,,,repeat,number,numRpt,f,noRew,,,,,,0.9924,0,52,0,52,0,1,,,,,,,,,,,,,,,,,
294208,2022-09-24_11h38.34.053,vts_reward_expectancy,2022.2.4,Win32,60.04202942,Chrome,1504,1003,,,,,0,666,,,,,,,,,,,,,,,,,174,H,circle,0,0,,,,,,,,,,,,,,,,repeat,number,NA,d,noRew,,,,,,1.9187,0,53,0,53,0,1,,,,,,,,,,,,,,,,,
294208,2022-09-24_11h38.34.053,vts_reward_expectancy,2022.2.4,Win32,60.04202942,Chrome,1504,1003,,,,,0,666,,,,,,,,,,,,,,,,,125,F,circle,1,1,,,,,,,,,,,,,,,,repeat,number,numRpt,d,noRew,,,,,,1.9681,0,54,0,54,0,1,,,,,,,,,,,,,,,,,
294208,2022-09-24_11h38.34.053,vts_reward_expectancy,2022.2.4,Win32,60.04202942,Chrome,1504,1003,,,,,0,666,,,,,,,,,,,,,,,,,139,U,hexagon,1,0,,,,,,,,,,,,,,,,repeat,number,numRpt,d,noRew,,,,,,0.9905,0,55,0,55,0,1,,,,,,,,,,,,,,,,,
294208,2022-09-24_11h38.34.053,vts_reward_expectancy,2022.2.4,Win32,60.04202942,Chrome,1504,1003,,,,,0,666,,,,,,,,,,,,,,,,,160,H,hexagon,0,0,,,,,,,,,,,,,,,,switch,letter,NA,k,noRew,,,,,,1.6061,0,56,0,56,0,1,,,,,,,,,,,,,,,,,
294208,2022-09-24_11h38.34.053,vts_reward_expectancy,2022.2.4,Win32,60.04202942,Chrome,1504,1003,,,,,0,666,,,,,,,,,,,,,,,,,132,F,triangle,1,1,,,,,,,,,,,,,,,,switch,number,numSwt,d,noRew,,,,,,1.444700001,0,57,0,57,0,1,,,,,,,,,,,,,,,,,
294208,2022-09-24_11h38.34.053,vts_reward_expectancy,2022.2.4,Win32,60.04202942,Chrome,1504,1003,,,,,0,666,,,,,,,,,,,,,,,,,167,W,triangle,1,0,,,,,,,,,,,,,,,,switch,letter,lettSwt,k,noRew,,,,,,2.3582,0,58,0,58,0,1,,,,,,,,,,,,,,,,,
294208,2022-09-24_11h38.34.053,vts_reward_expectancy,2022.2.4,Win32,60.04202942,Chrome,1504,1003,,,,,0,666,,,,,,,,,,,,,,,,,174,U,hexagon,0,0,,,,,,,,,,,,,,,,repeat,letter,NA,j,noRew,,,,,,0.4889,0,59,0,59,0,1,,,,,,,,,,,,,,,,,
294208,2022-09-24_11h38.34.053,vts_reward_expectancy,2022.2.4,Win32,60.04202942,Chrome,1504,1003,,,,,0,666,,,,,,,,,,,,,,,,,125,H,star,1,1,,,,,,,,,,,,,,,,switch,number,numSwt,d,noRew,,,,,,1.3101,0,60,0,60,0,1,,,,,,,,,,,,,,,,,
294208,2022-09-24_11h38.34.053,vts_reward_expectancy,2022.2.4,Win32,60.04202942,Chrome,1504,1003,,,,,0,666,,,,,,,,,,,,,,,,,174,U,triangle,1,0,,,,,,,,,,,,,,,,repeat,number,numRpt,f,noRew,,,,,,0.9174,0,61,0,61,0,1,,,,,,,,,,,,,,,,,
294208,2022-09-24_11h38.34.053,vts_reward_expectancy,2022.2.4,Win32,60.04202942,Chrome,1504,1003,,,,,0,666,,,,,,,,,,,,,,,,,181,F,hexagon,1,0,,,,,,,,,,,,,,,,repeat,number,numRpt,f,noRew,,,,,,0.8669,0,62,0,62,0,1,,,,,,,,,,,,,,,,,
294208,2022-09-24_11h38.34.053,vts_reward_expectancy,2022.2.4,Win32,60.04202942,Chrome,1504,1003,,,,,0,666,,,,,,,,,,,,,,,,,132,Y,star,1,0,,,,,,,,,,,,,,,,repeat,number,numRpt,d,noRew,,,,,,1.5012,0,63,0,63,0,1,,,,,,,,,,,,,,,,,
294208,2022-09-24_11h38.34.053,vts_reward_expectancy,2022.2.4,Win32,60.04202942,Chrome,1504,1003,,,,,,,,,,,,,,,,,,,,,,,,,,,,,,,,,,,,,,,,,,,,,,,,,,,,,,,,,,,,,,,,,,,,,,,,,,,,
294208,2022-09-24_11h38.34.053,vts_reward_expectancy,2022.2.4,Win32,60.04202942,Chrome,1504,1003,,,,,10,676,,,,,,,,,,,,,,,,,132,S,hexagon,1,0,,,,,,,,,,,,,,,,switch,letter,lettSwt,k,Lo,,,,,,0.944700001,0,,,,,,space,5.7987,low,0,0,0,0,1,,,,,,,,,
294208,2022-09-24_11h38.34.053,vts_reward_expectancy,2022.2.4,Win32,60.04202942,Chrome,1504,1003,,,,,1,677,,,,,,,,,,,,,,,,,139,U,triangle,1,0,,,,,,,,,,,,,,,,repeat,letter,lettRpt,k,Hi,,,,,,0.8104,0,,,,,,,,low,1,0,1,0,1,,,,,,,,,
294208,2022-09-24_11h38.34.053,vts_reward_expectancy,2022.2.4,Win32,60.04202942,Chrome,1504,1003,,,,,10,687,,,,,,,,,,,,,,,,,125,H,hexagon,1,0,,,,,,,,,,,,,,,,switch,number,numSwt,d,Lo,,,,,,0.8028,0,,,,,,,,low,2,0,2,0,1,,,,,,,,,
294208,2022-09-24_11h38.34.053,vts_reward_expectancy,2022.2.4,Win32,60.04202942,Chrome,1504,1003,,,,,10,697,,,,,,,,,,,,,,,,,160,Y,triangle,1,0,,,,,,,,,,,,,,,,repeat,number,numRpt,f,Hi,,,,,,0.7857,0,,,,,,,,low,3,0,3,0,1,,,,,,,,,
294208,2022-09-24_11h38.34.053,vts_reward_expectancy,2022.2.4,Win32,60.04202942,Chrome,1504,1003,,,,,10,707,,,,,,,,,,,,,,,,,146,D,hexagon,1,0,,,,,,,,,,,,,,,,switch,letter,lettSwt,j,Lo,,,,,,0.606400001,0,,,,,,,,low,4,0,4,0,1,,,,,,,,,
294208,2022-09-24_11h38.34.053,vts_reward_expectancy,2022.2.4,Win32,60.04202942,Chrome,1504,1003,,,,,10,717,,,,,,,,,,,,,,,,,174,B,triangle,1,0,,,,,,,,,,,,,,,,repeat,letter,lettRpt,j,Hi,,,,,,0.9105,0,,,,,,,,low,5,0,5,0,1,,,,,,,,,
294208,2022-09-24_11h38.34.053,vts_reward_expectancy,2022.2.4,Win32,60.04202942,Chrome,1504,1003,,,,,10,727,,,,,,,,,,,,,,,,,181,W,triangle,1,0,,,,,,,,,,,,,,,,repeat,letter,lettRpt,k,Hi,,,,,,0.5363,0,,,,,,,,low,6,0,6,0,1,,,,,,,,,
294208,2022-09-24_11h38.34.053,vts_reward_expectancy,2022.2.4,Win32,60.04202942,Chrome,1504,1003,,,,,1,728,,,,,,,,,,,,,,,,,167,F,hexagon,1,0,,,,,,,,,,,,,,,,switch,number,numSwt,f,Lo,,,,,,0.644900001,0,,,,,,,,low,7,0,7,0,1,,,,,,,,,
294208,2022-09-24_11h38.34.053,vts_reward_expectancy,2022.2.4,Win32,60.04202942,Chrome,1504,1003,,,,,0,728,,,,,,,,,,,,,,,,,132,S,triangle,1,0,,,,,,,,,,,,,,,,repeat,number,numRpt,d,Hi,,,,,,1.322299999,0,,,,,,,,low,8,0,8,0,1,,,,,,,,,
294208,2022-09-24_11h38.34.053,vts_reward_expectancy,2022.2.4,Win32,60.04202942,Chrome,1504,1003,,,,,10,738,,,,,,,,,,,,,,,,,139,U,hexagon,1,0,,,,,,,,,,,,,,,,repeat,number,numRpt,d,Lo,,,,,,0.607,0,,,,,,,,low,9,0,9,0,1,,,,,,,,,
294208,2022-09-24_11h38.34.053,vts_reward_expectancy,2022.2.4,Win32,60.04202942,Chrome,1504,1003,,,,,10,748,,,,,,,,,,,,,,,,,125,H,hexagon,1,0,,,,,,,,,,,,,,,,switch,letter,lettSwt,j,Lo,,,,,,0.8838,0,,,,,,,,low,10,0,10,0,1,,,,,,,,,
294208,2022-09-24_11h38.34.053,vts_reward_expectancy,2022.2.4,Win32,60.04202942,Chrome,1504,1003,,,,,10,758,,,,,,,,,,,,,,,,,160,Y,triangle,1,0,,,,,,,,,,,,,,,,repeat,letter,lettRpt,k,Hi,,,,,,0.5922,0,,,,,,,,low,11,0,11,0,1,,,,,,,,,
294208,2022-09-24_11h38.34.053,vts_reward_expectancy,2022.2.4,Win32,60.04202942,Chrome,1504,1003,,,,,10,768,,,,,,,,,,,,,,,,,146,D,triangle,1,0,,,,,,,,,,,,,,,,repeat,letter,lettRpt,j,Hi,,,,,,0.7683,0,,,,,,,,low,12,0,12,0,1,,,,,,,,,
294208,2022-09-24_11h38.34.053,vts_reward_expectancy,2022.2.4,Win32,60.04202942,Chrome,1504,1003,,,,,0,768,,,,,,,,,,,,,,,,,174,B,hexagon,0,0,,,,,,,,,,,,,,,,repeat,letter,NA,k,Hi,,,,,,0.6583,0,,,,,,,,low,13,0,13,0,1,,,,,,,,,
294208,2022-09-24_11h38.34.053,vts_reward_expectancy,2022.2.4,Win32,60.04202942,Chrome,1504,1003,,,,,0,768,,,,,,,,,,,,,,,,,181,W,hexagon,0,1,,,,,,,,,,,,,,,,switch,number,NA,d,Hi,,,,,,1.169900001,0,,,,,,,,low,14,0,14,0,1,,,,,,,,,
294208,2022-09-24_11h38.34.053,vts_reward_expectancy,2022.2.4,Win32,60.04202942,Chrome,1504,1003,,,,,0,768,,,,,,,,,,,,,,,,,167,F,triangle,1,1,,,,,,,,,,,,,,,,switch,letter,lettSwt,j,Hi,,,,,,0.9678,0,,,,,,,,low,15,0,15,0,1,,,,,,,,,
294208,2022-09-24_11h38.34.053,vts_reward_expectancy,2022.2.4,Win32,60.04202942,Chrome,1504,1003,,,,,10,778,,,,,,,,,,,,,,,,,160,S,triangle,1,0,,,,,,,,,,,,,,,,repeat,letter,lettRpt,k,Hi,,,,,,0.5684,0,,,,,,,,low,16,0,16,0,1,,,,,,,,,
294208,2022-09-24_11h38.34.053,vts_reward_expectancy,2022.2.4,Win32,60.04202942,Chrome,1504,1003,,,,,1,779,,,,,,,,,,,,,,,,,139,W,hexagon,1,0,,,,,,,,,,,,,,,,switch,number,numSwt,d,Lo,,,,,,0.7612,0,,,,,,,,low,17,0,17,0,1,,,,,,,,,
294208,2022-09-24_11h38.34.053,vts_reward_expectancy,2022.2.4,Win32,60.04202942,Chrome,1504,1003,,,,,10,789,,,,,,,,,,,,,,,,,174,D,hexagon,1,0,,,,,,,,,,,,,,,,repeat,number,numRpt,f,Lo,,,,,,0.585,0,,,,,,,,low,18,0,18,0,1,,,,,,,,,
294208,2022-09-24_11h38.34.053,vts_reward_expectancy,2022.2.4,Win32,60.04202942,Chrome,1504,1003,,,,,0,789,,,,,,,,,,,,,,,,,167,B,triangle,1,0,,,,,,,,,,,,,,,,repeat,number,numRpt,f,Hi,,,,,,1.0038,0,,,,,,,,low,19,0,19,0,1,,,,,,,,,
294208,2022-09-24_11h38.34.053,vts_reward_expectancy,2022.2.4,Win32,60.04202942,Chrome,1504,1003,,,,,0,789,,,,,,,,,,,,,,,,,146,F,hexagon,0,0,,,,,,,,,,,,,,,,repeat,number,NA,f,Hi,,,,,,0.4551,0,,,,,,,,low,20,0,20,0,1,,,,,,,,,
294208,2022-09-24_11h38.34.053,vts_reward_expectancy,2022.2.4,Win32,60.04202942,Chrome,1504,1003,,,,,0,789,,,,,,,,,,,,,,,,,181,U,triangle,1,1,,,,,,,,,,,,,,,,repeat,number,numRpt,f,Hi,,,,,,0.883,0,,,,,,,,low,21,0,21,0,1,,,,,,,,,
294208,2022-09-24_11h38.34.053,vts_reward_expectancy,2022.2.4,Win32,60.04202942,Chrome,1504,1003,,,,,1,790,,,,,,,,,,,,,,,,,132,Y,hexagon,1,0,,,,,,,,,,,,,,,,switch,letter,lettSwt,k,Lo,,,,,,0.6502,0,,,,,,,,low,22,0,22,0,1,,,,,,,,,
294208,2022-09-24_11h38.34.053,vts_reward_expectancy,2022.2.4,Win32,60.04202942,Chrome,1504,1003,,,,,0,790,,,,,,,,,,,,,,,,,125,H,triangle,0,0,,,,,,,,,,,,,,,,repeat,letter,NA,k,Lo,,,,,,0.5354,0,,,,,,,,low,23,0,23,0,1,,,,,,,,,
294208,2022-09-24_11h38.34.053,vts_reward_expectancy,2022.2.4,Win32,60.04202942,Chrome,1504,1003,,,,,10,800,,,,,,,,,,,,,,,,,132,W,triangle,1,1,,,,,,,,,,,,,,,,repeat,letter,lettRpt,k,Hi,,,,,,0.5409,0,,,,,,,,low,24,0,24,0,1,,,,,,,,,
294208,2022-09-24_11h38.34.053,vts_reward_expectancy,2022.2.4,Win32,60.04202942,Chrome,1504,1003,,,,,1,801,,,,,,,,,,,,,,,,,174,H,hexagon,1,0,,,,,,,,,,,,,,,,switch,number,numSwt,f,Lo,,,,,,0.5667,0,,,,,,,,low,25,0,25,0,1,,,,,,,,,
294208,2022-09-24_11h38.34.053,vts_reward_expectancy,2022.2.4,Win32,60.04202942,Chrome,1504,1003,,,,,10,811,,,,,,,,,,,,,,,,,167,Y,hexagon,1,0,,,,,,,,,,,,,,,,repeat,number,numRpt,f,Lo,,,,,,0.6596,0,,,,,,,,low,26,0,26,0,1,,,,,,,,,
294208,2022-09-24_11h38.34.053,vts_reward_expectancy,2022.2.4,Win32,60.04202942,Chrome,1504,1003,,,,,1,812,,,,,,,,,,,,,,,,,125,U,triangle,1,0,,,,,,,,,,,,,,,,switch,letter,lettSwt,k,Hi,,,,,,0.6348,0,,,,,,,,low,27,0,27,0,1,,,,,,,,,
294208,2022-09-24_11h38.34.053,vts_reward_expectancy,2022.2.4,Win32,60.04202942,Chrome,1504,1003,,,,,1,813,,,,,,,,,,,,,,,,,146,S,hexagon,1,0,,,,,,,,,,,,,,,,repeat,letter,lettRpt,k,Lo,,,,,,0.694299999,0,,,,,,,,low,28,0,28,0,1,,,,,,,,,
294208,2022-09-24_11h38.34.053,vts_reward_expectancy,2022.2.4,Win32,60.04202942,Chrome,1504,1003,,,,,1,814,,,,,,,,,,,,,,,,,160,D,triangle,1,0,,,,,,,,,,,,,,,,repeat,letter,lettRpt,j,Hi,,,,,,0.800900001,0,,,,,,,,low,29,0,29,0,1,,,,,,,,,
294208,2022-09-24_11h38.34.053,vts_reward_expectancy,2022.2.4,Win32,60.04202942,Chrome,1504,1003,,,,,1,815,,,,,,,,,,,,,,,,,181,B,hexagon,1,0,,,,,,,,,,,,,,,,switch,number,numSwt,f,Lo,,,,,,0.826,0,,,,,,,,low,30,0,30,0,1,,,,,,,,,
294208,2022-09-24_11h38.34.053,vts_reward_expectancy,2022.2.4,Win32,60.04202942,Chrome,1504,1003,,,,,0,815,,,,,,,,,,,,,,,,,139,F,triangle,0,0,,,,,,,,,,,,,,,,repeat,number,NA,f,Lo,,,,,,0.7775,0,,,,,,,,low,31,0,31,0,1,,,,,,,,,
294208,2022-09-24_11h38.34.053,vts_reward_expectancy,2022.2.4,Win32,60.04202942,Chrome,1504,1003,,,,,0,815,,,,,,,,,,,,,,,,,160,D,circle,0,1,,,,,,,,,,,,,,,,switch,letter,NA,k,Lo,,,,,,1.0047,1,,,,,,space,3.8656,high,0,0,0,0,1,,,,,,,,,
294208,2022-09-24_11h38.34.053,vts_reward_expectancy,2022.2.4,Win32,60.04202942,Chrome,1504,1003,,,,,1,816,,,,,,,,,,,,,,,,,167,U,star,1,1,,,,,,,,,,,,,,,,switch,number,numSwt,f,Lo,,,,,,0.850799999,1,,,,,,,,high,1,0,1,0,1,,,,,,,,,
294208,2022-09-24_11h38.34.053,vts_reward_expectancy,2022.2.4,Win32,60.04202942,Chrome,1504,1003,,,,,0,816,,,,,,,,,,,,,,,,,181,F,circle,1,0,,,,,,,,,,,,,,,,repeat,number,numRpt,f,Hi,,,,,,0.8046,1,,,,,,,,high,2,0,2,0,1,,,,,,,,,
294208,2022-09-24_11h38.34.053,vts_reward_expectancy,2022.2.4,Win32,60.04202942,Chrome,1504,1003,,,,,1,817,,,,,,,,,,,,,,,,,132,Y,star,1,0,,,,,,,,,,,,,,,,repeat,number,numRpt,d,Lo,,,,,,0.828599999,1,,,,,,,,high,3,0,3,0,1,,,,,,,,,
294208,2022-09-24_11h38.34.053,vts_reward_expectancy,2022.2.4,Win32,60.04202942,Chrome,1504,1003,,,,,0,817,,,,,,,,,,,,,,,,,146,B,circle,1,0,,,,,,,,,,,,,,,,repeat,number,numRpt,d,Hi,,,,,,0.7612,1,,,,,,,,high,4,0,4,0,1,,,,,,,,,
294208,2022-09-24_11h38.34.053,vts_reward_expectancy,2022.2.4,Win32,60.04202942,Chrome,1504,1003,,,,,1,818,,,,,,,,,,,,,,,,,139,S,star,1,0,,,,,,,,,,,,,,,,switch,letter,lettSwt,k,Lo,,,,,,0.1931,1,,,,,,,,high,5,0,5,0,1,,,,,,,,,
294208,2022-09-24_11h38.34.053,vts_reward_expectancy,2022.2.4,Win32,60.04202942,Chrome,1504,1003,,,,,0,818,,,,,,,,,,,,,,,,,174,W,circle,0,0,,,,,,,,,,,,,,,,switch,number,NA,d,Lo,,,,,,0.467,1,,,,,,,,high,6,0,6,0,1,,,,,,,,,
294208,2022-09-24_11h38.34.053,vts_reward_expectancy,2022.2.4,Win32,60.04202942,Chrome,1504,1003,,,,,0,818,,,,,,,,,,,,,,,,,125,H,star,0,1,,,,,,,,,,,,,,,,repeat,number,NA,f,Lo,,,,,,0.2201,1,,,,,,,,high,7,0,7,0,1,,,,,,,,,
294208,2022-09-24_11h38.34.053,vts_reward_expectancy,2022.2.4,Win32,60.04202942,Chrome,1504,1003,,,,,0,818,,,,,,,,,,,,,,,,,160,D,star,0,1,,,,,,,,,,,,,,,,repeat,number,NA,d,Lo,,,,,,0.027099999,1,,,,,,,,high,8,0,8,0,1,,,,,,,,,
294208,2022-09-24_11h38.34.053,vts_reward_expectancy,2022.2.4,Win32,60.04202942,Chrome,1504,1003,,,,,0,818,,,,,,,,,,,,,,,,,167,U,circle,1,1,,,,,,,,,,,,,,,,switch,letter,lettSwt,k,Hi,,,,,,0.8703,1,,,,,,,,high,9,0,9,0,1,,,,,,,,,
294208,2022-09-24_11h38.34.053,vts_reward_expectancy,2022.2.4,Win32,60.04202942,Chrome,1504,1003,,,,,10,828,,,,,,,,,,,,,,,,,181,F,circle,1,0,,,,,,,,,,,,,,,,switch,number,numSwt,f,Hi,,,,,,0.004900001,1,,,,,,,,high,10,0,10,0,1,,,,,,,,,
294208,2022-09-24_11h38.34.053,vts_reward_expectancy,2022.2.4,Win32,60.04202942,Chrome,1504,1003,,,,,10,838,,,,,,,,,,,,,,,,,132,Y,star,1,0,,,,,,,,,,,,,,,,switch,letter,lettSwt,k,Lo,,,,,,0.0597,1,,,,,,,,high,11,0,11,0,1,,,,,,,,,
294208,2022-09-24_11h38.34.053,vts_reward_expectancy,2022.2.4,Win32,60.04202942,Chrome,1504,1003,,,,,10,848,,,,,,,,,,,,,,,,,146,B,circle,1,0,,,,,,,,,,,,,,,,repeat,letter,lettRpt,j,Hi,,,,,,0.199400001,1,,,,,,,,high,12,0,12,0,1,,,,,,,,,
294208,2022-09-24_11h38.34.053,vts_reward_expectancy,2022.2.4,Win32,60.04202942,Chrome,1504,1003,,,,,1,849,,,,,,,,,,,,,,,,,139,S,star,1,0,,,,,,,,,,,,,,,,repeat,letter,lettRpt,k,Lo,,,,,,0.015799999,1,,,,,,,,high,13,0,13,0,1,,,,,,,,,
294208,2022-09-24_11h38.34.053,vts_reward_expectancy,2022.2.4,Win32,60.04202942,Chrome,1504,1003,,,,,10,859,,,,,,,,,,,,,,,,,174,W,circle,1,0,,,,,,,,,,,,,,,,switch,number,numSwt,f,Hi,,,,,,0.118,1,,,,,,,,high,14,0,14,0,1,,,,,,,,,
294208,2022-09-24_11h38.34.053,vts_reward_expectancy,2022.2.4,Win32,60.04202942,Chrome,1504,1003,,,,,1,860,,,,,,,,,,,,,,,,,125,H,star,1,0,,,,,,,,,,,,,,,,switch,letter,lettSwt,j,Lo,,,,,,0.071400001,1,,,,,,,,high,15,0,15,0,1,,,,,,,,,
294208,2022-09-24_11h38.34.053,vts_reward_expectancy,2022.2.4,Win32,60.04202942,Chrome,1504,1003,,,,,0,860,,,,,,,,,,,,,,,,,139,B,circle,0,0,,,,,,,,,,,,,,,,switch,number,NA,f,Lo,,,,,,0.000799999,1,,,,,,,,high,16,0,16,0,1,,,,,,,,,
294208,2022-09-24_11h38.34.053,vts_reward_expectancy,2022.2.4,Win32,60.04202942,Chrome,1504,1003,,,,,10,870,,,,,,,,,,,,,,,,,125,H,star,1,1,,,,,,,,,,,,,,,,repeat,number,numRpt,d,Lo,,,,,,0.033099999,1,,,,,,,,high,17,0,17,0,1,,,,,,,,,
294208,2022-09-24_11h38.34.053,vts_reward_expectancy,2022.2.4,Win32,60.04202942,Chrome,1504,1003,,,,,10,880,,,,,,,,,,,,,,,,,167,F,circle,1,0,,,,,,,,,,,,,,,,switch,letter,lettSwt,j,Hi,,,,,,0.1169,1,,,,,,,,high,18,0,18,0,1,,,,,,,,,
294208,2022-09-24_11h38.34.053,vts_reward_expectancy,2022.2.4,Win32,60.04202942,Chrome,1504,1003,,,,,0,880,,,,,,,,,,,,,,,,,174,Y,star,0,0,,,,,,,,,,,,,,,,repeat,letter,NA,j,Hi,,,,,,0.2999,1,,,,,,,,high,19,0,19,0,1,,,,,,,,,
294208,2022-09-24_11h38.34.053,vts_reward_expectancy,2022.2.4,Win32,60.04202942,Chrome,1504,1003,,,,,1,881,,,,,,,,,,,,,,,,,146,W,star,1,1,,,,,,,,,,,,,,,,repeat,letter,lettRpt,k,Lo,,,,,,0.1357,1,,,,,,,,high,20,0,20,0,1,,,,,,,,,
294208,2022-09-24_11h38.34.053,vts_reward_expectancy,2022.2.4,Win32,60.04202942,Chrome,1504,1003,,,,,0,881,,,,,,,,,,,,,,,,,132,D,circle,1,0,,,,,,,,,,,,,,,,switch,number,numSwt,d,Hi,,,,,,0.817099999,1,,,,,,,,high,21,0,21,0,1,,,,,,,,,
294208,2022-09-24_11h38.34.053,vts_reward_expectancy,2022.2.4,Win32,60.04202942,Chrome,1504,1003,,,,,0,881,,,,,,,,,,,,,,,,,160,U,circle,0,0,,,,,,,,,,,,,,,,repeat,number,NA,d,Hi,,,,,,0.183900001,1,,,,,,,,high,22,0,22,0,1,,,,,,,,,
294208,2022-09-24_11h38.34.053,vts_reward_expectancy,2022.2.4,Win32,60.04202942,Chrome,1504,1003,,,,,1,882,,,,,,,,,,,,,,,,,181,S,star,1,1,,,,,,,,,,,,,,,,switch,letter,lettSwt,k,Lo,,,,,,0.1172,1,,,,,,,,high,23,0,23,0,1,,,,,,,,,
294208,2022-09-24_11h38.34.053,vts_reward_expectancy,2022.2.4,Win32,60.04202942,Chrome,1504,1003,,,,,10,892,,,,,,,,,,,,,,,,,160,F,circle,1,0,,,,,,,,,,,,,,,,switch,number,numSwt,f,Hi,,,,,,0.083599999,1,,,,,,,,high,24,0,24,0,1,,,,,,,,,
294208,2022-09-24_11h38.34.053,vts_reward_expectancy,2022.2.4,Win32,60.04202942,Chrome,1504,1003,,,,,1,893,,,,,,,,,,,,,,,,,146,W,star,1,0,,,,,,,,,,,,,,,,repeat,number,numRpt,d,Lo,,,,,,0.372,1,,,,,,,,high,25,0,25,0,1,,,,,,,,,
294208,2022-09-24_11h38.34.053,vts_reward_expectancy,2022.2.4,Win32,60.04202942,Chrome,1504,1003,,,,,1,894,,,,,,,,,,,,,,,,,139,U,star,1,0,,,,,,,,,,,,,,,,repeat,number,numRpt,d,Lo,,,,,,0.0008,1,,,,,,,,high,26,0,26,0,1,,,,,,,,,
294208,2022-09-24_11h38.34.053,vts_reward_expectancy,2022.2.4,Win32,60.04202942,Chrome,1504,1003,,,,,0,894,,,,,,,,,,,,,,,,,174,H,circle,0,0,,,,,,,,,,,,,,,,switch,letter,NA,k,Lo,,,,,,1.2842,1,,,,,,,,high,27,0,27,0,1,,,,,,,,,
294208,2022-09-24_11h38.34.053,vts_reward_expectancy,2022.2.4,Win32,60.04202942,Chrome,1504,1003,,,,,0,894,,,,,,,,,,,,,,,,,181,D,circle,0,1,,,,,,,,,,,,,,,,switch,number,NA,d,Lo,,,,,,0.0007,1,,,,,,,,high,28,0,28,0,1,,,,,,,,,
294208,2022-09-24_11h38.34.053,vts_reward_expectancy,2022.2.4,Win32,60.04202942,Chrome,1504,1003,,,,,0,894,,,,,,,,,,,,,,,,,167,S,star,0,1,,,,,,,,,,,,,,,,switch,letter,NA,j,Lo,,,,,,0.0007,1,,,,,,,,high,29,0,29,0,1,,,,,,,,,
294208,2022-09-24_11h38.34.053,vts_reward_expectancy,2022.2.4,Win32,60.04202942,Chrome,1504,1003,,,,,10,904,,,,,,,,,,,,,,,,,125,B,circle,1,1,,,,,,,,,,,,,,,,switch,number,numSwt,d,Hi,,,,,,0.0531,1,,,,,,,,high,30,0,30,0,1,,,,,,,,,
294208,2022-09-24_11h38.34.053,vts_reward_expectancy,2022.2.4,Win32,60.04202942,Chrome,1504,1003,,,,,1,905,,,,,,,,,,,,,,,,,132,Y,star,1,0,,,,,,,,,,,,,,,,repeat,number,numRpt,d,Lo,,,,,,0.056400001,1,,,,,,,,high,31,0,31,0,1,,,,,,,,,
294208,2022-09-24_11h38.34.053,vts_reward_expectancy,2022.2.4,Win32,60.04202942,Chrome,1504,1003,,,,,10,915,,,,,,,,,,,,,,,,,167,B,hexagon,1,0,,,,,,,,,,,,,,,,repeat,number,numRpt,f,Lo,,,,,,0.0227,2,,,,,,space,2.0946,low,0,0,0,0,1,,,,,,,,,
294208,2022-09-24_11h38.34.053,vts_reward_expectancy,2022.2.4,Win32,60.04202942,Chrome,1504,1003,,,,,10,925,,,,,,,,,,,,,,,,,160,D,triangle,1,0,,,,,,,,,,,,,,,,switch,letter,lettSwt,j,Hi,,,,,,0.017200001,2,,,,,,,,low,1,0,1,0,1,,,,,,,,,
294208,2022-09-24_11h38.34.053,vts_reward_expectancy,2022.2.4,Win32,60.04202942,Chrome,1504,1003,,,,,0,925,,,,,,,,,,,,,,,,,181,W,hexagon,0,0,,,,,,,,,,,,,,,,repeat,letter,NA,j,Hi,,,,,,0.066400001,2,,,,,,,,low,2,0,2,0,1,,,,,,,,,
294208,2022-09-24_11h38.34.053,vts_reward_expectancy,2022.2.4,Win32,60.04202942,Chrome,1504,1003,,,,,0,925,,,,,,,,,,,,,,,,,139,H,triangle,0,1,,,,,,,,,,,,,,,,repeat,letter,NA,k,Hi,,,,,,0.119,2,,,,,,,,low,3,0,3,0,1,,,,,,,,,
294208,2022-09-24_11h38.34.053,vts_reward_expectancy,2022.2.4,Win32,60.04202942,Chrome,1504,1003,,,,,0,925,,,,,,,,,,,,,,,,,146,U,triangle,1,1,,,,,,,,,,,,,,,,repeat,letter,lettRpt,k,Hi,,,,,,0.356900001,2,,,,,,,,low,4,0,4,0,1,,,,,,,,,
294208,2022-09-24_11h38.34.053,vts_reward_expectancy,2022.2.4,Win32,60.04202942,Chrome,1504,1003,,,,,10,935,,,,,,,,,,,,,,,,,125,S,hexagon,1,0,,,,,,,,,,,,,,,,repeat,letter,lettRpt,k,Lo,,,,,,0.0598,2,,,,,,,,low,5,0,5,0,1,,,,,,,,,
294208,2022-09-24_11h38.34.053,vts_reward_expectancy,2022.2.4,Win32,60.04202942,Chrome,1504,1003,,,,,0,935,,,,,,,,,,,,,,,,,174,Y,hexagon,0,0,,,,,,,,,,,,,,,,repeat,letter,NA,j,Lo,,,,,,0.36,2,,,,,,,,low,6,0,6,0,1,,,,,,,,,
294208,2022-09-24_11h38.34.053,vts_reward_expectancy,2022.2.4,Win32,60.04202942,Chrome,1504,1003,,,,,0,935,,,,,,,,,,,,,,,,,132,F,triangle,1,1,,,,,,,,,,,,,,,,repeat,letter,lettRpt,j,Hi,,,,,,0.1005,2,,,,,,,,low,7,0,7,0,1,,,,,,,,,
294208,2022-09-24_11h38.34.053,vts_reward_expectancy,2022.2.4,Win32,60.04202942,Chrome,1504,1003,,,,,0,935,,,,,,,,,,,,,,,,,167,B,hexagon,0,0,,,,,,,,,,,,,,,,repeat,letter,NA,k,Hi,,,,,,0.000599999,2,,,,,,,,low,8,0,8,0,1,,,,,,,,,
294208,2022-09-24_11h38.34.053,vts_reward_expectancy,2022.2.4,Win32,60.04202942,Chrome,1504,1003,,,,,0,935,,,,,,,,,,,,,,,,,160,D,triangle,0,1,,,,,,,,,,,,,,,,switch,number,NA,d,Hi,,,,,,0.0116,2,,,,,,,,low,9,0,9,0,1,,,,,,,,,
294208,2022-09-24_11h38.34.053,vts_reward_expectancy,2022.2.4,Win32,60.04202942,Chrome,1504,1003,,,,,0,935,,,,,,,,,,,,,,,,,181,W,triangle,0,1,,,,,,,,,,,,,,,,repeat,number,NA,d,Hi,,,,,,0.1334,2,,,,,,,,low,10,0,10,0,1,,,,,,,,,
294208,2022-09-24_11h38.34.053,vts_reward_expectancy,2022.2.4,Win32,60.04202942,Chrome,1504,1003,,,,,0,935,,,,,,,,,,,,,,,,,139,H,hexagon,0,1,,,,,,,,,,,,,,,,repeat,number,NA,f,Hi,,,,,,0.1014,2,,,,,,,,low,11,0,11,0,1,,,,,,,,,
294208,2022-09-24_11h38.34.053,vts_reward_expectancy,2022.2.4,Win32,60.04202942,Chrome,1504,1003,,,,,0,935,,,,,,,,,,,,,,,,,146,U,hexagon,0,1,,,,,,,,,,,,,,,,repeat,number,NA,f,Hi,,,,,,0.0512,2,,,,,,,,low,12,0,12,0,1,,,,,,,,,
294208,2022-09-24_11h38.34.053,vts_reward_expectancy,2022.2.4,Win32,60.04202942,Chrome,1504,1003,,,,,0,935,,,,,,,,,,,,,,,,,125,S,triangle,1,1,,,,,,,,,,,,,,,,repeat,number,numRpt,d,Hi,,,,,,0.3329,2,,,,,,,,low,13,0,13,0,1,,,,,,,,,
294208,2022-09-24_11h38.34.053,vts_reward_expectancy,2022.2.4,Win32,60.04202942,Chrome,1504,1003,,,,,0,935,,,,,,,,,,,,,,,,,174,Y,hexagon,0,0,,,,,,,,,,,,,,,,repeat,number,NA,d,Hi,,,,,,0.1516,2,,,,,,,,low,14,0,14,0,1,,,,,,,,,
294208,2022-09-24_11h38.34.053,vts_reward_expectancy,2022.2.4,Win32,60.04202942,Chrome,1504,1003,,,,,1,936,,,,,,,,,,,,,,,,,132,F,triangle,1,1,,,,,,,,,,,,,,,,switch,letter,lettSwt,j,Hi,,,,,,0.0171,2,,,,,,,,low,15,0,15,0,1,,,,,,,,,
294208,2022-09-24_11h38.34.053,vts_reward_expectancy,2022.2.4,Win32,60.04202942,Chrome,1504,1003,,,,,10,946,,,,,,,,,,,,,,,,,181,Y,triangle,1,0,,,,,,,,,,,,,,,,repeat,letter,lettRpt,k,Hi,,,,,,0.000599999,2,,,,,,,,low,16,0,16,0,1,,,,,,,,,
294208,2022-09-24_11h38.34.053,vts_reward_expectancy,2022.2.4,Win32,60.04202942,Chrome,1504,1003,,,,,0,946,,,,,,,,,,,,,,,,,160,D,hexagon,0,0,,,,,,,,,,,,,,,,repeat,letter,NA,k,Hi,,,,,,0.073,2,,,,,,,,low,17,0,17,0,1,,,,,,,,,
294208,2022-09-24_11h38.34.053,vts_reward_expectancy,2022.2.4,Win32,60.04202942,Chrome,1504,1003,,,,,0,946,,,,,,,,,,,,,,,,,167,U,triangle,1,1,,,,,,,,,,,,,,,,switch,number,numSwt,f,Hi,,,,,,1.5114,2,,,,,,,,low,18,0,18,0,1,,,,,,,,,
294208,2022-09-24_11h38.34.053,vts_reward_expectancy,2022.2.4,Win32,60.04202942,Chrome,1504,1003,,,,,0,946,,,,,,,,,,,,,,,,,146,F,hexagon,-1,0,,,,,,,,,,,,,,,,switch,no_choice,NA,,Hi,,,,,,,2,,,,,,,,low,19,0,19,0,1,,,,,,,,,
294208,2022-09-24_11h38.34.053,vts_reward_expectancy,2022.2.4,Win32,60.04202942,Chrome,1504,1003,,,,,0,946,,,,,,,,,,,,,,,,,174,S,triangle,1,0,,,,,,,,,,,,,,,,switch,letter,lettSwt,k,Hi,,,,,,0.118200001,2,,,,,,,,low,20,0,20,0,1,,,,,,,,,
294208,2022-09-24_11h38.34.053,vts_reward_expectancy,2022.2.4,Win32,60.04202942,Chrome,1504,1003,,,,,1,947,,,,,,,,,,,,,,,,,132,H,hexagon,1,0,,,,,,,,,,,,,,,,repeat,letter,lettRpt,j,Lo,,,,,,0.110599999,2,,,,,,,,low,21,0,21,0,1,,,,,,,,,
294208,2022-09-24_11h38.34.053,vts_reward_expectancy,2022.2.4,Win32,60.04202942,Chrome,1504,1003,,,,,0,947,,,,,,,,,,,,,,,,,125,B,hexagon,-1,0,,,,,,,,,,,,,,,,switch,no_choice,NA,,Lo,,,,,,,2,,,,,,,,low,22,0,22,0,1,,,,,,,,,
294208,2022-09-24_11h38.34.053,vts_reward_expectancy,2022.2.4,Win32,60.04202942,Chrome,1504,1003,,,,,0,947,,,,,,,,,,,,,,,,,139,W,triangle,1,0,,,,,,,,,,,,,,,,switch,letter,lettSwt,k,Hi,,,,,,0.9563,2,,,,,,,,low,23,0,23,0,1,,,,,,,,,
294208,2022-09-24_11h38.34.053,vts_reward_expectancy,2022.2.4,Win32,60.04202942,Chrome,1504,1003,,,,,1,948,,,,,,,,,,,,,,,,,167,Y,hexagon,1,0,,,,,,,,,,,,,,,,switch,number,numSwt,f,Lo,,,,,,0.5903,2,,,,,,,,low,24,0,24,0,1,,,,,,,,,
294208,2022-09-24_11h38.34.053,vts_reward_expectancy,2022.2.4,Win32,60.04202942,Chrome,1504,1003,,,,,0,948,,,,,,,,,,,,,,,,,146,S,triangle,-1,0,,,,,,,,,,,,,,,,switch,no_choice,NA,,Lo,,,,,,,2,,,,,,,,low,25,0,25,0,1,,,,,,,,,
294208,2022-09-24_11h38.34.053,vts_reward_expectancy,2022.2.4,Win32,60.04202942,Chrome,1504,1003,,,,,10,958,,,,,,,,,,,,,,,,,160,B,hexagon,1,0,,,,,,,,,,,,,,,,switch,number,numSwt,f,Lo,,,,,,0.0007,2,,,,,,,,low,26,0,26,0,1,,,,,,,,,
294208,2022-09-24_11h38.34.053,vts_reward_expectancy,2022.2.4,Win32,60.04202942,Chrome,1504,1003,,,,,0,958,,,,,,,,,,,,,,,,,139,D,triangle,0,0,,,,,,,,,,,,,,,,repeat,number,NA,f,Lo,,,,,,0.1094,2,,,,,,,,low,27,0,27,0,1,,,,,,,,,
294208,2022-09-24_11h38.34.053,vts_reward_expectancy,2022.2.4,Win32,60.04202942,Chrome,1504,1003,,,,,0,958,,,,,,,,,,,,,,,,,132,U,hexagon,0,1,,,,,,,,,,,,,,,,switch,letter,NA,j,Lo,,,,,,0.0168,2,,,,,,,,low,28,0,28,0,1,,,,,,,,,
294208,2022-09-24_11h38.34.053,vts_reward_expectancy,2022.2.4,Win32,60.04202942,Chrome,1504,1003,,,,,1,959,,,,,,,,,,,,,,,,,125,F,triangle,1,1,,,,,,,,,,,,,,,,repeat,letter,lettRpt,j,Hi,,,,,,0.0676,2,,,,,,,,low,29,0,29,0,1,,,,,,,,,
294208,2022-09-24_11h38.34.053,vts_reward_expectancy,2022.2.4,Win32,60.04202942,Chrome,1504,1003,,,,,0,959,,,,,,,,,,,,,,,,,174,W,hexagon,0,0,,,,,,,,,,,,,,,,repeat,letter,NA,j,Hi,,,,,,0.043599999,2,,,,,,,,low,30,0,30,0,1,,,,,,,,,
294208,2022-09-24_11h38.34.053,vts_reward_expectancy,2022.2.4,Win32,60.04202942,Chrome,1504,1003,,,,,0,959,,,,,,,,,,,,,,,,,181,H,triangle,0,1,,,,,,,,,,,,,,,,switch,number,NA,d,Hi,,,,,,0.134799999,2,,,,,,,,low,31,0,31,0,1,,,,,,,,,
294208,2022-09-24_11h38.34.053,vts_reward_expectancy,2022.2.4,Win32,60.04202942,Chrome,1504,1003,,,,,0,959,,,,,,,,,,,,,,,,,167,B,hexagon,0,1,,,,,,,,,,,,,,,,repeat,number,NA,d,Hi,,,,,,0.0666,3,,,,,,space,1.1672,low,0,0,0,0,1,,,,,,,,,
294208,2022-09-24_11h38.34.053,vts_reward_expectancy,2022.2.4,Win32,60.04202942,Chrome,1504,1003,,,,,0,959,,,,,,,,,,,,,,,,,181,F,triangle,1,1,,,,,,,,,,,,,,,,repeat,number,numRpt,f,Hi,,,,,,0.1014,3,,,,,,,,low,1,0,1,0,1,,,,,,,,,
294208,2022-09-24_11h38.34.053,vts_reward_expectancy,2022.2.4,Win32,60.04202942,Chrome,1504,1003,,,,,0,959,,,,,,,,,,,,,,,,,174,S,hexagon,0,0,,,,,,,,,,,,,,,,repeat,number,NA,d,Hi,,,,,,0.1396,3,,,,,,,,low,2,0,2,0,1,,,,,,,,,
294208,2022-09-24_11h38.34.053,vts_reward_expectancy,2022.2.4,Win32,60.04202942,Chrome,1504,1003,,,,,0,959,,,,,,,,,,,,,,,,,146,Y,triangle,0,1,,,,,,,,,,,,,,,,switch,letter,NA,j,Hi,,,,,,0.0043,3,,,,,,,,low,3,0,3,0,1,,,,,,,,,
294208,2022-09-24_11h38.34.053,vts_reward_expectancy,2022.2.4,Win32,60.04202942,Chrome,1504,1003,,,,,1,960,,,,,,,,,,,,,,,,,160,U,hexagon,1,1,,,,,,,,,,,,,,,,repeat,letter,lettRpt,k,Lo,,,,,,0.0769,3,,,,,,,,low,4,0,4,0,1,,,,,,,,,
294208,2022-09-24_11h38.34.053,vts_reward_expectancy,2022.2.4,Win32,60.04202942,Chrome,1504,1003,,,,,1,961,,,,,,,,,,,,,,,,,132,W,triangle,1,0,,,,,,,,,,,,,,,,switch,number,numSwt,d,Hi,,,,,,0.0006,3,,,,,,,,low,5,0,5,0,1,,,,,,,,,
294208,2022-09-24_11h38.34.053,vts_reward_expectancy,2022.2.4,Win32,60.04202942,Chrome,1504,1003,,,,,0,961,,,,,,,,,,,,,,,,,125,H,hexagon,0,0,,,,,,,,,,,,,,,,switch,letter,NA,k,Hi,,,,,,0.0345,3,,,,,,,,low,6,0,6,0,1,,,,,,,,,
294208,2022-09-24_11h38.34.053,vts_reward_expectancy,2022.2.4,Win32,60.04202942,Chrome,1504,1003,,,,,0,961,,,,,,,,,,,,,,,,,139,D,triangle,1,1,,,,,,,,,,,,,,,,repeat,letter,lettRpt,j,Hi,,,,,,0.104099999,3,,,,,,,,low,7,0,7,0,1,,,,,,,,,
294208,2022-09-24_11h38.34.053,vts_reward_expectancy,2022.2.4,Win32,60.04202942,Chrome,1504,1003,,,,,1,962,,,,,,,,,,,,,,,,,167,B,hexagon,1,0,,,,,,,,,,,,,,,,repeat,letter,lettRpt,j,Lo,,,,,,0.1087,3,,,,,,,,low,8,0,8,0,1,,,,,,,,,
294208,2022-09-24_11h38.34.053,vts_reward_expectancy,2022.2.4,Win32,60.04202942,Chrome,1504,1003,,,,,1,963,,,,,,,,,,,,,,,,,181,F,triangle,1,0,,,,,,,,,,,,,,,,repeat,letter,lettRpt,j,Hi,,,,,,0.000700001,3,,,,,,,,low,9,0,9,0,1,,,,,,,,,
294208,2022-09-24_11h38.34.053,vts_reward_expectancy,2022.2.4,Win32,60.04202942,Chrome,1504,1003,,,,,0,963,,,,,,,,,,,,,,,,,174,S,triangle,0,0,,,,,,,,,,,,,,,,switch,number,NA,d,Hi,,,,,,0.0329,3,,,,,,,,low,10,0,10,0,1,,,,,,,,,
294208,2022-09-24_11h38.34.053,vts_reward_expectancy,2022.2.4,Win32,60.04202942,Chrome,1504,1003,,,,,1,964,,,,,,,,,,,,,,,,,146,Y,hexagon,1,1,,,,,,,,,,,,,,,,repeat,number,numRpt,d,Lo,,,,,,0.0562,3,,,,,,,,low,11,0,11,0,1,,,,,,,,,
294208,2022-09-24_11h38.34.053,vts_reward_expectancy,2022.2.4,Win32,60.04202942,Chrome,1504,1003,,,,,1,965,,,,,,,,,,,,,,,,,160,U,hexagon,1,0,,,,,,,,,,,,,,,,repeat,number,numRpt,f,Lo,,,,,,0.0173,3,,,,,,,,low,12,0,12,0,1,,,,,,,,,
294208,2022-09-24_11h38.34.053,vts_reward_expectancy,2022.2.4,Win32,60.04202942,Chrome,1504,1003,,,,,0,965,,,,,,,,,,,,,,,,,132,W,triangle,0,0,,,,,,,,,,,,,,,,switch,letter,NA,j,Lo,,,,,,0.0005,3,,,,,,,,low,13,0,13,0,1,,,,,,,,,
294208,2022-09-24_11h38.34.053,vts_reward_expectancy,2022.2.4,Win32,60.04202942,Chrome,1504,1003,,,,,0,965,,,,,,,,,,,,,,,,,125,H,hexagon,0,1,,,,,,,,,,,,,,,,repeat,letter,NA,k,Lo,,,,,,0.033,3,,,,,,,,low,14,0,14,0,1,,,,,,,,,
294208,2022-09-24_11h38.34.053,vts_reward_expectancy,2022.2.4,Win32,60.04202942,Chrome,1504,1003,,,,,0,965,,,,,,,,,,,,,,,,,139,D,triangle,0,1,,,,,,,,,,,,,,,,switch,number,NA,f,Lo,,,,,,0.1103,3,,,,,,,,low,15,0,15,0,1,,,,,,,,,
294208,2022-09-24_11h38.34.053,vts_reward_expectancy,2022.2.4,Win32,60.04202942,Chrome,1504,1003,,,,,0,965,,,,,,,,,,,,,,,,,160,Y,triangle,1,1,,,,,,,,,,,,,,,,repeat,number,numRpt,f,Hi,,,,,,0.0396,3,,,,,,,,low,16,0,16,0,1,,,,,,,,,
294208,2022-09-24_11h38.34.053,vts_reward_expectancy,2022.2.4,Win32,60.04202942,Chrome,1504,1003,,,,,0,965,,,,,,,,,,,,,,,,,174,H,hexagon,0,0,,,,,,,,,,,,,,,,switch,letter,NA,k,Hi,,,,,,0.0833,3,,,,,,,,low,17,0,17,0,1,,,,,,,,,
294208,2022-09-24_11h38.34.053,vts_reward_expectancy,2022.2.4,Win32,60.04202942,Chrome,1504,1003,,,,,0,965,,,,,,,,,,,,,,,,,167,B,triangle,0,1,,,,,,,,,,,,,,,,switch,number,NA,d,Hi,,,,,,0.0939,3,,,,,,,,low,18,0,18,0,1,,,,,,,,,
294208,2022-09-24_11h38.34.053,vts_reward_expectancy,2022.2.4,Win32,60.04202942,Chrome,1504,1003,,,,,0,965,,,,,,,,,,,,,,,,,181,U,hexagon,0,1,,,,,,,,,,,,,,,,repeat,number,NA,d,Hi,,,,,,0.0338,3,,,,,,,,low,19,0,19,0,1,,,,,,,,,
294208,2022-09-24_11h38.34.053,vts_reward_expectancy,2022.2.4,Win32,60.04202942,Chrome,1504,1003,,,,,1,966,,,,,,,,,,,,,,,,,132,D,hexagon,1,1,,,,,,,,,,,,,,,,switch,letter,lettSwt,j,Lo,,,,,,0.1214,3,,,,,,,,low,20,0,20,0,1,,,,,,,,,
294208,2022-09-24_11h38.34.053,vts_reward_expectancy,2022.2.4,Win32,60.04202942,Chrome,1504,1003,,,,,0,966,,,,,,,,,,,,,,,,,146,W,triangle,1,0,,,,,,,,,,,,,,,,repeat,letter,lettRpt,k,Hi,,,,,,2.4255,3,,,,,,,,low,21,0,21,0,1,,,,,,,,,
294208,2022-09-24_11h38.34.053,vts_reward_expectancy,2022.2.4,Win32,60.04202942,Chrome,1504,1003,,,,,0,966,,,,,,,,,,,,,,,,,125,S,triangle,0,0,,,,,,,,,,,,,,,,repeat,letter,NA,j,Hi,,,,,,0.472299999,3,,,,,,,,low,22,0,22,0,1,,,,,,,,,
294208,2022-09-24_11h38.34.053,vts_reward_expectancy,2022.2.4,Win32,60.04202942,Chrome,1504,1003,,,,,10,976,,,,,,,,,,,,,,,,,139,F,hexagon,1,1,,,,,,,,,,,,,,,,repeat,letter,lettRpt,j,Lo,,,,,,0.652,3,,,,,,,,low,23,0,23,0,1,,,,,,,,,
294208,2022-09-24_11h38.34.053,vts_reward_expectancy,2022.2.4,Win32,60.04202942,Chrome,1504,1003,,,,,0,976,,,,,,,,,,,,,,,,,132,U,triangle,1,0,,,,,,,,,,,,,,,,repeat,letter,lettRpt,k,Hi,,,,,,0.067900001,3,,,,,,,,low,24,0,24,0,1,,,,,,,,,
294208,2022-09-24_11h38.34.053,vts_reward_expectancy,2022.2.4,Win32,60.04202942,Chrome,1504,1003,,,,,0,976,,,,,,,,,,,,,,,,,125,B,hexagon,0,0,,,,,,,,,,,,,,,,repeat,letter,NA,k,Hi,,,,,,0.0742,3,,,,,,,,low,25,0,25,0,1,,,,,,,,,
294208,2022-09-24_11h38.34.053,vts_reward_expectancy,2022.2.4,Win32,60.04202942,Chrome,1504,1003,,,,,0,976,,,,,,,,,,,,,,,,,181,H,hexagon,0,1,,,,,,,,,,,,,,,,repeat,letter,NA,k,Hi,,,,,,0.125099999,3,,,,,,,,low,26,0,26,0,1,,,,,,,,,
294208,2022-09-24_11h38.34.053,vts_reward_expectancy,2022.2.4,Win32,60.04202942,Chrome,1504,1003,,,,,0,976,,,,,,,,,,,,,,,,,139,S,triangle,1,1,,,,,,,,,,,,,,,,repeat,letter,lettRpt,k,Hi,,,,,,0.1006,3,,,,,,,,low,27,0,27,0,1,,,,,,,,,
294208,2022-09-24_11h38.34.053,vts_reward_expectancy,2022.2.4,Win32,60.04202942,Chrome,1504,1003,,,,,0,976,,,,,,,,,,,,,,,,,167,F,hexagon,0,0,,,,,,,,,,,,,,,,repeat,letter,NA,k,Hi,,,,,,0.0006,3,,,,,,,,low,28,0,28,0,1,,,,,,,,,
294208,2022-09-24_11h38.34.053,vts_reward_expectancy,2022.2.4,Win32,60.04202942,Chrome,1504,1003,,,,,0,976,,,,,,,,,,,,,,,,,146,D,triangle,0,1,,,,,,,,,,,,,,,,repeat,letter,NA,k,Hi,,,,,,0.033799999,3,,,,,,,,low,29,0,29,0,1,,,,,,,,,
294208,2022-09-24_11h38.34.053,vts_reward_expectancy,2022.2.4,Win32,60.04202942,Chrome,1504,1003,,,,,0,976,,,,,,,,,,,,,,,,,174,Y,triangle,1,1,,,,,,,,,,,,,,,,repeat,letter,lettRpt,k,Hi,,,,,,0.3517,3,,,,,,,,low,30,0,30,0,1,,,,,,,,,
294208,2022-09-24_11h38.34.053,vts_reward_expectancy,2022.2.4,Win32,60.04202942,Chrome,1504,1003,,,,,1,977,,,,,,,,,,,,,,,,,160,W,hexagon,1,0,,,,,,,,,,,,,,,,repeat,letter,lettRpt,k,Lo,,,,,,0.3016,3,,,,,,,,low,31,0,31,0,1,,,,,,,,,
294208,2022-09-24_11h38.34.053,vts_reward_expectancy,2022.2.4,Win32,60.04202942,Chrome,1504,1003,,,,,0,977,,,,,,,,,,,,,,,,,181,F,circle,0,0,,,,,,,,,,,,,,,,repeat,letter,NA,k,Lo,,,,,,0.0502,4,,,,,,space,1.736299999,high,0,0,0,0,1,,,,,,,,,
294208,2022-09-24_11h38.34.053,vts_reward_expectancy,2022.2.4,Win32,60.04202942,Chrome,1504,1003,,,,,1,978,,,,,,,,,,,,,,,,,125,S,star,1,1,,,,,,,,,,,,,,,,repeat,letter,lettRpt,k,Lo,,,,,,0.4002,4,,,,,,,,high,1,0,1,0,1,,,,,,,,,
294208,2022-09-24_11h38.34.053,vts_reward_expectancy,2022.2.4,Win32,60.04202942,Chrome,1504,1003,,,,,0,978,,,,,,,,,,,,,,,,,139,U,circle,0,0,,,,,,,,,,,,,,,,repeat,letter,NA,j,Lo,,,,,,0.275599999,4,,,,,,,,high,2,0,2,0,1,,,,,,,,,
294208,2022-09-24_11h38.34.053,vts_reward_expectancy,2022.2.4,Win32,60.04202942,Chrome,1504,1003,,,,,0,978,,,,,,,,,,,,,,,,,132,B,star,0,1,,,,,,,,,,,,,,,,repeat,letter,NA,k,Lo,,,,,,0.0668,4,,,,,,,,high,3,0,3,0,1,,,,,,,,,
294208,2022-09-24_11h38.34.053,vts_reward_expectancy,2022.2.4,Win32,60.04202942,Chrome,1504,1003,,,,,10,988,,,,,,,,,,,,,,,,,174,W,star,1,1,,,,,,,,,,,,,,,,repeat,letter,lettRpt,k,Lo,,,,,,0.018299999,4,,,,,,,,high,4,0,4,0,1,,,,,,,,,
294208,2022-09-24_11h38.34.053,vts_reward_expectancy,2022.2.4,Win32,60.04202942,Chrome,1504,1003,,,,,10,998,,,,,,,,,,,,,,,,,160,Y,circle,1,0,,,,,,,,,,,,,,,,repeat,letter,lettRpt,k,Hi,,,,,,0.025200001,4,,,,,,,,high,5,0,5,0,1,,,,,,,,,
294208,2022-09-24_11h38.34.053,vts_reward_expectancy,2022.2.4,Win32,60.04202942,Chrome,1504,1003,,,,,1,999,,,,,,,,,,,,,,,,,146,D,star,1,0,,,,,,,,,,,,,,,,switch,number,numSwt,d,Lo,,,,,,0.151599999,4,,,,,,,,high,6,0,6,0,1,,,,,,,,,
294208,2022-09-24_11h38.34.053,vts_reward_expectancy,2022.2.4,Win32,60.04202942,Chrome,1504,1003,,,,,10,1009,,,,,,,,,,,,,,,,,167,H,circle,1,0,,,,,,,,,,,,,,,,repeat,number,numRpt,f,Hi,,,,,,0.0227,4,,,,,,,,high,7,0,7,0,1,,,,,,,,,
294208,2022-09-24_11h38.34.053,vts_reward_expectancy,2022.2.4,Win32,60.04202942,Chrome,1504,1003,,,,,0,1009,,,,,,,,,,,,,,,,,181,F,circle,0,0,,,,,,,,,,,,,,,,repeat,number,NA,d,Hi,,,,,,0.115400001,4,,,,,,,,high,8,0,8,0,1,,,,,,,,,
294208,2022-09-24_11h38.34.053,vts_reward_expectancy,2022.2.4,Win32,60.04202942,Chrome,1504,1003,,,,,10,1019,,,,,,,,,,,,,,,,,125,S,star,1,1,,,,,,,,,,,,,,,,repeat,number,numRpt,d,Lo,,,,,,0.1831,4,,,,,,,,high,9,0,9,0,1,,,,,,,,,
294208,2022-09-24_11h38.34.053,vts_reward_expectancy,2022.2.4,Win32,60.04202942,Chrome,1504,1003,,,,,0,1019,,,,,,,,,,,,,,,,,139,U,star,0,0,,,,,,,,,,,,,,,,repeat,number,NA,f,Lo,,,,,,0.109599999,4,,,,,,,,high,10,0,10,0,1,,,,,,,,,
294208,2022-09-24_11h38.34.053,vts_reward_expectancy,2022.2.4,Win32,60.04202942,Chrome,1504,1003,,,,,0,1019,,,,,,,,,,,,,,,,,132,B,circle,1,1,,,,,,,,,,,,,,,,repeat,number,numRpt,d,Hi,,,,,,0.5602,4,,,,,,,,high,11,0,11,0,1,,,,,,,,,
294208,2022-09-24_11h38.34.053,vts_reward_expectancy,2022.2.4,Win32,60.04202942,Chrome,1504,1003,,,,,0,1019,,,,,,,,,,,,,,,,,174,W,circle,0,0,,,,,,,,,,,,,,,,repeat,number,NA,d,Hi,,,,,,0.000599999,4,,,,,,,,high,12,0,12,0,1,,,,,,,,,
294208,2022-09-24_11h38.34.053,vts_reward_expectancy,2022.2.4,Win32,60.04202942,Chrome,1504,1003,,,,,1,1020,,,,,,,,,,,,,,,,,160,Y,star,1,1,,,,,,,,,,,,,,,,switch,letter,lettSwt,k,Lo,,,,,,0.089099999,4,,,,,,,,high,13,0,13,0,1,,,,,,,,,
294208,2022-09-24_11h38.34.053,vts_reward_expectancy,2022.2.4,Win32,60.04202942,Chrome,1504,1003,,,,,10,1030,,,,,,,,,,,,,,,,,146,D,star,1,0,,,,,,,,,,,,,,,,repeat,letter,lettRpt,j,Lo,,,,,,0.071799999,4,,,,,,,,high,14,0,14,0,1,,,,,,,,,
294208,2022-09-24_11h38.34.053,vts_reward_expectancy,2022.2.4,Win32,60.04202942,Chrome,1504,1003,,,,,0,1030,,,,,,,,,,,,,,,,,167,H,circle,0,0,,,,,,,,,,,,,,,,repeat,letter,NA,k,Lo,,,,,,0.075400001,4,,,,,,,,high,15,0,15,0,1,,,,,,,,,
294208,2022-09-24_11h38.34.053,vts_reward_expectancy,2022.2.4,Win32,60.04202942,Chrome,1504,1003,,,,,0,1030,,,,,,,,,,,,,,,,,139,H,circle,1,1,,,,,,,,,,,,,,,,switch,number,numSwt,d,Hi,,,,,,0.066599999,4,,,,,,,,high,16,0,16,0,1,,,,,,,,,
294208,2022-09-24_11h38.34.053,vts_reward_expectancy,2022.2.4,Win32,60.04202942,Chrome,1504,1003,,,,,0,1030,,,,,,,,,,,,,,,,,146,B,star,0,0,,,,,,,,,,,,,,,,repeat,number,NA,f,Hi,,,,,,0.0845,4,,,,,,,,high,17,0,17,0,1,,,,,,,,,
294208,2022-09-24_11h38.34.053,vts_reward_expectancy,2022.2.4,Win32,60.04202942,Chrome,1504,1003,,,,,0,1030,,,,,,,,,,,,,,,,,181,Y,star,0,1,,,,,,,,,,,,,,,,repeat,number,NA,d,Hi,,,,,,0.050099999,4,,,,,,,,high,18,0,18,0,1,,,,,,,,,
294208,2022-09-24_11h38.34.053,vts_reward_expectancy,2022.2.4,Win32,60.04202942,Chrome,1504,1003,,,,,0,1030,,,,,,,,,,,,,,,,,125,S,circle,0,1,,,,,,,,,,,,,,,,repeat,number,NA,f,Hi,,,,,,0.1103,4,,,,,,,,high,19,0,19,0,1,,,,,,,,,
294208,2022-09-24_11h38.34.053,vts_reward_expectancy,2022.2.4,Win32,60.04202942,Chrome,1504,1003,,,,,0,1030,,,,,,,,,,,,,,,,,160,F,star,0,1,,,,,,,,,,,,,,,,switch,letter,NA,k,Hi,,,,,,0.058400001,4,,,,,,,,high,20,0,20,0,1,,,,,,,,,
294208,2022-09-24_11h38.34.053,vts_reward_expectancy,2022.2.4,Win32,60.04202942,Chrome,1504,1003,,,,,10,1040,,,,,,,,,,,,,,,,,132,W,circle,1,1,,,,,,,,,,,,,,,,switch,number,numSwt,d,Hi,,,,,,0.0005,4,,,,,,,,high,21,0,21,0,1,,,,,,,,,
294208,2022-09-24_11h38.34.053,vts_reward_expectancy,2022.2.4,Win32,60.04202942,Chrome,1504,1003,,,,,0,1040,,,,,,,,,,,,,,,,,174,D,star,0,0,,,,,,,,,,,,,,,,switch,letter,NA,k,Hi,,,,,,0.1829,4,,,,,,,,high,22,0,22,0,1,,,,,,,,,
294208,2022-09-24_11h38.34.053,vts_reward_expectancy,2022.2.4,Win32,60.04202942,Chrome,1504,1003,,,,,1,1041,,,,,,,,,,,,,,,,,167,U,circle,1,1,,,,,,,,,,,,,,,,repeat,letter,lettRpt,k,Hi,,,,,,0.0176,4,,,,,,,,high,23,0,23,0,1,,,,,,,,,
294208,2022-09-24_11h38.34.053,vts_reward_expectancy,2022.2.4,Win32,60.04202942,Chrome,1504,1003,,,,,1,1042,,,,,,,,,,,,,,,,,174,U,star,1,0,,,,,,,,,,,,,,,,repeat,letter,lettRpt,k,Lo,,,,,,0.0005,4,,,,,,,,high,24,0,24,0,1,,,,,,,,,
294208,2022-09-24_11h38.34.053,vts_reward_expectancy,2022.2.4,Win32,60.04202942,Chrome,1504,1003,,,,,10,1052,,,,,,,,,,,,,,,,,181,Y,circle,1,0,,,,,,,,,,,,,,,,repeat,letter,lettRpt,k,Hi,,,,,,0.0551,4,,,,,,,,high,25,0,25,0,1,,,,,,,,,
294208,2022-09-24_11h38.34.053,vts_reward_expectancy,2022.2.4,Win32,60.04202942,Chrome,1504,1003,,,,,10,1062,,,,,,,,,,,,,,,,,167,H,circle,1,0,,,,,,,,,,,,,,,,repeat,letter,lettRpt,j,Hi,,,,,,0.0617,4,,,,,,,,high,26,0,26,0,1,,,,,,,,,
294208,2022-09-24_11h38.34.053,vts_reward_expectancy,2022.2.4,Win32,60.04202942,Chrome,1504,1003,,,,,10,1072,,,,,,,,,,,,,,,,,139,D,star,1,0,,,,,,,,,,,,,,,,repeat,letter,lettRpt,j,Lo,,,,,,0.119,4,,,,,,,,high,27,0,27,0,1,,,,,,,,,
294208,2022-09-24_11h38.34.053,vts_reward_expectancy,2022.2.4,Win32,60.04202942,Chrome,1504,1003,,,,,1,1073,,,,,,,,,,,,,,,,,160,S,circle,1,0,,,,,,,,,,,,,,,,repeat,letter,lettRpt,k,Hi,,,,,,0.0023,4,,,,,,,,high,28,0,28,0,1,,,,,,,,,
294208,2022-09-24_11h38.34.053,vts_reward_expectancy,2022.2.4,Win32,60.04202942,Chrome,1504,1003,,,,,0,1073,,,,,,,,,,,,,,,,,132,B,star,0,0,,,,,,,,,,,,,,,,switch,number,NA,f,Hi,,,,,,0.1007,4,,,,,,,,high,29,0,29,0,1,,,,,,,,,
294208,2022-09-24_11h38.34.053,vts_reward_expectancy,2022.2.4,Win32,60.04202942,Chrome,1504,1003,,,,,0,1073,,,,,,,,,,,,,,,,,146,W,circle,1,1,,,,,,,,,,,,,,,,repeat,number,numRpt,d,Hi,,,,,,0.0413,4,,,,,,,,high,30,0,30,0,1,,,,,,,,,
294208,2022-09-24_11h38.34.053,vts_reward_expectancy,2022.2.4,Win32,60.04202942,Chrome,1504,1003,,,,,0,1073,,,,,,,,,,,,,,,,,125,F,star,0,0,,,,,,,,,,,,,,,,switch,letter,NA,k,Hi,,,,,,0.000700001,4,,,,,,,,high,31,0,31,0,1,,,,,,,,,
294208,2022-09-24_11h38.34.053,vts_reward_expectancy,2022.2.4,Win32,60.04202942,Chrome,1504,1003,,,,,0,1073,,,,,,,,,,,,,,,,,146,Y,circle,0,1,,,,,,,,,,,,,,,,switch,number,NA,f,Hi,,,,,,0.016900001,5,,,,,,space,0.894900001,high,0,0,0,0,1,,,,,,,,,
294208,2022-09-24_11h38.34.053,vts_reward_expectancy,2022.2.4,Win32,60.04202942,Chrome,1504,1003,,,,,0,1073,,,,,,,,,,,,,,,,,125,U,star,0,1,,,,,,,,,,,,,,,,repeat,number,NA,f,Hi,,,,,,0.194,5,,,,,,,,high,1,0,1,0,1,,,,,,,,,
294208,2022-09-24_11h38.34.053,vts_reward_expectancy,2022.2.4,Win32,60.04202942,Chrome,1504,1003,,,,,10,1083,,,,,,,,,,,,,,,,,139,W,circle,1,1,,,,,,,,,,,,,,,,switch,letter,lettSwt,k,Hi,,,,,,0.0271,5,,,,,,,,high,2,0,2,0,1,,,,,,,,,
294208,2022-09-24_11h38.34.053,vts_reward_expectancy,2022.2.4,Win32,60.04202942,Chrome,1504,1003,,,,,0,1083,,,,,,,,,,,,,,,,,181,B,star,0,0,,,,,,,,,,,,,,,,repeat,letter,NA,k,Hi,,,,,,0.135,5,,,,,,,,high,3,0,3,0,1,,,,,,,,,
294208,2022-09-24_11h38.34.053,vts_reward_expectancy,2022.2.4,Win32,60.04202942,Chrome,1504,1003,,,,,0,1083,,,,,,,,,,,,,,,,,160,D,circle,0,1,,,,,,,,,,,,,,,,repeat,letter,NA,k,Hi,,,,,,0.1344,5,,,,,,,,high,4,0,4,0,1,,,,,,,,,
294208,2022-09-24_11h38.34.053,vts_reward_expectancy,2022.2.4,Win32,60.04202942,Chrome,1504,1003,,,,,1,1084,,,,,,,,,,,,,,,,,174,H,star,1,1,,,,,,,,,,,,,,,,switch,number,numSwt,f,Lo,,,,,,0.0332,5,,,,,,,,high,5,0,5,0,1,,,,,,,,,
294208,2022-09-24_11h38.34.053,vts_reward_expectancy,2022.2.4,Win32,60.04202942,Chrome,1504,1003,,,,,0,1084,,,,,,,,,,,,,,,,,132,F,star,0,0,,,,,,,,,,,,,,,,switch,letter,NA,k,Lo,,,,,,0.0427,5,,,,,,,,high,6,0,6,0,1,,,,,,,,,
294208,2022-09-24_11h38.34.053,vts_reward_expectancy,2022.2.4,Win32,60.04202942,Chrome,1504,1003,,,,,0,1084,,,,,,,,,,,,,,,,,167,S,circle,1,1,,,,,,,,,,,,,,,,repeat,letter,lettRpt,k,Hi,,,,,,0.1352,5,,,,,,,,high,7,0,7,0,1,,,,,,,,,
294208,2022-09-24_11h38.34.053,vts_reward_expectancy,2022.2.4,Win32,60.04202942,Chrome,1504,1003,,,,,0,1084,,,,,,,,,,,,,,,,,146,Y,circle,0,0,,,,,,,,,,,,,,,,switch,number,NA,f,Hi,,,,,,0.051599999,5,,,,,,,,high,8,0,8,0,1,,,,,,,,,
294208,2022-09-24_11h38.34.053,vts_reward_expectancy,2022.2.4,Win32,60.04202942,Chrome,1504,1003,,,,,10,1094,,,,,,,,,,,,,,,,,125,U,star,1,1,,,,,,,,,,,,,,,,switch,letter,lettSwt,k,Lo,,,,,,0.0005,5,,,,,,,,high,9,0,9,0,1,,,,,,,,,
294208,2022-09-24_11h38.34.053,vts_reward_expectancy,2022.2.4,Win32,60.04202942,Chrome,1504,1003,,,,,0,1094,,,,,,,,,,,,,,,,,139,W,circle,1,0,,,,,,,,,,,,,,,,repeat,letter,lettRpt,k,Hi,,,,,,0.0352,5,,,,,,,,high,10,0,10,0,1,,,,,,,,,
294208,2022-09-24_11h38.34.053,vts_reward_expectancy,2022.2.4,Win32,60.04202942,Chrome,1504,1003,,,,,0,1094,,,,,,,,,,,,,,,,,181,B,star,0,0,,,,,,,,,,,,,,,,repeat,letter,NA,k,Hi,,,,,,0.0006,5,,,,,,,,high,11,0,11,0,1,,,,,,,,,
294208,2022-09-24_11h38.34.053,vts_reward_expectancy,2022.2.4,Win32,60.04202942,Chrome,1504,1003,,,,,10,1104,,,,,,,,,,,,,,,,,160,D,circle,1,1,,,,,,,,,,,,,,,,switch,number,numSwt,f,Hi,,,,,,0.0357,5,,,,,,,,high,12,0,12,0,1,,,,,,,,,
294208,2022-09-24_11h38.34.053,vts_reward_expectancy,2022.2.4,Win32,60.04202942,Chrome,1504,1003,,,,,0,1104,,,,,,,,,,,,,,,,,174,H,star,0,0,,,,,,,,,,,,,,,,repeat,number,NA,d,Hi,,,,,,0.033799999,5,,,,,,,,high,13,0,13,0,1,,,,,,,,,
294208,2022-09-24_11h38.34.053,vts_reward_expectancy,2022.2.4,Win32,60.04202942,Chrome,1504,1003,,,,,0,1104,,,,,,,,,,,,,,,,,132,F,circle,0,1,,,,,,,,,,,,,,,,switch,letter,NA,k,Hi,,,,,,0.2679,5,,,,,,,,high,14,0,14,0,1,,,,,,,,,
294208,2022-09-24_11h38.34.053,vts_reward_expectancy,2022.2.4,Win32,60.04202942,Chrome,1504,1003,,,,,1,1105,,,,,,,,,,,,,,,,,167,S,star,1,1,,,,,,,,,,,,,,,,repeat,letter,lettRpt,k,Lo,,,,,,0.326599999,5,,,,,,,,high,15,0,15,0,1,,,,,,,,,
294208,2022-09-24_11h38.34.053,vts_reward_expectancy,2022.2.4,Win32,60.04202942,Chrome,1504,1003,,,,,0,1105,,,,,,,,,,,,,,,,,132,H,circle,0,0,,,,,,,,,,,,,,,,repeat,letter,NA,k,Lo,,,,,,0.000599999,5,,,,,,,,high,16,0,16,0,1,,,,,,,,,
294208,2022-09-24_11h38.34.053,vts_reward_expectancy,2022.2.4,Win32,60.04202942,Chrome,1504,1003,,,,,1,1106,,,,,,,,,,,,,,,,,167,U,star,1,1,,,,,,,,,,,,,,,,repeat,letter,lettRpt,k,Lo,,,,,,0.5098,5,,,,,,,,high,17,0,17,0,1,,,,,,,,,
294208,2022-09-24_11h38.34.053,vts_reward_expectancy,2022.2.4,Win32,60.04202942,Chrome,1504,1003,,,,,1,1107,,,,,,,,,,,,,,,,,139,B,circle,1,0,,,,,,,,,,,,,,,,switch,number,numSwt,d,Hi,,,,,,0.0338,5,,,,,,,,high,18,0,18,0,1,,,,,,,,,
294208,2022-09-24_11h38.34.053,vts_reward_expectancy,2022.2.4,Win32,60.04202942,Chrome,1504,1003,,,,,0,1107,,,,,,,,,,,,,,,,,125,F,star,0,0,,,,,,,,,,,,,,,,switch,letter,NA,k,Hi,,,,,,0.1495,5,,,,,,,,high,19,0,19,0,1,,,,,,,,,
294208,2022-09-24_11h38.34.053,vts_reward_expectancy,2022.2.4,Win32,60.04202942,Chrome,1504,1003,,,,,0,1107,,,,,,,,,,,,,,,,,160,W,circle,0,1,,,,,,,,,,,,,,,,switch,number,NA,d,Hi,,,,,,0.033700001,5,,,,,,,,high,20,0,20,0,1,,,,,,,,,
294208,2022-09-24_11h38.34.053,vts_reward_expectancy,2022.2.4,Win32,60.04202942,Chrome,1504,1003,,,,,1,1108,,,,,,,,,,,,,,,,,146,S,star,1,1,,,,,,,,,,,,,,,,switch,letter,lettSwt,k,Lo,,,,,,0.1274,5,,,,,,,,high,21,0,21,0,1,,,,,,,,,
294208,2022-09-24_11h38.34.053,vts_reward_expectancy,2022.2.4,Win32,60.04202942,Chrome,1504,1003,,,,,10,1118,,,,,,,,,,,,,,,,,181,D,circle,1,0,,,,,,,,,,,,,,,,switch,number,numSwt,f,Hi,,,,,,0.0007,5,,,,,,,,high,22,0,22,0,1,,,,,,,,,
294208,2022-09-24_11h38.34.053,vts_reward_expectancy,2022.2.4,Win32,60.04202942,Chrome,1504,1003,,,,,1,1119,,,,,,,,,,,,,,,,,174,Y,star,1,0,,,,,,,,,,,,,,,,repeat,number,numRpt,f,Lo,,,,,,0.0006,5,,,,,,,,high,23,0,23,0,1,,,,,,,,,
294208,2022-09-24_11h38.34.053,vts_reward_expectancy,2022.2.4,Win32,60.04202942,Chrome,1504,1003,,,,,0,1119,,,,,,,,,,,,,,,,,174,U,circle,1,0,,,,,,,,,,,,,,,,switch,letter,lettSwt,k,Hi,,,,,,0.114400001,5,,,,,,,,high,24,0,24,0,1,,,,,,,,,
294208,2022-09-24_11h38.34.053,vts_reward_expectancy,2022.2.4,Win32,60.04202942,Chrome,1504,1003,,,,,0,1119,,,,,,,,,,,,,,,,,146,H,star,0,0,,,,,,,,,,,,,,,,repeat,letter,NA,k,Hi,,,,,,0.36,5,,,,,,,,high,25,0,25,0,1,,,,,,,,,
294208,2022-09-24_11h38.34.053,vts_reward_expectancy,2022.2.4,Win32,60.04202942,Chrome,1504,1003,,,,,0,1119,,,,,,,,,,,,,,,,,167,S,star,0,1,,,,,,,,,,,,,,,,repeat,letter,NA,j,Hi,,,,,,0.018099999,5,,,,,,,,high,26,0,26,0,1,,,,,,,,,
294208,2022-09-24_11h38.34.053,vts_reward_expectancy,2022.2.4,Win32,60.04202942,Chrome,1504,1003,,,,,0,1119,,,,,,,,,,,,,,,,,160,Y,circle,1,1,,,,,,,,,,,,,,,,repeat,letter,lettRpt,k,Hi,,,,,,0.1438,5,,,,,,,,high,27,0,27,0,1,,,,,,,,,
294208,2022-09-24_11h38.34.053,vts_reward_expectancy,2022.2.4,Win32,60.04202942,Chrome,1504,1003,,,,,0,1119,,,,,,,,,,,,,,,,,181,B,circle,1,0,,,,,,,,,,,,,,,,repeat,letter,lettRpt,j,Hi,,,,,,0.058099999,5,,,,,,,,high,28,0,28,0,1,,,,,,,,,
294208,2022-09-24_11h38.34.053,vts_reward_expectancy,2022.2.4,Win32,60.04202942,Chrome,1504,1003,,,,,0,1119,,,,,,,,,,,,,,,,,125,D,star,0,0,,,,,,,,,,,,,,,,switch,number,NA,f,Hi,,,,,,0.2004,5,,,,,,,,high,29,0,29,0,1,,,,,,,,,
294208,2022-09-24_11h38.34.053,vts_reward_expectancy,2022.2.4,Win32,60.04202942,Chrome,1504,1003,,,,,0,1119,,,,,,,,,,,,,,,,,132,W,circle,0,1,,,,,,,,,,,,,,,,repeat,number,NA,f,Hi,,,,,,0.2508,5,,,,,,,,high,30,0,30,0,1,,,,,,,,,
294208,2022-09-24_11h38.34.053,vts_reward_expectancy,2022.2.4,Win32,60.04202942,Chrome,1504,1003,,,,,1,1120,,,,,,,,,,,,,,,,,139,F,star,1,1,,,,,,,,,,,,,,,,repeat,number,numRpt,d,Lo,,,,,,0.174099999,5,,,,,,,,high,31,0,31,0,1,,,,,,,,,
294208,2022-09-24_11h38.34.053,vts_reward_expectancy,2022.2.4,Win32,60.04202942,Chrome,1504,1003,,,,,,,,,,,,,,,,,,,,,,,,,,,,,,,,,,,,,,,,,,,,,,,,,,,,,,6,,,,,,,,,,,,,,I was asked to pick between numbers and letters,1,,3,1,,2,1504,1003
