participant,date,expName,psychopyVersion,OS,frameRate,browser,xResolution,yResolution,key_resp.keys,key_resp.rt,training_resp.keys,training_resp.rt,points_trial,points_cumul,trainBlock,training.thisRepN,training.thisTrialN,training.thisN,training.thisIndex,training.ran,LTriangleOpac,LCircleOpac,LHexagonOpac,LStarOpac,RTriangleOpac,RCircleOpac,RHexagonOpac,RStarOpac,LShape_ID,RShape_ID,curr_topStim,curr_bottStim,curr_shape,acc,E1,target_resp_prac1.keys,pracBlock,task1_prac_trials.thisRepN,task1_prac_trials.thisTrialN,task1_prac_trials.thisN,task1_prac_trials.thisIndex,task1_prac_trials.ran,target_resp_prac1.rt,target_resp_prac2.keys,task2_praac_trials.thisRepN,task2_praac_trials.thisTrialN,task2_praac_trials.thisN,task2_praac_trials.thisIndex,task2_praac_trials.ran,target_resp_prac2.rt,alt,task,condition,target_resp.keys,target_resp.rt,rewCond,vts_practice_trials.thisRepN,vts_practice_trials.thisTrialN,vts_practice_trials.thisN,vts_practice_trials.thisIndex,vts_practice_trials.ran,blockNum,trials_norew.thisRepN,trials_norew.thisTrialN,trials_norew.thisN,trials_norew.thisIndex,trials_norew.ran,key_resp_2.keys,key_resp_2.rt,rewExpect,trials_rew.thisRepN,trials_rew.thisTrialN,trials_rew.thisN,trials_rew.thisIndex,trials_rew.ran,Q1,Q2,Q2_text,Q3,Q4,Q5_text,Q5,xRes,yRes
295966,2022-10-04_15h03.04.053,vts_reward_expectancy,2022.2.4,MacIntel,60.0024001,Chrome,1440,900,,,,,,,,,,,,,,,,,,,,,,,,,,,,,,,,,,,,,,,,,,,,,,,,,,,,,,,,,,,,,,,,,,,,,,,,,,,,
295966,2022-10-04_15h03.04.053,vts_reward_expectancy,2022.2.4,MacIntel,60.0024001,Chrome,1440,900,space,14.2079,,,,,,,,,,,,,,,,,,,,,,,,,,,,,,,,,,,,,,,,,,,,,,,,,,,,,,,,,,,,,,,,,,,,,,,,,,
295966,2022-10-04_15h03.04.053,vts_reward_expectancy,2022.2.4,MacIntel,60.0024001,Chrome,1440,900,,,,,,,,,,,,,,,,,,,,,,,,,,,,,,,,,,,,,,,,,,,,,,,,,,,,,,,,,,,,,,,,,,,,,,,,,,,,
295966,2022-10-04_15h03.04.053,vts_reward_expectancy,2022.2.4,MacIntel,60.0024001,Chrome,1440,900,,,l,2.2769,10,10,0,0,0,0,11,1,0,0,0,1,0,0,1,0,star,hexagon,,,,,,,,,,,,,,,,,,,,,,,,,,,,,,,,,,,,,,,,,,,,,,,,,,,,,,
295966,2022-10-04_15h03.04.053,vts_reward_expectancy,2022.2.4,MacIntel,60.0024001,Chrome,1440,900,,,l,1.3214,10,20,0,0,1,1,4,1,0,1,0,0,0,0,1,0,circle,hexagon,,,,,,,,,,,,,,,,,,,,,,,,,,,,,,,,,,,,,,,,,,,,,,,,,,,,,,
295966,2022-10-04_15h03.04.053,vts_reward_expectancy,2022.2.4,MacIntel,60.0024001,Chrome,1440,900,,,l,1.596,1,21,0,0,2,2,7,1,0,0,1,0,0,1,0,0,hexagon,circle,,,,,,,,,,,,,,,,,,,,,,,,,,,,,,,,,,,,,,,,,,,,,,,,,,,,,,
295966,2022-10-04_15h03.04.053,vts_reward_expectancy,2022.2.4,MacIntel,60.0024001,Chrome,1440,900,,,a,0.7983,1,22,0,0,3,3,6,1,0,0,1,0,1,0,0,0,hexagon,triangle,,,,,,,,,,,,,,,,,,,,,,,,,,,,,,,,,,,,,,,,,,,,,,,,,,,,,,
295966,2022-10-04_15h03.04.053,vts_reward_expectancy,2022.2.4,MacIntel,60.0024001,Chrome,1440,900,,,a,1.7427,10,32,0,0,4,4,9,1,0,0,0,1,1,0,0,0,star,triangle,,,,,,,,,,,,,,,,,,,,,,,,,,,,,,,,,,,,,,,,,,,,,,,,,,,,,,
295966,2022-10-04_15h03.04.053,vts_reward_expectancy,2022.2.4,MacIntel,60.0024001,Chrome,1440,900,,,a,1.5492,10,42,0,0,5,5,10,1,0,0,0,1,0,1,0,0,star ,circle,,,,,,,,,,,,,,,,,,,,,,,,,,,,,,,,,,,,,,,,,,,,,,,,,,,,,,
295966,2022-10-04_15h03.04.053,vts_reward_expectancy,2022.2.4,MacIntel,60.0024001,Chrome,1440,900,,,l,1.8026,1,43,0,0,6,6,0,1,1,0,0,0,0,1,0,0,triangle,circle,,,,,,,,,,,,,,,,,,,,,,,,,,,,,,,,,,,,,,,,,,,,,,,,,,,,,,
295966,2022-10-04_15h03.04.053,vts_reward_expectancy,2022.2.4,MacIntel,60.0024001,Chrome,1440,900,,,a,2.3388,1,44,0,0,7,7,5,1,0,1,0,0,0,0,0,1,circle,star,,,,,,,,,,,,,,,,,,,,,,,,,,,,,,,,,,,,,,,,,,,,,,,,,,,,,,
295966,2022-10-04_15h03.04.053,vts_reward_expectancy,2022.2.4,MacIntel,60.0024001,Chrome,1440,900,,,l,1.4479,1,45,0,0,8,8,1,1,1,0,0,0,0,0,1,0,triangle,hexagon,,,,,,,,,,,,,,,,,,,,,,,,,,,,,,,,,,,,,,,,,,,,,,,,,,,,,,
295966,2022-10-04_15h03.04.053,vts_reward_expectancy,2022.2.4,MacIntel,60.0024001,Chrome,1440,900,,,l,1.3994,10,55,0,0,9,9,8,1,0,0,1,0,0,0,0,1,hexagon,star,,,,,,,,,,,,,,,,,,,,,,,,,,,,,,,,,,,,,,,,,,,,,,,,,,,,,,
295966,2022-10-04_15h03.04.053,vts_reward_expectancy,2022.2.4,MacIntel,60.0024001,Chrome,1440,900,,,a,1.4275,1,56,0,0,10,10,3,1,0,1,0,0,1,0,0,0,circle,triangle,,,,,,,,,,,,,,,,,,,,,,,,,,,,,,,,,,,,,,,,,,,,,,,,,,,,,,
295966,2022-10-04_15h03.04.053,vts_reward_expectancy,2022.2.4,MacIntel,60.0024001,Chrome,1440,900,,,a,0.2984,1,57,0,0,11,11,2,1,1,0,0,0,0,0,0,1,triangle,star,,,,,,,,,,,,,,,,,,,,,,,,,,,,,,,,,,,,,,,,,,,,,,,,,,,,,,
295966,2022-10-04_15h03.04.053,vts_reward_expectancy,2022.2.4,MacIntel,60.0024001,Chrome,1440,900,,,a,0.3818,1,58,0,1,0,12,7,1,0,0,1,0,0,1,0,0,hexagon,circle,,,,,,,,,,,,,,,,,,,,,,,,,,,,,,,,,,,,,,,,,,,,,,,,,,,,,,
295966,2022-10-04_15h03.04.053,vts_reward_expectancy,2022.2.4,MacIntel,60.0024001,Chrome,1440,900,,,a,0.8169,10,68,0,1,1,13,5,1,0,1,0,0,0,0,0,1,circle,star,,,,,,,,,,,,,,,,,,,,,,,,,,,,,,,,,,,,,,,,,,,,,,,,,,,,,,
295966,2022-10-04_15h03.04.053,vts_reward_expectancy,2022.2.4,MacIntel,60.0024001,Chrome,1440,900,,,l,0.2483,10,78,0,1,2,14,1,1,1,0,0,0,0,0,1,0,triangle,hexagon,,,,,,,,,,,,,,,,,,,,,,,,,,,,,,,,,,,,,,,,,,,,,,,,,,,,,,
295966,2022-10-04_15h03.04.053,vts_reward_expectancy,2022.2.4,MacIntel,60.0024001,Chrome,1440,900,,,a,0.4405,10,88,0,1,3,15,0,1,1,0,0,0,0,1,0,0,triangle,circle,,,,,,,,,,,,,,,,,,,,,,,,,,,,,,,,,,,,,,,,,,,,,,,,,,,,,,
295966,2022-10-04_15h03.04.053,vts_reward_expectancy,2022.2.4,MacIntel,60.0024001,Chrome,1440,900,,,a,0.351,10,98,0,1,4,16,8,1,0,0,1,0,0,0,0,1,hexagon,star,,,,,,,,,,,,,,,,,,,,,,,,,,,,,,,,,,,,,,,,,,,,,,,,,,,,,,
295966,2022-10-04_15h03.04.053,vts_reward_expectancy,2022.2.4,MacIntel,60.0024001,Chrome,1440,900,,,l,0.2819,10,108,0,1,5,17,6,1,0,0,1,0,1,0,0,0,hexagon,triangle,,,,,,,,,,,,,,,,,,,,,,,,,,,,,,,,,,,,,,,,,,,,,,,,,,,,,,
295966,2022-10-04_15h03.04.053,vts_reward_expectancy,2022.2.4,MacIntel,60.0024001,Chrome,1440,900,,,a,0.4977,10,118,0,1,6,18,2,1,1,0,0,0,0,0,0,1,triangle,star,,,,,,,,,,,,,,,,,,,,,,,,,,,,,,,,,,,,,,,,,,,,,,,,,,,,,,
295966,2022-10-04_15h03.04.053,vts_reward_expectancy,2022.2.4,MacIntel,60.0024001,Chrome,1440,900,,,a,0.5157,1,119,0,1,7,19,3,1,0,1,0,0,1,0,0,0,circle,triangle,,,,,,,,,,,,,,,,,,,,,,,,,,,,,,,,,,,,,,,,,,,,,,,,,,,,,,
295966,2022-10-04_15h03.04.053,vts_reward_expectancy,2022.2.4,MacIntel,60.0024001,Chrome,1440,900,,,l,0.2831,1,120,0,1,8,20,9,1,0,0,0,1,1,0,0,0,star,triangle,,,,,,,,,,,,,,,,,,,,,,,,,,,,,,,,,,,,,,,,,,,,,,,,,,,,,,
295966,2022-10-04_15h03.04.053,vts_reward_expectancy,2022.2.4,MacIntel,60.0024001,Chrome,1440,900,,,a,0.3133,1,121,0,1,9,21,4,1,0,1,0,0,0,0,1,0,circle,hexagon,,,,,,,,,,,,,,,,,,,,,,,,,,,,,,,,,,,,,,,,,,,,,,,,,,,,,,
295966,2022-10-04_15h03.04.053,vts_reward_expectancy,2022.2.4,MacIntel,60.0024001,Chrome,1440,900,,,a,0.2687,1,122,0,1,10,22,10,1,0,0,0,1,0,1,0,0,star ,circle,,,,,,,,,,,,,,,,,,,,,,,,,,,,,,,,,,,,,,,,,,,,,,,,,,,,,,
295966,2022-10-04_15h03.04.053,vts_reward_expectancy,2022.2.4,MacIntel,60.0024001,Chrome,1440,900,,,l,0.3942,10,132,0,1,11,23,11,1,0,0,0,1,0,0,1,0,star,hexagon,,,,,,,,,,,,,,,,,,,,,,,,,,,,,,,,,,,,,,,,,,,,,,,,,,,,,,
295966,2022-10-04_15h03.04.053,vts_reward_expectancy,2022.2.4,MacIntel,60.0024001,Chrome,1440,900,,,a,0.2293,1,133,0,2,0,24,5,1,0,1,0,0,0,0,0,1,circle,star,,,,,,,,,,,,,,,,,,,,,,,,,,,,,,,,,,,,,,,,,,,,,,,,,,,,,,
295966,2022-10-04_15h03.04.053,vts_reward_expectancy,2022.2.4,MacIntel,60.0024001,Chrome,1440,900,,,a,0.4497,10,143,0,2,1,25,11,1,0,0,0,1,0,0,1,0,star,hexagon,,,,,,,,,,,,,,,,,,,,,,,,,,,,,,,,,,,,,,,,,,,,,,,,,,,,,,
295966,2022-10-04_15h03.04.053,vts_reward_expectancy,2022.2.4,MacIntel,60.0024001,Chrome,1440,900,,,l,0.2646,1,144,0,2,2,26,0,1,1,0,0,0,0,1,0,0,triangle,circle,,,,,,,,,,,,,,,,,,,,,,,,,,,,,,,,,,,,,,,,,,,,,,,,,,,,,,
295966,2022-10-04_15h03.04.053,vts_reward_expectancy,2022.2.4,MacIntel,60.0024001,Chrome,1440,900,,,l,0.6354,1,145,0,2,3,27,6,1,0,0,1,0,1,0,0,0,hexagon,triangle,,,,,,,,,,,,,,,,,,,,,,,,,,,,,,,,,,,,,,,,,,,,,,,,,,,,,,
295966,2022-10-04_15h03.04.053,vts_reward_expectancy,2022.2.4,MacIntel,60.0024001,Chrome,1440,900,,,a,0.3828,10,155,0,2,4,28,2,1,1,0,0,0,0,0,0,1,triangle,star,,,,,,,,,,,,,,,,,,,,,,,,,,,,,,,,,,,,,,,,,,,,,,,,,,,,,,
295966,2022-10-04_15h03.04.053,vts_reward_expectancy,2022.2.4,MacIntel,60.0024001,Chrome,1440,900,,,l,0.6797,10,165,0,2,5,29,4,1,0,1,0,0,0,0,1,0,circle,hexagon,,,,,,,,,,,,,,,,,,,,,,,,,,,,,,,,,,,,,,,,,,,,,,,,,,,,,,
295966,2022-10-04_15h03.04.053,vts_reward_expectancy,2022.2.4,MacIntel,60.0024001,Chrome,1440,900,,,a,0.3023,10,175,0,2,6,30,10,1,0,0,0,1,0,1,0,0,star ,circle,,,,,,,,,,,,,,,,,,,,,,,,,,,,,,,,,,,,,,,,,,,,,,,,,,,,,,
295966,2022-10-04_15h03.04.053,vts_reward_expectancy,2022.2.4,MacIntel,60.0024001,Chrome,1440,900,,,l,0.2836,1,176,0,2,7,31,7,1,0,0,1,0,0,1,0,0,hexagon,circle,,,,,,,,,,,,,,,,,,,,,,,,,,,,,,,,,,,,,,,,,,,,,,,,,,,,,,
295966,2022-10-04_15h03.04.053,vts_reward_expectancy,2022.2.4,MacIntel,60.0024001,Chrome,1440,900,,,l,0.3042,1,177,0,2,8,32,8,1,0,0,1,0,0,0,0,1,hexagon,star,,,,,,,,,,,,,,,,,,,,,,,,,,,,,,,,,,,,,,,,,,,,,,,,,,,,,,
295966,2022-10-04_15h03.04.053,vts_reward_expectancy,2022.2.4,MacIntel,60.0024001,Chrome,1440,900,,,a,0.3071,1,178,0,2,9,33,3,1,0,1,0,0,1,0,0,0,circle,triangle,,,,,,,,,,,,,,,,,,,,,,,,,,,,,,,,,,,,,,,,,,,,,,,,,,,,,,
295966,2022-10-04_15h03.04.053,vts_reward_expectancy,2022.2.4,MacIntel,60.0024001,Chrome,1440,900,,,l,0.3172,10,188,0,2,10,34,9,1,0,0,0,1,1,0,0,0,star,triangle,,,,,,,,,,,,,,,,,,,,,,,,,,,,,,,,,,,,,,,,,,,,,,,,,,,,,,
295966,2022-10-04_15h03.04.053,vts_reward_expectancy,2022.2.4,MacIntel,60.0024001,Chrome,1440,900,,,a,0.651,10,198,0,2,11,35,1,1,1,0,0,0,0,0,1,0,triangle,hexagon,,,,,,,,,,,,,,,,,,,,,,,,,,,,,,,,,,,,,,,,,,,,,,,,,,,,,,
295966,2022-10-04_15h03.04.053,vts_reward_expectancy,2022.2.4,MacIntel,60.0024001,Chrome,1440,900,,,a,1.9337,1,199,1,0,0,0,5,1,0,1,0,0,0,0,0,1,circle,star,,,,,,,,,,,,,,,,,,,,,,,,,,,,,,,,,,,,,,,,,,,,,,,,,,,,,,
295966,2022-10-04_15h03.04.053,vts_reward_expectancy,2022.2.4,MacIntel,60.0024001,Chrome,1440,900,,,l,2.9149,1,200,1,0,1,1,2,1,1,0,0,0,0,0,0,1,triangle,star,,,,,,,,,,,,,,,,,,,,,,,,,,,,,,,,,,,,,,,,,,,,,,,,,,,,,,
295966,2022-10-04_15h03.04.053,vts_reward_expectancy,2022.2.4,MacIntel,60.0024001,Chrome,1440,900,,,l,1.3315,10,210,1,0,2,2,4,1,0,1,0,0,0,0,1,0,circle,hexagon,,,,,,,,,,,,,,,,,,,,,,,,,,,,,,,,,,,,,,,,,,,,,,,,,,,,,,
295966,2022-10-04_15h03.04.053,vts_reward_expectancy,2022.2.4,MacIntel,60.0024001,Chrome,1440,900,,,l,3.9208,10,220,1,0,3,3,11,1,0,0,0,1,0,0,1,0,star,hexagon,,,,,,,,,,,,,,,,,,,,,,,,,,,,,,,,,,,,,,,,,,,,,,,,,,,,,,
295966,2022-10-04_15h03.04.053,vts_reward_expectancy,2022.2.4,MacIntel,60.0024001,Chrome,1440,900,,,a,0.951,10,230,1,0,4,4,7,1,0,0,1,0,0,1,0,0,hexagon,circle,,,,,,,,,,,,,,,,,,,,,,,,,,,,,,,,,,,,,,,,,,,,,,,,,,,,,,
295966,2022-10-04_15h03.04.053,vts_reward_expectancy,2022.2.4,MacIntel,60.0024001,Chrome,1440,900,,,l,1.437,1,231,1,0,5,5,3,1,0,1,0,0,1,0,0,0,circle,triangle,,,,,,,,,,,,,,,,,,,,,,,,,,,,,,,,,,,,,,,,,,,,,,,,,,,,,,
295966,2022-10-04_15h03.04.053,vts_reward_expectancy,2022.2.4,MacIntel,60.0024001,Chrome,1440,900,,,a,0.9598,10,241,1,0,6,6,8,1,0,0,1,0,0,0,0,1,hexagon,star,,,,,,,,,,,,,,,,,,,,,,,,,,,,,,,,,,,,,,,,,,,,,,,,,,,,,,
295966,2022-10-04_15h03.04.053,vts_reward_expectancy,2022.2.4,MacIntel,60.0024001,Chrome,1440,900,,,l,0.7993,1,242,1,0,7,7,1,1,1,0,0,0,0,0,1,0,triangle,hexagon,,,,,,,,,,,,,,,,,,,,,,,,,,,,,,,,,,,,,,,,,,,,,,,,,,,,,,
295966,2022-10-04_15h03.04.053,vts_reward_expectancy,2022.2.4,MacIntel,60.0024001,Chrome,1440,900,,,a,0.8965,1,243,1,0,8,8,0,1,1,0,0,0,0,1,0,0,triangle,circle,,,,,,,,,,,,,,,,,,,,,,,,,,,,,,,,,,,,,,,,,,,,,,,,,,,,,,
295966,2022-10-04_15h03.04.053,vts_reward_expectancy,2022.2.4,MacIntel,60.0024001,Chrome,1440,900,,,a,1.0897,10,253,1,0,9,9,6,1,0,0,1,0,1,0,0,0,hexagon,triangle,,,,,,,,,,,,,,,,,,,,,,,,,,,,,,,,,,,,,,,,,,,,,,,,,,,,,,
295966,2022-10-04_15h03.04.053,vts_reward_expectancy,2022.2.4,MacIntel,60.0024001,Chrome,1440,900,,,l,1.2246,1,254,1,0,10,10,9,1,0,0,0,1,1,0,0,0,star,triangle,,,,,,,,,,,,,,,,,,,,,,,,,,,,,,,,,,,,,,,,,,,,,,,,,,,,,,
295966,2022-10-04_15h03.04.053,vts_reward_expectancy,2022.2.4,MacIntel,60.0024001,Chrome,1440,900,,,a,1.6854,1,255,1,0,11,11,10,1,0,0,0,1,0,1,0,0,star ,circle,,,,,,,,,,,,,,,,,,,,,,,,,,,,,,,,,,,,,,,,,,,,,,,,,,,,,,
295966,2022-10-04_15h03.04.053,vts_reward_expectancy,2022.2.4,MacIntel,60.0024001,Chrome,1440,900,,,a,0.5193,1,256,1,1,0,12,5,1,0,1,0,0,0,0,0,1,circle,star,,,,,,,,,,,,,,,,,,,,,,,,,,,,,,,,,,,,,,,,,,,,,,,,,,,,,,
295966,2022-10-04_15h03.04.053,vts_reward_expectancy,2022.2.4,MacIntel,60.0024001,Chrome,1440,900,,,a,1.4025,1,257,1,1,1,13,3,1,0,1,0,0,1,0,0,0,circle,triangle,,,,,,,,,,,,,,,,,,,,,,,,,,,,,,,,,,,,,,,,,,,,,,,,,,,,,,
295966,2022-10-04_15h03.04.053,vts_reward_expectancy,2022.2.4,MacIntel,60.0024001,Chrome,1440,900,,,l,0.6834,1,258,1,1,2,14,6,1,0,0,1,0,1,0,0,0,hexagon,triangle,,,,,,,,,,,,,,,,,,,,,,,,,,,,,,,,,,,,,,,,,,,,,,,,,,,,,,
295966,2022-10-04_15h03.04.053,vts_reward_expectancy,2022.2.4,MacIntel,60.0024001,Chrome,1440,900,,,a,0.9614,1,259,1,1,3,15,10,1,0,0,0,1,0,1,0,0,star ,circle,,,,,,,,,,,,,,,,,,,,,,,,,,,,,,,,,,,,,,,,,,,,,,,,,,,,,,
295966,2022-10-04_15h03.04.053,vts_reward_expectancy,2022.2.4,MacIntel,60.0024001,Chrome,1440,900,,,a,4.4685,1,260,1,1,4,16,0,1,1,0,0,0,0,1,0,0,triangle,circle,,,,,,,,,,,,,,,,,,,,,,,,,,,,,,,,,,,,,,,,,,,,,,,,,,,,,,
295966,2022-10-04_15h03.04.053,vts_reward_expectancy,2022.2.4,MacIntel,60.0024001,Chrome,1440,900,,,l,0.8866,1,261,1,1,5,17,9,1,0,0,0,1,1,0,0,0,star,triangle,,,,,,,,,,,,,,,,,,,,,,,,,,,,,,,,,,,,,,,,,,,,,,,,,,,,,,
295966,2022-10-04_15h03.04.053,vts_reward_expectancy,2022.2.4,MacIntel,60.0024001,Chrome,1440,900,,,a,0.3142,10,271,1,1,6,18,1,1,1,0,0,0,0,0,1,0,triangle,hexagon,,,,,,,,,,,,,,,,,,,,,,,,,,,,,,,,,,,,,,,,,,,,,,,,,,,,,,
295966,2022-10-04_15h03.04.053,vts_reward_expectancy,2022.2.4,MacIntel,60.0024001,Chrome,1440,900,,,a,0.9201,1,272,1,1,7,19,7,1,0,0,1,0,0,1,0,0,hexagon,circle,,,,,,,,,,,,,,,,,,,,,,,,,,,,,,,,,,,,,,,,,,,,,,,,,,,,,,
295966,2022-10-04_15h03.04.053,vts_reward_expectancy,2022.2.4,MacIntel,60.0024001,Chrome,1440,900,,,l,0.2977,10,282,1,1,8,20,8,1,0,0,1,0,0,0,0,1,hexagon,star,,,,,,,,,,,,,,,,,,,,,,,,,,,,,,,,,,,,,,,,,,,,,,,,,,,,,,
295966,2022-10-04_15h03.04.053,vts_reward_expectancy,2022.2.4,MacIntel,60.0024001,Chrome,1440,900,,,l,0.8855,10,292,1,1,9,21,4,1,0,1,0,0,0,0,1,0,circle,hexagon,,,,,,,,,,,,,,,,,,,,,,,,,,,,,,,,,,,,,,,,,,,,,,,,,,,,,,
295966,2022-10-04_15h03.04.053,vts_reward_expectancy,2022.2.4,MacIntel,60.0024001,Chrome,1440,900,,,l,0.8951,1,293,1,1,10,22,2,1,1,0,0,0,0,0,0,1,triangle,star,,,,,,,,,,,,,,,,,,,,,,,,,,,,,,,,,,,,,,,,,,,,,,,,,,,,,,
295966,2022-10-04_15h03.04.053,vts_reward_expectancy,2022.2.4,MacIntel,60.0024001,Chrome,1440,900,,,a,0.6537,1,294,1,1,11,23,11,1,0,0,0,1,0,0,1,0,star,hexagon,,,,,,,,,,,,,,,,,,,,,,,,,,,,,,,,,,,,,,,,,,,,,,,,,,,,,,
295966,2022-10-04_15h03.04.053,vts_reward_expectancy,2022.2.4,MacIntel,60.0024001,Chrome,1440,900,,,a,1.4871,10,304,1,2,0,24,8,1,0,0,1,0,0,0,0,1,hexagon,star,,,,,,,,,,,,,,,,,,,,,,,,,,,,,,,,,,,,,,,,,,,,,,,,,,,,,,
295966,2022-10-04_15h03.04.053,vts_reward_expectancy,2022.2.4,MacIntel,60.0024001,Chrome,1440,900,,,l,0.7057,10,314,1,2,1,25,11,1,0,0,0,1,0,0,1,0,star,hexagon,,,,,,,,,,,,,,,,,,,,,,,,,,,,,,,,,,,,,,,,,,,,,,,,,,,,,,
295966,2022-10-04_15h03.04.053,vts_reward_expectancy,2022.2.4,MacIntel,60.0024001,Chrome,1440,900,,,l,1,10,324,1,2,2,26,5,1,0,1,0,0,0,0,0,1,circle,star,,,,,,,,,,,,,,,,,,,,,,,,,,,,,,,,,,,,,,,,,,,,,,,,,,,,,,
295966,2022-10-04_15h03.04.053,vts_reward_expectancy,2022.2.4,MacIntel,60.0024001,Chrome,1440,900,,,a,0.7497,1,325,1,2,3,27,9,1,0,0,0,1,1,0,0,0,star,triangle,,,,,,,,,,,,,,,,,,,,,,,,,,,,,,,,,,,,,,,,,,,,,,,,,,,,,,
295966,2022-10-04_15h03.04.053,vts_reward_expectancy,2022.2.4,MacIntel,60.0024001,Chrome,1440,900,,,a,1.1986,1,326,1,2,4,28,2,1,1,0,0,0,0,0,0,1,triangle,star,,,,,,,,,,,,,,,,,,,,,,,,,,,,,,,,,,,,,,,,,,,,,,,,,,,,,,
295966,2022-10-04_15h03.04.053,vts_reward_expectancy,2022.2.4,MacIntel,60.0024001,Chrome,1440,900,,,l,0.8709,1,327,1,2,5,29,10,1,0,0,0,1,0,1,0,0,star ,circle,,,,,,,,,,,,,,,,,,,,,,,,,,,,,,,,,,,,,,,,,,,,,,,,,,,,,,
295966,2022-10-04_15h03.04.053,vts_reward_expectancy,2022.2.4,MacIntel,60.0024001,Chrome,1440,900,,,a,0.7002,1,328,1,2,6,30,6,1,0,0,1,0,1,0,0,0,hexagon,triangle,,,,,,,,,,,,,,,,,,,,,,,,,,,,,,,,,,,,,,,,,,,,,,,,,,,,,,
295966,2022-10-04_15h03.04.053,vts_reward_expectancy,2022.2.4,MacIntel,60.0024001,Chrome,1440,900,,,l,0.4014,1,329,1,2,7,31,7,1,0,0,1,0,0,1,0,0,hexagon,circle,,,,,,,,,,,,,,,,,,,,,,,,,,,,,,,,,,,,,,,,,,,,,,,,,,,,,,
295966,2022-10-04_15h03.04.053,vts_reward_expectancy,2022.2.4,MacIntel,60.0024001,Chrome,1440,900,,,a,1.6784,1,330,1,2,8,32,4,1,0,1,0,0,0,0,1,0,circle,hexagon,,,,,,,,,,,,,,,,,,,,,,,,,,,,,,,,,,,,,,,,,,,,,,,,,,,,,,
295966,2022-10-04_15h03.04.053,vts_reward_expectancy,2022.2.4,MacIntel,60.0024001,Chrome,1440,900,,,a,0.7039,10,340,1,2,9,33,0,1,1,0,0,0,0,1,0,0,triangle,circle,,,,,,,,,,,,,,,,,,,,,,,,,,,,,,,,,,,,,,,,,,,,,,,,,,,,,,
295966,2022-10-04_15h03.04.053,vts_reward_expectancy,2022.2.4,MacIntel,60.0024001,Chrome,1440,900,,,l,0.7021,10,350,1,2,10,34,3,1,0,1,0,0,1,0,0,0,circle,triangle,,,,,,,,,,,,,,,,,,,,,,,,,,,,,,,,,,,,,,,,,,,,,,,,,,,,,,
295966,2022-10-04_15h03.04.053,vts_reward_expectancy,2022.2.4,MacIntel,60.0024001,Chrome,1440,900,,,l,0.6916,10,360,1,2,11,35,1,1,1,0,0,0,0,0,1,0,triangle,hexagon,,,,,,,,,,,,,,,,,,,,,,,,,,,,,,,,,,,,,,,,,,,,,,,,,,,,,,
295966,2022-10-04_15h03.04.053,vts_reward_expectancy,2022.2.4,MacIntel,60.0024001,Chrome,1440,900,,,a,0.8382,1,361,2,0,0,0,4,1,0,1,0,0,0,0,1,0,circle,hexagon,,,,,,,,,,,,,,,,,,,,,,,,,,,,,,,,,,,,,,,,,,,,,,,,,,,,,,
295966,2022-10-04_15h03.04.053,vts_reward_expectancy,2022.2.4,MacIntel,60.0024001,Chrome,1440,900,,,a,1.0412,1,362,2,0,1,1,0,1,1,0,0,0,0,1,0,0,triangle,circle,,,,,,,,,,,,,,,,,,,,,,,,,,,,,,,,,,,,,,,,,,,,,,,,,,,,,,
295966,2022-10-04_15h03.04.053,vts_reward_expectancy,2022.2.4,MacIntel,60.0024001,Chrome,1440,900,,,l,0.7318,1,363,2,0,2,2,3,1,0,1,0,0,1,0,0,0,circle,triangle,,,,,,,,,,,,,,,,,,,,,,,,,,,,,,,,,,,,,,,,,,,,,,,,,,,,,,
295966,2022-10-04_15h03.04.053,vts_reward_expectancy,2022.2.4,MacIntel,60.0024001,Chrome,1440,900,,,l,0.551,10,373,2,0,3,3,10,1,0,0,0,1,0,1,0,0,star ,circle,,,,,,,,,,,,,,,,,,,,,,,,,,,,,,,,,,,,,,,,,,,,,,,,,,,,,,
295966,2022-10-04_15h03.04.053,vts_reward_expectancy,2022.2.4,MacIntel,60.0024001,Chrome,1440,900,,,l,0.9889,10,383,2,0,4,4,1,1,1,0,0,0,0,0,1,0,triangle,hexagon,,,,,,,,,,,,,,,,,,,,,,,,,,,,,,,,,,,,,,,,,,,,,,,,,,,,,,
295966,2022-10-04_15h03.04.053,vts_reward_expectancy,2022.2.4,MacIntel,60.0024001,Chrome,1440,900,,,a,0.562,10,393,2,0,5,5,7,1,0,0,1,0,0,1,0,0,hexagon,circle,,,,,,,,,,,,,,,,,,,,,,,,,,,,,,,,,,,,,,,,,,,,,,,,,,,,,,
295966,2022-10-04_15h03.04.053,vts_reward_expectancy,2022.2.4,MacIntel,60.0024001,Chrome,1440,900,,,l,0.7733,10,403,2,0,6,6,5,1,0,1,0,0,0,0,0,1,circle,star,,,,,,,,,,,,,,,,,,,,,,,,,,,,,,,,,,,,,,,,,,,,,,,,,,,,,,
295966,2022-10-04_15h03.04.053,vts_reward_expectancy,2022.2.4,MacIntel,60.0024001,Chrome,1440,900,,,a,0.4871,1,404,2,0,7,7,9,1,0,0,0,1,1,0,0,0,star,triangle,,,,,,,,,,,,,,,,,,,,,,,,,,,,,,,,,,,,,,,,,,,,,,,,,,,,,,
295966,2022-10-04_15h03.04.053,vts_reward_expectancy,2022.2.4,MacIntel,60.0024001,Chrome,1440,900,,,l,0.9851,1,405,2,0,8,8,11,1,0,0,0,1,0,0,1,0,star,hexagon,,,,,,,,,,,,,,,,,,,,,,,,,,,,,,,,,,,,,,,,,,,,,,,,,,,,,,
295966,2022-10-04_15h03.04.053,vts_reward_expectancy,2022.2.4,MacIntel,60.0024001,Chrome,1440,900,,,a,0.8996,10,415,2,0,9,9,6,1,0,0,1,0,1,0,0,0,hexagon,triangle,,,,,,,,,,,,,,,,,,,,,,,,,,,,,,,,,,,,,,,,,,,,,,,,,,,,,,
295966,2022-10-04_15h03.04.053,vts_reward_expectancy,2022.2.4,MacIntel,60.0024001,Chrome,1440,900,,,l,0.5773,1,416,2,0,10,10,8,1,0,0,1,0,0,0,0,1,hexagon,star,,,,,,,,,,,,,,,,,,,,,,,,,,,,,,,,,,,,,,,,,,,,,,,,,,,,,,
295966,2022-10-04_15h03.04.053,vts_reward_expectancy,2022.2.4,MacIntel,60.0024001,Chrome,1440,900,,,a,0.6798,10,426,2,0,11,11,2,1,1,0,0,0,0,0,0,1,triangle,star,,,,,,,,,,,,,,,,,,,,,,,,,,,,,,,,,,,,,,,,,,,,,,,,,,,,,,
295966,2022-10-04_15h03.04.053,vts_reward_expectancy,2022.2.4,MacIntel,60.0024001,Chrome,1440,900,,,a,1.2541,1,427,2,1,0,12,11,1,0,0,0,1,0,0,1,0,star,hexagon,,,,,,,,,,,,,,,,,,,,,,,,,,,,,,,,,,,,,,,,,,,,,,,,,,,,,,
295966,2022-10-04_15h03.04.053,vts_reward_expectancy,2022.2.4,MacIntel,60.0024001,Chrome,1440,900,,,a,0.9989,10,437,2,1,1,13,9,1,0,0,0,1,1,0,0,0,star,triangle,,,,,,,,,,,,,,,,,,,,,,,,,,,,,,,,,,,,,,,,,,,,,,,,,,,,,,
295966,2022-10-04_15h03.04.053,vts_reward_expectancy,2022.2.4,MacIntel,60.0024001,Chrome,1440,900,,,a,1.6511,10,447,2,1,2,14,2,1,1,0,0,0,0,0,0,1,triangle,star,,,,,,,,,,,,,,,,,,,,,,,,,,,,,,,,,,,,,,,,,,,,,,,,,,,,,,
295966,2022-10-04_15h03.04.053,vts_reward_expectancy,2022.2.4,MacIntel,60.0024001,Chrome,1440,900,,,a,1.0022,10,457,2,1,3,15,6,1,0,0,1,0,1,0,0,0,hexagon,triangle,,,,,,,,,,,,,,,,,,,,,,,,,,,,,,,,,,,,,,,,,,,,,,,,,,,,,,
295966,2022-10-04_15h03.04.053,vts_reward_expectancy,2022.2.4,MacIntel,60.0024001,Chrome,1440,900,,,l,0.8673,1,458,2,1,4,16,7,1,0,0,1,0,0,1,0,0,hexagon,circle,,,,,,,,,,,,,,,,,,,,,,,,,,,,,,,,,,,,,,,,,,,,,,,,,,,,,,
295966,2022-10-04_15h03.04.053,vts_reward_expectancy,2022.2.4,MacIntel,60.0024001,Chrome,1440,900,,,a,0.933,10,468,2,1,5,17,3,1,0,1,0,0,1,0,0,0,circle,triangle,,,,,,,,,,,,,,,,,,,,,,,,,,,,,,,,,,,,,,,,,,,,,,,,,,,,,,
295966,2022-10-04_15h03.04.053,vts_reward_expectancy,2022.2.4,MacIntel,60.0024001,Chrome,1440,900,,,l,0.5897,1,469,2,1,6,18,0,1,1,0,0,0,0,1,0,0,triangle,circle,,,,,,,,,,,,,,,,,,,,,,,,,,,,,,,,,,,,,,,,,,,,,,,,,,,,,,
295966,2022-10-04_15h03.04.053,vts_reward_expectancy,2022.2.4,MacIntel,60.0024001,Chrome,1440,900,,,a,0.4983,1,470,2,1,7,19,10,1,0,0,0,1,0,1,0,0,star ,circle,,,,,,,,,,,,,,,,,,,,,,,,,,,,,,,,,,,,,,,,,,,,,,,,,,,,,,
295966,2022-10-04_15h03.04.053,vts_reward_expectancy,2022.2.4,MacIntel,60.0024001,Chrome,1440,900,,,l,1.1055,1,471,2,1,8,20,1,1,1,0,0,0,0,0,1,0,triangle,hexagon,,,,,,,,,,,,,,,,,,,,,,,,,,,,,,,,,,,,,,,,,,,,,,,,,,,,,,
295966,2022-10-04_15h03.04.053,vts_reward_expectancy,2022.2.4,MacIntel,60.0024001,Chrome,1440,900,,,l,0.9326,1,472,2,1,9,21,8,1,0,0,1,0,0,0,0,1,hexagon,star,,,,,,,,,,,,,,,,,,,,,,,,,,,,,,,,,,,,,,,,,,,,,,,,,,,,,,
295966,2022-10-04_15h03.04.053,vts_reward_expectancy,2022.2.4,MacIntel,60.0024001,Chrome,1440,900,,,a,0.5163,10,482,2,1,10,22,4,1,0,1,0,0,0,0,1,0,circle,hexagon,,,,,,,,,,,,,,,,,,,,,,,,,,,,,,,,,,,,,,,,,,,,,,,,,,,,,,
295966,2022-10-04_15h03.04.053,vts_reward_expectancy,2022.2.4,MacIntel,60.0024001,Chrome,1440,900,,,l,1.1379,1,483,2,1,11,23,5,1,0,1,0,0,0,0,0,1,circle,star,,,,,,,,,,,,,,,,,,,,,,,,,,,,,,,,,,,,,,,,,,,,,,,,,,,,,,
295966,2022-10-04_15h03.04.053,vts_reward_expectancy,2022.2.4,MacIntel,60.0024001,Chrome,1440,900,,,l,2.0765,10,493,2,2,0,24,6,1,0,0,1,0,1,0,0,0,hexagon,triangle,,,,,,,,,,,,,,,,,,,,,,,,,,,,,,,,,,,,,,,,,,,,,,,,,,,,,,
295966,2022-10-04_15h03.04.053,vts_reward_expectancy,2022.2.4,MacIntel,60.0024001,Chrome,1440,900,,,a,1.0502,1,494,2,2,1,25,5,1,0,1,0,0,0,0,0,1,circle,star,,,,,,,,,,,,,,,,,,,,,,,,,,,,,,,,,,,,,,,,,,,,,,,,,,,,,,
295966,2022-10-04_15h03.04.053,vts_reward_expectancy,2022.2.4,MacIntel,60.0024001,Chrome,1440,900,,,a,0.65,10,504,2,2,2,26,7,1,0,0,1,0,0,1,0,0,hexagon,circle,,,,,,,,,,,,,,,,,,,,,,,,,,,,,,,,,,,,,,,,,,,,,,,,,,,,,,
295966,2022-10-04_15h03.04.053,vts_reward_expectancy,2022.2.4,MacIntel,60.0024001,Chrome,1440,900,,,a,1.3136,1,505,2,2,3,27,1,1,1,0,0,0,0,0,1,0,triangle,hexagon,,,,,,,,,,,,,,,,,,,,,,,,,,,,,,,,,,,,,,,,,,,,,,,,,,,,,,
295966,2022-10-04_15h03.04.053,vts_reward_expectancy,2022.2.4,MacIntel,60.0024001,Chrome,1440,900,,,a,0.9643,1,506,2,2,4,28,2,1,1,0,0,0,0,0,0,1,triangle,star,,,,,,,,,,,,,,,,,,,,,,,,,,,,,,,,,,,,,,,,,,,,,,,,,,,,,,
295966,2022-10-04_15h03.04.053,vts_reward_expectancy,2022.2.4,MacIntel,60.0024001,Chrome,1440,900,,,l,0.35,1,507,2,2,5,29,0,1,1,0,0,0,0,1,0,0,triangle,circle,,,,,,,,,,,,,,,,,,,,,,,,,,,,,,,,,,,,,,,,,,,,,,,,,,,,,,
295966,2022-10-04_15h03.04.053,vts_reward_expectancy,2022.2.4,MacIntel,60.0024001,Chrome,1440,900,,,a,0.9543,10,517,2,2,6,30,9,1,0,0,0,1,1,0,0,0,star,triangle,,,,,,,,,,,,,,,,,,,,,,,,,,,,,,,,,,,,,,,,,,,,,,,,,,,,,,
295966,2022-10-04_15h03.04.053,vts_reward_expectancy,2022.2.4,MacIntel,60.0024001,Chrome,1440,900,,,l,0.2628,10,527,2,2,7,31,4,1,0,1,0,0,0,0,1,0,circle,hexagon,,,,,,,,,,,,,,,,,,,,,,,,,,,,,,,,,,,,,,,,,,,,,,,,,,,,,,
295966,2022-10-04_15h03.04.053,vts_reward_expectancy,2022.2.4,MacIntel,60.0024001,Chrome,1440,900,,,a,0.4674,1,528,2,2,8,32,11,1,0,0,0,1,0,0,1,0,star,hexagon,,,,,,,,,,,,,,,,,,,,,,,,,,,,,,,,,,,,,,,,,,,,,,,,,,,,,,
295966,2022-10-04_15h03.04.053,vts_reward_expectancy,2022.2.4,MacIntel,60.0024001,Chrome,1440,900,,,l,0.2778,1,529,2,2,9,33,10,1,0,0,0,1,0,1,0,0,star ,circle,,,,,,,,,,,,,,,,,,,,,,,,,,,,,,,,,,,,,,,,,,,,,,,,,,,,,,
295966,2022-10-04_15h03.04.053,vts_reward_expectancy,2022.2.4,MacIntel,60.0024001,Chrome,1440,900,,,l,1.1266,1,530,2,2,10,34,3,1,0,1,0,0,1,0,0,0,circle,triangle,,,,,,,,,,,,,,,,,,,,,,,,,,,,,,,,,,,,,,,,,,,,,,,,,,,,,,
295966,2022-10-04_15h03.04.053,vts_reward_expectancy,2022.2.4,MacIntel,60.0024001,Chrome,1440,900,,,a,1.0774,10,540,2,2,11,35,8,1,0,0,1,0,0,0,0,1,hexagon,star,,,,,,,,,,,,,,,,,,,,,,,,,,,,,,,,,,,,,,,,,,,,,,,,,,,,,,
295966,2022-10-04_15h03.04.053,vts_reward_expectancy,2022.2.4,MacIntel,60.0024001,Chrome,1440,900,,,,,,,,,,,,,,,,,,,,,,,174,W,star,0,0,,0,0,0,0,0,1,,,,,,,,,,,,,,,,,,,,,,,,,,,,,,,,,,,,,,,,,,
295966,2022-10-04_15h03.04.053,vts_reward_expectancy,2022.2.4,MacIntel,60.0024001,Chrome,1440,900,,,,,,,,,,,,,,,,,,,,,,,160,S,hexagon,1,1,f,0,1,0,1,0,1,0.9355,,,,,,,,,,,,,,,,,,,,,,,,,,,,,,,,,,,,,,,,,
295966,2022-10-04_15h03.04.053,vts_reward_expectancy,2022.2.4,MacIntel,60.0024001,Chrome,1440,900,,,,,,,,,,,,,,,,,,,,,,,181,D,circle,1,0,f,0,2,0,2,0,1,0.7204,,,,,,,,,,,,,,,,,,,,,,,,,,,,,,,,,,,,,,,,,
295966,2022-10-04_15h03.04.053,vts_reward_expectancy,2022.2.4,MacIntel,60.0024001,Chrome,1440,900,,,,,,,,,,,,,,,,,,,,,,,125,H,triangle,1,0,d,0,3,0,3,0,1,0.8458,,,,,,,,,,,,,,,,,,,,,,,,,,,,,,,,,,,,,,,,,
295966,2022-10-04_15h03.04.053,vts_reward_expectancy,2022.2.4,MacIntel,60.0024001,Chrome,1440,900,,,,,,,,,,,,,,,,,,,,,,,132,Y,star,1,0,d,0,4,0,4,0,1,0.6704,,,,,,,,,,,,,,,,,,,,,,,,,,,,,,,,,,,,,,,,,
295966,2022-10-04_15h03.04.053,vts_reward_expectancy,2022.2.4,MacIntel,60.0024001,Chrome,1440,900,,,,,,,,,,,,,,,,,,,,,,,146,U,hexagon,1,0,d,0,5,0,5,0,1,0.6699,,,,,,,,,,,,,,,,,,,,,,,,,,,,,,,,,,,,,,,,,
295966,2022-10-04_15h03.04.053,vts_reward_expectancy,2022.2.4,MacIntel,60.0024001,Chrome,1440,900,,,,,,,,,,,,,,,,,,,,,,,167,F,circle,1,0,f,0,6,0,6,0,1,0.9459,,,,,,,,,,,,,,,,,,,,,,,,,,,,,,,,,,,,,,,,,
295966,2022-10-04_15h03.04.053,vts_reward_expectancy,2022.2.4,MacIntel,60.0024001,Chrome,1440,900,,,,,,,,,,,,,,,,,,,,,,,139,B,triangle,1,0,d,0,7,0,7,0,1,0.9675,,,,,,,,,,,,,,,,,,,,,,,,,,,,,,,,,,,,,,,,,
295966,2022-10-04_15h03.04.053,vts_reward_expectancy,2022.2.4,MacIntel,60.0024001,Chrome,1440,900,,,,,,,,,,,,,,,,,,,,,,,174,W,triangle,1,0,f,0,8,0,8,0,1,0.5827,,,,,,,,,,,,,,,,,,,,,,,,,,,,,,,,,,,,,,,,,
295966,2022-10-04_15h03.04.053,vts_reward_expectancy,2022.2.4,MacIntel,60.0024001,Chrome,1440,900,,,,,,,,,,,,,,,,,,,,,,,160,S,star,1,0,f,0,9,0,9,0,1,0.8117,,,,,,,,,,,,,,,,,,,,,,,,,,,,,,,,,,,,,,,,,
295966,2022-10-04_15h03.04.053,vts_reward_expectancy,2022.2.4,MacIntel,60.0024001,Chrome,1440,900,,,,,,,,,,,,,,,,,,,,,,,167,W,triangle,0,0,,1,,,,,,,,0,0,0,0,1,,,,,,,,,,,,,,,,,,,,,,,,,,,,,,,,,,,
295966,2022-10-04_15h03.04.053,vts_reward_expectancy,2022.2.4,MacIntel,60.0024001,Chrome,1440,900,,,,,,,,,,,,,,,,,,,,,,,132,B,hexagon,1,1,,1,,,,,,,j,1,0,1,0,1,0.9296,,,,,,,,,,,,,,,,,,,,,,,,,,,,,,,,,,
295966,2022-10-04_15h03.04.053,vts_reward_expectancy,2022.2.4,MacIntel,60.0024001,Chrome,1440,900,,,,,,,,,,,,,,,,,,,,,,,139,H,star,1,0,,1,,,,,,,j,2,0,2,0,1,1.0042,,,,,,,,,,,,,,,,,,,,,,,,,,,,,,,,,,
295966,2022-10-04_15h03.04.053,vts_reward_expectancy,2022.2.4,MacIntel,60.0024001,Chrome,1440,900,,,,,,,,,,,,,,,,,,,,,,,181,Y,circle,1,0,,1,,,,,,,k,3,0,3,0,1,0.6448,,,,,,,,,,,,,,,,,,,,,,,,,,,,,,,,,,
295966,2022-10-04_15h03.04.053,vts_reward_expectancy,2022.2.4,MacIntel,60.0024001,Chrome,1440,900,,,,,,,,,,,,,,,,,,,,,,,146,U,triangle,1,0,,1,,,,,,,k,4,0,4,0,1,0.6918,,,,,,,,,,,,,,,,,,,,,,,,,,,,,,,,,,
295966,2022-10-04_15h03.04.053,vts_reward_expectancy,2022.2.4,MacIntel,60.0024001,Chrome,1440,900,,,,,,,,,,,,,,,,,,,,,,,125,F,hexagon,1,0,,1,,,,,,,j,5,0,5,0,1,0.9979,,,,,,,,,,,,,,,,,,,,,,,,,,,,,,,,,,
295966,2022-10-04_15h03.04.053,vts_reward_expectancy,2022.2.4,MacIntel,60.0024001,Chrome,1440,900,,,,,,,,,,,,,,,,,,,,,,,160,S,star,1,0,,1,,,,,,,k,6,0,6,0,1,0.7611,,,,,,,,,,,,,,,,,,,,,,,,,,,,,,,,,,
295966,2022-10-04_15h03.04.053,vts_reward_expectancy,2022.2.4,MacIntel,60.0024001,Chrome,1440,900,,,,,,,,,,,,,,,,,,,,,,,174,D,circle,1,0,,1,,,,,,,j,7,0,7,0,1,0.7086,,,,,,,,,,,,,,,,,,,,,,,,,,,,,,,,,,
295966,2022-10-04_15h03.04.053,vts_reward_expectancy,2022.2.4,MacIntel,60.0024001,Chrome,1440,900,,,,,,,,,,,,,,,,,,,,,,,167,W,triangle,1,0,,1,,,,,,,k,8,0,8,0,1,0.6093,,,,,,,,,,,,,,,,,,,,,,,,,,,,,,,,,,
295966,2022-10-04_15h03.04.053,vts_reward_expectancy,2022.2.4,MacIntel,60.0024001,Chrome,1440,900,,,,,,,,,,,,,,,,,,,,,,,132,B,star,1,0,,1,,,,,,,j,9,0,9,0,1,0.7347,,,,,,,,,,,,,,,,,,,,,,,,,,,,,,,,,,
295966,2022-10-04_15h03.04.053,vts_reward_expectancy,2022.2.4,MacIntel,60.0024001,Chrome,1440,900,,,,,0,540,,,,,,,,,,,,,,,,,167,W,hexagon,1,0,,2,,,,,,,,,,,,,,-1,letter,NA,k,1.4961,vtsPrac,0,0,0,0,1,,,,,,,,,,,,,,,,,,,,,,,
295966,2022-10-04_15h03.04.053,vts_reward_expectancy,2022.2.4,MacIntel,60.0024001,Chrome,1440,900,,,,,0,540,,,,,,,,,,,,,,,,,181,U,star,1,0,,2,,,,,,,,,,,,,,repeat,letter,lettRpt,k,1.5996,vtsPrac,1,0,1,0,1,,,,,,,,,,,,,,,,,,,,,,,
295966,2022-10-04_15h03.04.053,vts_reward_expectancy,2022.2.4,MacIntel,60.0024001,Chrome,1440,900,,,,,0,540,,,,,,,,,,,,,,,,,174,D,hexagon,1,0,,2,,,,,,,,,,,,,,switch,number,numSwt,f,1.4607,vtsPrac,2,0,2,0,1,,,,,,,,,,,,,,,,,,,,,,,
295966,2022-10-04_15h03.04.053,vts_reward_expectancy,2022.2.4,MacIntel,60.0024001,Chrome,1440,900,,,,,0,540,,,,,,,,,,,,,,,,,132,B,star,1,0,,2,,,,,,,,,,,,,,switch,letter,lettSwt,j,0.5968,vtsPrac,3,0,3,0,1,,,,,,,,,,,,,,,,,,,,,,,
295966,2022-10-04_15h03.04.053,vts_reward_expectancy,2022.2.4,MacIntel,60.0024001,Chrome,1440,900,,,,,0,540,,,,,,,,,,,,,,,,,167,W,triangle,1,0,,2,,,,,,,,,,,,,,switch,number,numSwt,f,0.8636,vtsPrac,4,0,4,0,1,,,,,,,,,,,,,,,,,,,,,,,
295966,2022-10-04_15h03.04.053,vts_reward_expectancy,2022.2.4,MacIntel,60.0024001,Chrome,1440,900,,,,,0,540,,,,,,,,,,,,,,,,,181,U,circle,1,0,,2,,,,,,,,,,,,,,repeat,number,numRpt,f,0.6106,vtsPrac,5,0,5,0,1,,,,,,,,,,,,,,,,,,,,,,,
295966,2022-10-04_15h03.04.053,vts_reward_expectancy,2022.2.4,MacIntel,60.0024001,Chrome,1440,900,,,,,0,540,,,,,,,,,,,,,,,,,174,D,star,1,0,,2,,,,,,,,,,,,,,switch,letter,lettSwt,j,0.7598,vtsPrac,6,0,6,0,1,,,,,,,,,,,,,,,,,,,,,,,
295966,2022-10-04_15h03.04.053,vts_reward_expectancy,2022.2.4,MacIntel,60.0024001,Chrome,1440,900,,,,,0,540,,,,,,,,,,,,,,,,,132,B,circle,1,0,,2,,,,,,,,,,,,,,switch,number,numSwt,d,0.5677,vtsPrac,7,0,7,0,1,,,,,,,,,,,,,,,,,,,,,,,
295966,2022-10-04_15h03.04.053,vts_reward_expectancy,2022.2.4,MacIntel,60.0024001,Chrome,1440,900,,,,,0,540,,,,,,,,,,,,,,,,,174,D,star,1,0,,2,,,,,,,,,,,,,,repeat,number,numRpt,f,0.6738,vtsPrac,8,0,8,0,1,,,,,,,,,,,,,,,,,,,,,,,
295966,2022-10-04_15h03.04.053,vts_reward_expectancy,2022.2.4,MacIntel,60.0024001,Chrome,1440,900,,,,,0,540,,,,,,,,,,,,,,,,,125,H,circle,1,0,,2,,,,,,,,,,,,,,switch,letter,lettSwt,j,0.9294,vtsPrac,9,0,9,0,1,,,,,,,,,,,,,,,,,,,,,,,
295966,2022-10-04_15h03.04.053,vts_reward_expectancy,2022.2.4,MacIntel,60.0024001,Chrome,1440,900,,,,,0,540,,,,,,,,,,,,,,,,,167,W,triangle,1,0,,2,,,,,,,,,,,,,,repeat,letter,lettRpt,k,0.8739,vtsPrac,10,0,10,0,1,,,,,,,,,,,,,,,,,,,,,,,
295966,2022-10-04_15h03.04.053,vts_reward_expectancy,2022.2.4,MacIntel,60.0024001,Chrome,1440,900,,,,,0,540,,,,,,,,,,,,,,,,,132,B,star,1,0,,2,,,,,,,,,,,,,,repeat,letter,lettRpt,j,0.7438,vtsPrac,11,0,11,0,1,,,,,,,,,,,,,,,,,,,,,,,
295966,2022-10-04_15h03.04.053,vts_reward_expectancy,2022.2.4,MacIntel,60.0024001,Chrome,1440,900,,,,,0,540,,,,,,,,,,,,,,,,,132,F,triangle,1,0,,2,,,,,,,,,,,,,,switch,number,numSwt,d,0.6294,vtsPrac,12,0,12,0,1,,,,,,,,,,,,,,,,,,,,,,,
295966,2022-10-04_15h03.04.053,vts_reward_expectancy,2022.2.4,MacIntel,60.0024001,Chrome,1440,900,,,,,0,540,,,,,,,,,,,,,,,,,174,D,circle,1,0,,2,,,,,,,,,,,,,,switch,letter,lettSwt,j,0.8209,vtsPrac,13,0,13,0,1,,,,,,,,,,,,,,,,,,,,,,,
295966,2022-10-04_15h03.04.053,vts_reward_expectancy,2022.2.4,MacIntel,60.0024001,Chrome,1440,900,,,,,0,540,,,,,,,,,,,,,,,,,139,Y,hexagon,1,0,,2,,,,,,,,,,,,,,switch,number,numSwt,d,1.037,vtsPrac,14,0,14,0,1,,,,,,,,,,,,,,,,,,,,,,,
295966,2022-10-04_15h03.04.053,vts_reward_expectancy,2022.2.4,MacIntel,60.0024001,Chrome,1440,900,,,,,0,540,,,,,,,,,,,,,,,,,167,W,star,1,0,,2,,,,,,,,,,,,,,repeat,number,numRpt,f,0.6954,vtsPrac,15,0,15,0,1,,,,,,,,,,,,,,,,,,,,,,,
295966,2022-10-04_15h03.04.053,vts_reward_expectancy,2022.2.4,MacIntel,60.0024001,Chrome,1440,900,,,,,,,,,,,,,,,,,,,,,,,,,,,,,,,,,,,,,,,,,,,,,,,,,,,,,,,,,,,,,,,,,,,,,,,,,,,,
295966,2022-10-04_15h03.04.053,vts_reward_expectancy,2022.2.4,MacIntel,60.0024001,Chrome,1440,900,,,,,,,,,,,,,,,,,,,,,,,,,,,,,,,,,,,,,,,,,,,,,,,,,,,,,,,,,,,,,,,,,,,,,,,,,,,,
295966,2022-10-04_15h03.04.053,vts_reward_expectancy,2022.2.4,MacIntel,60.0024001,Chrome,1440,900,,,,,0,540,,,,,,,,,,,,,,,,,160,Y,hexagon,1,0,,,,,,,,,,,,,,,,switch,letter,lettSwt,k,0.669,noRew,,,,,,0,0,0,0,0,1,,,,,,,,,,,,,,,,,
295966,2022-10-04_15h03.04.053,vts_reward_expectancy,2022.2.4,MacIntel,60.0024001,Chrome,1440,900,,,,,0,540,,,,,,,,,,,,,,,,,125,S,star,1,0,,,,,,,,,,,,,,,,repeat,letter,lettRpt,k,1.0484,noRew,,,,,,0,1,0,1,0,1,,,,,,,,,,,,,,,,,
295966,2022-10-04_15h03.04.053,vts_reward_expectancy,2022.2.4,MacIntel,60.0024001,Chrome,1440,900,,,,,0,540,,,,,,,,,,,,,,,,,132,D,hexagon,1,0,,,,,,,,,,,,,,,,switch,number,numSwt,d,0.7965,noRew,,,,,,0,2,0,2,0,1,,,,,,,,,,,,,,,,,
295966,2022-10-04_15h03.04.053,vts_reward_expectancy,2022.2.4,MacIntel,60.0024001,Chrome,1440,900,,,,,0,540,,,,,,,,,,,,,,,,,167,B,star,1,0,,,,,,,,,,,,,,,,repeat,number,numRpt,f,0.5925,noRew,,,,,,0,3,0,3,0,1,,,,,,,,,,,,,,,,,
295966,2022-10-04_15h03.04.053,vts_reward_expectancy,2022.2.4,MacIntel,60.0024001,Chrome,1440,900,,,,,0,540,,,,,,,,,,,,,,,,,160,Y,circle,1,0,,,,,,,,,,,,,,,,repeat,number,numRpt,f,0.6089,noRew,,,,,,0,4,0,4,0,1,,,,,,,,,,,,,,,,,
295966,2022-10-04_15h03.04.053,vts_reward_expectancy,2022.2.4,MacIntel,60.0024001,Chrome,1440,900,,,,,0,540,,,,,,,,,,,,,,,,,125,S,star,1,0,,,,,,,,,,,,,,,,switch,letter,lettSwt,k,1.0453,noRew,,,,,,0,5,0,5,0,1,,,,,,,,,,,,,,,,,
295966,2022-10-04_15h03.04.053,vts_reward_expectancy,2022.2.4,MacIntel,60.0024001,Chrome,1440,900,,,,,0,540,,,,,,,,,,,,,,,,,132,D,hexagon,1,0,,,,,,,,,,,,,,,,repeat,letter,lettRpt,j,0.6413,noRew,,,,,,0,6,0,6,0,1,,,,,,,,,,,,,,,,,
295966,2022-10-04_15h03.04.053,vts_reward_expectancy,2022.2.4,MacIntel,60.0024001,Chrome,1440,900,,,,,0,540,,,,,,,,,,,,,,,,,167,B,star,1,0,,,,,,,,,,,,,,,,repeat,letter,lettRpt,j,0.5947,noRew,,,,,,0,7,0,7,0,1,,,,,,,,,,,,,,,,,
295966,2022-10-04_15h03.04.053,vts_reward_expectancy,2022.2.4,MacIntel,60.0024001,Chrome,1440,900,,,,,0,540,,,,,,,,,,,,,,,,,146,Y,triangle,1,0,,,,,,,,,,,,,,,,repeat,letter,lettRpt,k,0.756,noRew,,,,,,0,8,0,8,0,1,,,,,,,,,,,,,,,,,
295966,2022-10-04_15h03.04.053,vts_reward_expectancy,2022.2.4,MacIntel,60.0024001,Chrome,1440,900,,,,,0,540,,,,,,,,,,,,,,,,,167,F,star,1,0,,,,,,,,,,,,,,,,switch,number,numSwt,f,1.6938,noRew,,,,,,0,9,0,9,0,1,,,,,,,,,,,,,,,,,
295966,2022-10-04_15h03.04.053,vts_reward_expectancy,2022.2.4,MacIntel,60.0024001,Chrome,1440,900,,,,,0,540,,,,,,,,,,,,,,,,,125,B,star,1,0,,,,,,,,,,,,,,,,repeat,number,numRpt,d,0.6162,noRew,,,,,,0,10,0,10,0,1,,,,,,,,,,,,,,,,,
295966,2022-10-04_15h03.04.053,vts_reward_expectancy,2022.2.4,MacIntel,60.0024001,Chrome,1440,900,,,,,0,540,,,,,,,,,,,,,,,,,174,S,hexagon,1,0,,,,,,,,,,,,,,,,repeat,number,numRpt,f,0.7409,noRew,,,,,,0,11,0,11,0,1,,,,,,,,,,,,,,,,,
295966,2022-10-04_15h03.04.053,vts_reward_expectancy,2022.2.4,MacIntel,60.0024001,Chrome,1440,900,,,,,0,540,,,,,,,,,,,,,,,,,146,F,circle,1,0,,,,,,,,,,,,,,,,repeat,number,numRpt,d,1.4142,noRew,,,,,,0,12,0,12,0,1,,,,,,,,,,,,,,,,,
295966,2022-10-04_15h03.04.053,vts_reward_expectancy,2022.2.4,MacIntel,60.0024001,Chrome,1440,900,,,,,0,540,,,,,,,,,,,,,,,,,139,D,star,1,0,,,,,,,,,,,,,,,,repeat,number,numRpt,d,1.2467,noRew,,,,,,0,13,0,13,0,1,,,,,,,,,,,,,,,,,
295966,2022-10-04_15h03.04.053,vts_reward_expectancy,2022.2.4,MacIntel,60.0024001,Chrome,1440,900,,,,,0,540,,,,,,,,,,,,,,,,,132,S,hexagon,1,0,,,,,,,,,,,,,,,,switch,letter,lettSwt,k,1.3671,noRew,,,,,,0,14,0,14,0,1,,,,,,,,,,,,,,,,,
295966,2022-10-04_15h03.04.053,vts_reward_expectancy,2022.2.4,MacIntel,60.0024001,Chrome,1440,900,,,,,0,540,,,,,,,,,,,,,,,,,174,B,circle,1,0,,,,,,,,,,,,,,,,repeat,letter,lettRpt,j,1.1145,noRew,,,,,,0,15,0,15,0,1,,,,,,,,,,,,,,,,,
295966,2022-10-04_15h03.04.053,vts_reward_expectancy,2022.2.4,MacIntel,60.0024001,Chrome,1440,900,,,,,0,540,,,,,,,,,,,,,,,,,160,U,hexagon,1,0,,,,,,,,,,,,,,,,switch,number,numSwt,f,1.0582,noRew,,,,,,0,16,0,16,0,1,,,,,,,,,,,,,,,,,
295966,2022-10-04_15h03.04.053,vts_reward_expectancy,2022.2.4,MacIntel,60.0024001,Chrome,1440,900,,,,,0,540,,,,,,,,,,,,,,,,,146,B,star,1,0,,,,,,,,,,,,,,,,repeat,number,numRpt,d,0.6951,noRew,,,,,,0,17,0,17,0,1,,,,,,,,,,,,,,,,,
295966,2022-10-04_15h03.04.053,vts_reward_expectancy,2022.2.4,MacIntel,60.0024001,Chrome,1440,900,,,,,0,540,,,,,,,,,,,,,,,,,181,F,triangle,1,0,,,,,,,,,,,,,,,,repeat,number,numRpt,f,0.8328,noRew,,,,,,0,18,0,18,0,1,,,,,,,,,,,,,,,,,
295966,2022-10-04_15h03.04.053,vts_reward_expectancy,2022.2.4,MacIntel,60.0024001,Chrome,1440,900,,,,,0,540,,,,,,,,,,,,,,,,,132,D,hexagon,1,0,,,,,,,,,,,,,,,,switch,letter,lettSwt,j,1.3398,noRew,,,,,,0,19,0,19,0,1,,,,,,,,,,,,,,,,,
295966,2022-10-04_15h03.04.053,vts_reward_expectancy,2022.2.4,MacIntel,60.0024001,Chrome,1440,900,,,,,0,540,,,,,,,,,,,,,,,,,174,H,triangle,1,0,,,,,,,,,,,,,,,,repeat,letter,lettRpt,j,1.1687,noRew,,,,,,0,20,0,20,0,1,,,,,,,,,,,,,,,,,
295966,2022-10-04_15h03.04.053,vts_reward_expectancy,2022.2.4,MacIntel,60.0024001,Chrome,1440,900,,,,,0,540,,,,,,,,,,,,,,,,,139,Y,hexagon,1,0,,,,,,,,,,,,,,,,switch,number,numSwt,d,0.9124,noRew,,,,,,0,21,0,21,0,1,,,,,,,,,,,,,,,,,
295966,2022-10-04_15h03.04.053,vts_reward_expectancy,2022.2.4,MacIntel,60.0024001,Chrome,1440,900,,,,,0,540,,,,,,,,,,,,,,,,,146,F,circle,1,0,,,,,,,,,,,,,,,,repeat,number,numRpt,d,1.3425,noRew,,,,,,0,22,0,22,0,1,,,,,,,,,,,,,,,,,
295966,2022-10-04_15h03.04.053,vts_reward_expectancy,2022.2.4,MacIntel,60.0024001,Chrome,1440,900,,,,,0,540,,,,,,,,,,,,,,,,,160,D,star,1,0,,,,,,,,,,,,,,,,repeat,number,numRpt,f,0.6593,noRew,,,,,,0,23,0,23,0,1,,,,,,,,,,,,,,,,,
295966,2022-10-04_15h03.04.053,vts_reward_expectancy,2022.2.4,MacIntel,60.0024001,Chrome,1440,900,,,,,0,540,,,,,,,,,,,,,,,,,125,B,hexagon,1,0,,,,,,,,,,,,,,,,switch,letter,lettSwt,j,0.5598,noRew,,,,,,0,24,0,24,0,1,,,,,,,,,,,,,,,,,
295966,2022-10-04_15h03.04.053,vts_reward_expectancy,2022.2.4,MacIntel,60.0024001,Chrome,1440,900,,,,,0,540,,,,,,,,,,,,,,,,,139,H,triangle,1,0,,,,,,,,,,,,,,,,repeat,letter,lettRpt,j,1.2442,noRew,,,,,,0,25,0,25,0,1,,,,,,,,,,,,,,,,,
295966,2022-10-04_15h03.04.053,vts_reward_expectancy,2022.2.4,MacIntel,60.0024001,Chrome,1440,900,,,,,0,540,,,,,,,,,,,,,,,,,174,Y,hexagon,1,0,,,,,,,,,,,,,,,,repeat,letter,lettRpt,k,0.7204,noRew,,,,,,0,26,0,26,0,1,,,,,,,,,,,,,,,,,
295966,2022-10-04_15h03.04.053,vts_reward_expectancy,2022.2.4,MacIntel,60.0024001,Chrome,1440,900,,,,,0,540,,,,,,,,,,,,,,,,,181,F,star,1,0,,,,,,,,,,,,,,,,switch,number,numSwt,f,1.3306,noRew,,,,,,0,27,0,27,0,1,,,,,,,,,,,,,,,,,
295966,2022-10-04_15h03.04.053,vts_reward_expectancy,2022.2.4,MacIntel,60.0024001,Chrome,1440,900,,,,,0,540,,,,,,,,,,,,,,,,,167,U,circle,1,0,,,,,,,,,,,,,,,,repeat,number,numRpt,f,0.9962,noRew,,,,,,0,28,0,28,0,1,,,,,,,,,,,,,,,,,
295966,2022-10-04_15h03.04.053,vts_reward_expectancy,2022.2.4,MacIntel,60.0024001,Chrome,1440,900,,,,,0,540,,,,,,,,,,,,,,,,,132,D,hexagon,1,0,,,,,,,,,,,,,,,,repeat,number,numRpt,d,0.6511,noRew,,,,,,0,29,0,29,0,1,,,,,,,,,,,,,,,,,
295966,2022-10-04_15h03.04.053,vts_reward_expectancy,2022.2.4,MacIntel,60.0024001,Chrome,1440,900,,,,,0,540,,,,,,,,,,,,,,,,,125,F,triangle,1,0,,,,,,,,,,,,,,,,switch,letter,lettSwt,j,1.0796,noRew,,,,,,0,30,0,30,0,1,,,,,,,,,,,,,,,,,
295966,2022-10-04_15h03.04.053,vts_reward_expectancy,2022.2.4,MacIntel,60.0024001,Chrome,1440,900,,,,,0,540,,,,,,,,,,,,,,,,,174,Y,circle,1,0,,,,,,,,,,,,,,,,repeat,letter,lettRpt,k,0.7899,noRew,,,,,,0,31,0,31,0,1,,,,,,,,,,,,,,,,,
295966,2022-10-04_15h03.04.053,vts_reward_expectancy,2022.2.4,MacIntel,60.0024001,Chrome,1440,900,,,,,0,540,,,,,,,,,,,,,,,,,181,F,circle,1,0,,,,,,,,,,,,,,,,repeat,letter,lettRpt,j,1.7757,noRew,,,,,,0,32,0,32,0,1,,,,,,,,,,,,,,,,,
295966,2022-10-04_15h03.04.053,vts_reward_expectancy,2022.2.4,MacIntel,60.0024001,Chrome,1440,900,,,,,0,540,,,,,,,,,,,,,,,,,146,D,star,1,0,,,,,,,,,,,,,,,,switch,number,numSwt,d,1.5482,noRew,,,,,,0,33,0,33,0,1,,,,,,,,,,,,,,,,,
295966,2022-10-04_15h03.04.053,vts_reward_expectancy,2022.2.4,MacIntel,60.0024001,Chrome,1440,900,,,,,0,540,,,,,,,,,,,,,,,,,167,H,hexagon,1,0,,,,,,,,,,,,,,,,repeat,number,numRpt,f,0.7007,noRew,,,,,,0,34,0,34,0,1,,,,,,,,,,,,,,,,,
295966,2022-10-04_15h03.04.053,vts_reward_expectancy,2022.2.4,MacIntel,60.0024001,Chrome,1440,900,,,,,0,540,,,,,,,,,,,,,,,,,139,Y,triangle,1,0,,,,,,,,,,,,,,,,repeat,number,numRpt,d,1.0587,noRew,,,,,,0,35,0,35,0,1,,,,,,,,,,,,,,,,,
295966,2022-10-04_15h03.04.053,vts_reward_expectancy,2022.2.4,MacIntel,60.0024001,Chrome,1440,900,,,,,0,540,,,,,,,,,,,,,,,,,160,S,star,1,0,,,,,,,,,,,,,,,,repeat,number,numRpt,f,0.8974,noRew,,,,,,0,36,0,36,0,1,,,,,,,,,,,,,,,,,
295966,2022-10-04_15h03.04.053,vts_reward_expectancy,2022.2.4,MacIntel,60.0024001,Chrome,1440,900,,,,,0,540,,,,,,,,,,,,,,,,,146,H,hexagon,1,0,,,,,,,,,,,,,,,,repeat,number,numRpt,d,1.3133,noRew,,,,,,0,37,0,37,0,1,,,,,,,,,,,,,,,,,
295966,2022-10-04_15h03.04.053,vts_reward_expectancy,2022.2.4,MacIntel,60.0024001,Chrome,1440,900,,,,,0,540,,,,,,,,,,,,,,,,,125,F,star,1,0,,,,,,,,,,,,,,,,switch,letter,lettSwt,j,0.819,noRew,,,,,,0,38,0,38,0,1,,,,,,,,,,,,,,,,,
295966,2022-10-04_15h03.04.053,vts_reward_expectancy,2022.2.4,MacIntel,60.0024001,Chrome,1440,900,,,,,0,540,,,,,,,,,,,,,,,,,181,W,triangle,1,0,,,,,,,,,,,,,,,,repeat,letter,lettRpt,k,1.6923,noRew,,,,,,0,39,0,39,0,1,,,,,,,,,,,,,,,,,
295966,2022-10-04_15h03.04.053,vts_reward_expectancy,2022.2.4,MacIntel,60.0024001,Chrome,1440,900,,,,,0,540,,,,,,,,,,,,,,,,,139,B,triangle,1,0,,,,,,,,,,,,,,,,repeat,letter,lettRpt,j,0.7257,noRew,,,,,,0,40,0,40,0,1,,,,,,,,,,,,,,,,,
295966,2022-10-04_15h03.04.053,vts_reward_expectancy,2022.2.4,MacIntel,60.0024001,Chrome,1440,900,,,,,0,540,,,,,,,,,,,,,,,,,125,D,circle,1,0,,,,,,,,,,,,,,,,switch,number,numSwt,d,0.8851,noRew,,,,,,0,41,0,41,0,1,,,,,,,,,,,,,,,,,
295966,2022-10-04_15h03.04.053,vts_reward_expectancy,2022.2.4,MacIntel,60.0024001,Chrome,1440,900,,,,,0,540,,,,,,,,,,,,,,,,,167,Y,hexagon,1,0,,,,,,,,,,,,,,,,repeat,number,numRpt,f,0.947,noRew,,,,,,0,42,0,42,0,1,,,,,,,,,,,,,,,,,
295966,2022-10-04_15h03.04.053,vts_reward_expectancy,2022.2.4,MacIntel,60.0024001,Chrome,1440,900,,,,,0,540,,,,,,,,,,,,,,,,,181,F,star,1,0,,,,,,,,,,,,,,,,repeat,number,numRpt,f,0.653,noRew,,,,,,0,43,0,43,0,1,,,,,,,,,,,,,,,,,
295966,2022-10-04_15h03.04.053,vts_reward_expectancy,2022.2.4,MacIntel,60.0024001,Chrome,1440,900,,,,,0,540,,,,,,,,,,,,,,,,,132,D,star,1,0,,,,,,,,,,,,,,,,switch,letter,lettSwt,j,0.9303,noRew,,,,,,0,44,0,44,0,1,,,,,,,,,,,,,,,,,
295966,2022-10-04_15h03.04.053,vts_reward_expectancy,2022.2.4,MacIntel,60.0024001,Chrome,1440,900,,,,,0,540,,,,,,,,,,,,,,,,,146,S,circle,1,0,,,,,,,,,,,,,,,,repeat,letter,lettRpt,k,0.7923,noRew,,,,,,0,45,0,45,0,1,,,,,,,,,,,,,,,,,
295966,2022-10-04_15h03.04.053,vts_reward_expectancy,2022.2.4,MacIntel,60.0024001,Chrome,1440,900,,,,,0,540,,,,,,,,,,,,,,,,,139,Y,star,1,0,,,,,,,,,,,,,,,,switch,number,numSwt,d,0.6929,noRew,,,,,,0,46,0,46,0,1,,,,,,,,,,,,,,,,,
295966,2022-10-04_15h03.04.053,vts_reward_expectancy,2022.2.4,MacIntel,60.0024001,Chrome,1440,900,,,,,0,540,,,,,,,,,,,,,,,,,160,H,triangle,1,0,,,,,,,,,,,,,,,,switch,letter,lettSwt,j,0.7851,noRew,,,,,,0,47,0,47,0,1,,,,,,,,,,,,,,,,,
295966,2022-10-04_15h03.04.053,vts_reward_expectancy,2022.2.4,MacIntel,60.0024001,Chrome,1440,900,,,,,0,540,,,,,,,,,,,,,,,,,174,U,circle,1,0,,,,,,,,,,,,,,,,switch,number,numSwt,f,0.9357,noRew,,,,,,0,48,0,48,0,1,,,,,,,,,,,,,,,,,
295966,2022-10-04_15h03.04.053,vts_reward_expectancy,2022.2.4,MacIntel,60.0024001,Chrome,1440,900,,,,,0,540,,,,,,,,,,,,,,,,,132,D,triangle,1,0,,,,,,,,,,,,,,,,repeat,number,numRpt,d,0.7226,noRew,,,,,,0,49,0,49,0,1,,,,,,,,,,,,,,,,,
295966,2022-10-04_15h03.04.053,vts_reward_expectancy,2022.2.4,MacIntel,60.0024001,Chrome,1440,900,,,,,0,540,,,,,,,,,,,,,,,,,146,H,star,1,0,,,,,,,,,,,,,,,,repeat,number,numRpt,d,0.7689,noRew,,,,,,0,50,0,50,0,1,,,,,,,,,,,,,,,,,
295966,2022-10-04_15h03.04.053,vts_reward_expectancy,2022.2.4,MacIntel,60.0024001,Chrome,1440,900,,,,,0,540,,,,,,,,,,,,,,,,,160,S,circle,1,0,,,,,,,,,,,,,,,,switch,letter,lettSwt,k,0.7911,noRew,,,,,,0,51,0,51,0,1,,,,,,,,,,,,,,,,,
295966,2022-10-04_15h03.04.053,vts_reward_expectancy,2022.2.4,MacIntel,60.0024001,Chrome,1440,900,,,,,0,540,,,,,,,,,,,,,,,,,160,W,circle,1,0,,,,,,,,,,,,,,,,repeat,letter,lettRpt,k,0.7478,noRew,,,,,,0,52,0,52,0,1,,,,,,,,,,,,,,,,,
295966,2022-10-04_15h03.04.053,vts_reward_expectancy,2022.2.4,MacIntel,60.0024001,Chrome,1440,900,,,,,0,540,,,,,,,,,,,,,,,,,174,Y,hexagon,1,0,,,,,,,,,,,,,,,,switch,number,numSwt,f,0.906,noRew,,,,,,0,53,0,53,0,1,,,,,,,,,,,,,,,,,
295966,2022-10-04_15h03.04.053,vts_reward_expectancy,2022.2.4,MacIntel,60.0024001,Chrome,1440,900,,,,,0,540,,,,,,,,,,,,,,,,,146,S,hexagon,1,0,,,,,,,,,,,,,,,,repeat,number,numRpt,d,0.8564,noRew,,,,,,0,54,0,54,0,1,,,,,,,,,,,,,,,,,
295966,2022-10-04_15h03.04.053,vts_reward_expectancy,2022.2.4,MacIntel,60.0024001,Chrome,1440,900,,,,,0,540,,,,,,,,,,,,,,,,,181,U,star,1,0,,,,,,,,,,,,,,,,switch,letter,lettSwt,k,0.7966,noRew,,,,,,0,55,0,55,0,1,,,,,,,,,,,,,,,,,
295966,2022-10-04_15h03.04.053,vts_reward_expectancy,2022.2.4,MacIntel,60.0024001,Chrome,1440,900,,,,,0,540,,,,,,,,,,,,,,,,,181,H,circle,1,0,,,,,,,,,,,,,,,,switch,number,numSwt,f,1.0308,noRew,,,,,,0,56,0,56,0,1,,,,,,,,,,,,,,,,,
295966,2022-10-04_15h03.04.053,vts_reward_expectancy,2022.2.4,MacIntel,60.0024001,Chrome,1440,900,,,,,0,540,,,,,,,,,,,,,,,,,167,F,triangle,0,0,,,,,,,,,,,,,,,,repeat,number,NA,d,0.5115,noRew,,,,,,0,57,0,57,0,1,,,,,,,,,,,,,,,,,
295966,2022-10-04_15h03.04.053,vts_reward_expectancy,2022.2.4,MacIntel,60.0024001,Chrome,1440,900,,,,,0,540,,,,,,,,,,,,,,,,,146,D,hexagon,1,1,,,,,,,,,,,,,,,,repeat,number,numRpt,d,0.9966,noRew,,,,,,0,58,0,58,0,1,,,,,,,,,,,,,,,,,
295966,2022-10-04_15h03.04.053,vts_reward_expectancy,2022.2.4,MacIntel,60.0024001,Chrome,1440,900,,,,,0,540,,,,,,,,,,,,,,,,,160,Y,triangle,1,0,,,,,,,,,,,,,,,,repeat,number,numRpt,f,0.8148,noRew,,,,,,0,59,0,59,0,1,,,,,,,,,,,,,,,,,
295966,2022-10-04_15h03.04.053,vts_reward_expectancy,2022.2.4,MacIntel,60.0024001,Chrome,1440,900,,,,,0,540,,,,,,,,,,,,,,,,,139,F,star,1,0,,,,,,,,,,,,,,,,switch,letter,lettSwt,j,0.7119,noRew,,,,,,0,60,0,60,0,1,,,,,,,,,,,,,,,,,
295966,2022-10-04_15h03.04.053,vts_reward_expectancy,2022.2.4,MacIntel,60.0024001,Chrome,1440,900,,,,,0,540,,,,,,,,,,,,,,,,,174,D,hexagon,1,0,,,,,,,,,,,,,,,,repeat,letter,lettRpt,j,0.898,noRew,,,,,,0,61,0,61,0,1,,,,,,,,,,,,,,,,,
295966,2022-10-04_15h03.04.053,vts_reward_expectancy,2022.2.4,MacIntel,60.0024001,Chrome,1440,900,,,,,0,540,,,,,,,,,,,,,,,,,132,W,hexagon,1,0,,,,,,,,,,,,,,,,repeat,letter,lettRpt,k,1.0868,noRew,,,,,,0,62,0,62,0,1,,,,,,,,,,,,,,,,,
295966,2022-10-04_15h03.04.053,vts_reward_expectancy,2022.2.4,MacIntel,60.0024001,Chrome,1440,900,,,,,0,540,,,,,,,,,,,,,,,,,146,H,circle,1,0,,,,,,,,,,,,,,,,switch,number,numSwt,d,0.7689,noRew,,,,,,0,63,0,63,0,1,,,,,,,,,,,,,,,,,
295966,2022-10-04_15h03.04.053,vts_reward_expectancy,2022.2.4,MacIntel,60.0024001,Chrome,1440,900,,,,,,,,,,,,,,,,,,,,,,,,,,,,,,,,,,,,,,,,,,,,,,,,,,,,,,,,,,,,,,,,,,,,,,,,,,,,
295966,2022-10-04_15h03.04.053,vts_reward_expectancy,2022.2.4,MacIntel,60.0024001,Chrome,1440,900,,,,,0,540,,,,,,,,,,,,,,,,,174,B,star,1,0,,,,,,,,,,,,,,,,repeat,number,numRpt,f,1.2403,Hi,,,,,,0,,,,,,space,4.6219,low,0,0,0,0,1,,,,,,,,,
295966,2022-10-04_15h03.04.053,vts_reward_expectancy,2022.2.4,MacIntel,60.0024001,Chrome,1440,900,,,,,1,541,,,,,,,,,,,,,,,,,160,Y,triangle,1,0,,,,,,,,,,,,,,,,switch,letter,lettSwt,k,0.7198,Lo,,,,,,0,,,,,,,,low,1,0,1,0,1,,,,,,,,,
295966,2022-10-04_15h03.04.053,vts_reward_expectancy,2022.2.4,MacIntel,60.0024001,Chrome,1440,900,,,,,1,542,,,,,,,,,,,,,,,,,167,H,star,1,0,,,,,,,,,,,,,,,,repeat,letter,lettRpt,j,0.5588,Hi,,,,,,0,,,,,,,,low,2,0,2,0,1,,,,,,,,,
295966,2022-10-04_15h03.04.053,vts_reward_expectancy,2022.2.4,MacIntel,60.0024001,Chrome,1440,900,,,,,1,543,,,,,,,,,,,,,,,,,139,D,triangle,1,0,,,,,,,,,,,,,,,,switch,number,numSwt,d,0.4292,Lo,,,,,,0,,,,,,,,low,3,0,3,0,1,,,,,,,,,
295966,2022-10-04_15h03.04.053,vts_reward_expectancy,2022.2.4,MacIntel,60.0024001,Chrome,1440,900,,,,,1,544,,,,,,,,,,,,,,,,,125,W,star,1,0,,,,,,,,,,,,,,,,repeat,number,numRpt,d,0.531,Hi,,,,,,0,,,,,,,,low,4,0,4,0,1,,,,,,,,,
295966,2022-10-04_15h03.04.053,vts_reward_expectancy,2022.2.4,MacIntel,60.0024001,Chrome,1440,900,,,,,1,545,,,,,,,,,,,,,,,,,146,F,triangle,1,0,,,,,,,,,,,,,,,,switch,letter,lettSwt,j,0.9643,Lo,,,,,,0,,,,,,,,low,5,0,5,0,1,,,,,,,,,
295966,2022-10-04_15h03.04.053,vts_reward_expectancy,2022.2.4,MacIntel,60.0024001,Chrome,1440,900,,,,,10,555,,,,,,,,,,,,,,,,,181,U,triangle,1,0,,,,,,,,,,,,,,,,repeat,letter,lettRpt,k,0.5632,Lo,,,,,,0,,,,,,,,low,6,0,6,0,1,,,,,,,,,
295966,2022-10-04_15h03.04.053,vts_reward_expectancy,2022.2.4,MacIntel,60.0024001,Chrome,1440,900,,,,,0,555,,,,,,,,,,,,,,,,,132,S,star,1,0,,,,,,,,,,,,,,,,switch,number,numSwt,d,1.6952,Hi,,,,,,0,,,,,,,,low,7,0,7,0,1,,,,,,,,,
295966,2022-10-04_15h03.04.053,vts_reward_expectancy,2022.2.4,MacIntel,60.0024001,Chrome,1440,900,,,,,0,555,,,,,,,,,,,,,,,,,174,B,star,0,0,,,,,,,,,,,,,,,,repeat,number,NA,d,0.9924,Hi,,,,,,0,,,,,,,,low,8,0,8,0,1,,,,,,,,,
295966,2022-10-04_15h03.04.053,vts_reward_expectancy,2022.2.4,MacIntel,60.0024001,Chrome,1440,900,,,,,1,556,,,,,,,,,,,,,,,,,160,Y,triangle,1,1,,,,,,,,,,,,,,,,repeat,number,numRpt,f,0.797,Lo,,,,,,0,,,,,,,,low,9,0,9,0,1,,,,,,,,,
295966,2022-10-04_15h03.04.053,vts_reward_expectancy,2022.2.4,MacIntel,60.0024001,Chrome,1440,900,,,,,0,556,,,,,,,,,,,,,,,,,167,H,star,1,0,,,,,,,,,,,,,,,,switch,letter,lettSwt,j,0.8361,Hi,,,,,,0,,,,,,,,low,10,0,10,0,1,,,,,,,,,
295966,2022-10-04_15h03.04.053,vts_reward_expectancy,2022.2.4,MacIntel,60.0024001,Chrome,1440,900,,,,,10,566,,,,,,,,,,,,,,,,,139,D,triangle,1,0,,,,,,,,,,,,,,,,repeat,letter,lettRpt,j,0.5964,Lo,,,,,,0,,,,,,,,low,11,0,11,0,1,,,,,,,,,
295966,2022-10-04_15h03.04.053,vts_reward_expectancy,2022.2.4,MacIntel,60.0024001,Chrome,1440,900,,,,,0,566,,,,,,,,,,,,,,,,,125,W,star,1,0,,,,,,,,,,,,,,,,switch,number,numSwt,d,1.1812,Hi,,,,,,0,,,,,,,,low,12,0,12,0,1,,,,,,,,,
295966,2022-10-04_15h03.04.053,vts_reward_expectancy,2022.2.4,MacIntel,60.0024001,Chrome,1440,900,,,,,10,576,,,,,,,,,,,,,,,,,146,F,triangle,1,0,,,,,,,,,,,,,,,,repeat,number,numRpt,d,0.8318,Lo,,,,,,0,,,,,,,,low,13,0,13,0,1,,,,,,,,,
295966,2022-10-04_15h03.04.053,vts_reward_expectancy,2022.2.4,MacIntel,60.0024001,Chrome,1440,900,,,,,1,577,,,,,,,,,,,,,,,,,181,U,star,1,0,,,,,,,,,,,,,,,,switch,letter,lettSwt,k,0.5306,Hi,,,,,,0,,,,,,,,low,14,0,14,0,1,,,,,,,,,
295966,2022-10-04_15h03.04.053,vts_reward_expectancy,2022.2.4,MacIntel,60.0024001,Chrome,1440,900,,,,,10,587,,,,,,,,,,,,,,,,,132,S,triangle,1,0,,,,,,,,,,,,,,,,repeat,letter,lettRpt,k,1.127,Lo,,,,,,0,,,,,,,,low,15,0,15,0,1,,,,,,,,,
295966,2022-10-04_15h03.04.053,vts_reward_expectancy,2022.2.4,MacIntel,60.0024001,Chrome,1440,900,,,,,1,588,,,,,,,,,,,,,,,,,132,S,triangle,1,0,,,,,,,,,,,,,,,,repeat,letter,lettRpt,k,0.4865,Lo,,,,,,0,,,,,,,,low,16,0,16,0,1,,,,,,,,,
295966,2022-10-04_15h03.04.053,vts_reward_expectancy,2022.2.4,MacIntel,60.0024001,Chrome,1440,900,,,,,1,589,,,,,,,,,,,,,,,,,167,H,star,1,0,,,,,,,,,,,,,,,,switch,number,numSwt,f,0.6781,Hi,,,,,,0,,,,,,,,low,17,0,17,0,1,,,,,,,,,
295966,2022-10-04_15h03.04.053,vts_reward_expectancy,2022.2.4,MacIntel,60.0024001,Chrome,1440,900,,,,,10,599,,,,,,,,,,,,,,,,,174,B,star,1,0,,,,,,,,,,,,,,,,repeat,number,numRpt,f,0.6983,Hi,,,,,,0,,,,,,,,low,18,0,18,0,1,,,,,,,,,
295966,2022-10-04_15h03.04.053,vts_reward_expectancy,2022.2.4,MacIntel,60.0024001,Chrome,1440,900,,,,,1,600,,,,,,,,,,,,,,,,,139,U,triangle,1,0,,,,,,,,,,,,,,,,switch,letter,lettSwt,k,0.5295,Lo,,,,,,0,,,,,,,,low,19,0,19,0,1,,,,,,,,,
295966,2022-10-04_15h03.04.053,vts_reward_expectancy,2022.2.4,MacIntel,60.0024001,Chrome,1440,900,,,,,1,601,,,,,,,,,,,,,,,,,125,F,triangle,1,0,,,,,,,,,,,,,,,,switch,number,numSwt,d,0.6128,Lo,,,,,,0,,,,,,,,low,20,0,20,0,1,,,,,,,,,
295966,2022-10-04_15h03.04.053,vts_reward_expectancy,2022.2.4,MacIntel,60.0024001,Chrome,1440,900,,,,,1,602,,,,,,,,,,,,,,,,,160,Y,star,1,0,,,,,,,,,,,,,,,,switch,letter,lettSwt,k,0.5819,Hi,,,,,,0,,,,,,,,low,21,0,21,0,1,,,,,,,,,
295966,2022-10-04_15h03.04.053,vts_reward_expectancy,2022.2.4,MacIntel,60.0024001,Chrome,1440,900,,,,,10,612,,,,,,,,,,,,,,,,,181,D,star,1,0,,,,,,,,,,,,,,,,switch,number,numSwt,f,0.763,Hi,,,,,,0,,,,,,,,low,22,0,22,0,1,,,,,,,,,
295966,2022-10-04_15h03.04.053,vts_reward_expectancy,2022.2.4,MacIntel,60.0024001,Chrome,1440,900,,,,,10,622,,,,,,,,,,,,,,,,,146,W,triangle,1,0,,,,,,,,,,,,,,,,repeat,number,numRpt,d,0.6306,Lo,,,,,,0,,,,,,,,low,23,0,23,0,1,,,,,,,,,
295966,2022-10-04_15h03.04.053,vts_reward_expectancy,2022.2.4,MacIntel,60.0024001,Chrome,1440,900,,,,,10,632,,,,,,,,,,,,,,,,,174,F,star,1,0,,,,,,,,,,,,,,,,switch,letter,lettSwt,j,0.7489,Hi,,,,,,0,,,,,,,,low,24,0,24,0,1,,,,,,,,,
295966,2022-10-04_15h03.04.053,vts_reward_expectancy,2022.2.4,MacIntel,60.0024001,Chrome,1440,900,,,,,1,633,,,,,,,,,,,,,,,,,160,B,triangle,1,0,,,,,,,,,,,,,,,,repeat,letter,lettRpt,j,0.6872,Lo,,,,,,0,,,,,,,,low,25,0,25,0,1,,,,,,,,,
295966,2022-10-04_15h03.04.053,vts_reward_expectancy,2022.2.4,MacIntel,60.0024001,Chrome,1440,900,,,,,0,633,,,,,,,,,,,,,,,,,167,H,star,1,0,,,,,,,,,,,,,,,,switch,number,numSwt,f,1.0133,Hi,,,,,,0,,,,,,,,low,26,0,26,0,1,,,,,,,,,
295966,2022-10-04_15h03.04.053,vts_reward_expectancy,2022.2.4,MacIntel,60.0024001,Chrome,1440,900,,,,,1,634,,,,,,,,,,,,,,,,,146,D,triangle,1,0,,,,,,,,,,,,,,,,repeat,number,numRpt,d,0.5475,Lo,,,,,,0,,,,,,,,low,27,0,27,0,1,,,,,,,,,
295966,2022-10-04_15h03.04.053,vts_reward_expectancy,2022.2.4,MacIntel,60.0024001,Chrome,1440,900,,,,,1,635,,,,,,,,,,,,,,,,,139,S,star,1,0,,,,,,,,,,,,,,,,switch,letter,lettSwt,k,0.6801,Hi,,,,,,0,,,,,,,,low,28,0,28,0,1,,,,,,,,,
295966,2022-10-04_15h03.04.053,vts_reward_expectancy,2022.2.4,MacIntel,60.0024001,Chrome,1440,900,,,,,1,636,,,,,,,,,,,,,,,,,125,U,triangle,1,0,,,,,,,,,,,,,,,,repeat,letter,lettRpt,k,0.6296,Lo,,,,,,0,,,,,,,,low,29,0,29,0,1,,,,,,,,,
295966,2022-10-04_15h03.04.053,vts_reward_expectancy,2022.2.4,MacIntel,60.0024001,Chrome,1440,900,,,,,10,646,,,,,,,,,,,,,,,,,132,Y,triangle,1,0,,,,,,,,,,,,,,,,repeat,letter,lettRpt,k,0.6313,Lo,,,,,,0,,,,,,,,low,30,0,30,0,1,,,,,,,,,
295966,2022-10-04_15h03.04.053,vts_reward_expectancy,2022.2.4,MacIntel,60.0024001,Chrome,1440,900,,,,,1,647,,,,,,,,,,,,,,,,,181,W,star,1,0,,,,,,,,,,,,,,,,switch,number,numSwt,f,0.7052,Hi,,,,,,0,,,,,,,,low,31,0,31,0,1,,,,,,,,,
295966,2022-10-04_15h03.04.053,vts_reward_expectancy,2022.2.4,MacIntel,60.0024001,Chrome,1440,900,,,,,0,647,,,,,,,,,,,,,,,,,160,D,star,1,0,,,,,,,,,,,,,,,,repeat,number,numRpt,f,0.9146,Hi,,,,,,1,,,,,,space,2.3262,low,0,0,0,0,1,,,,,,,,,
295966,2022-10-04_15h03.04.053,vts_reward_expectancy,2022.2.4,MacIntel,60.0024001,Chrome,1440,900,,,,,1,648,,,,,,,,,,,,,,,,,181,H,triangle,1,0,,,,,,,,,,,,,,,,repeat,number,numRpt,f,0.6465,Lo,,,,,,1,,,,,,,,low,1,0,1,0,1,,,,,,,,,
295966,2022-10-04_15h03.04.053,vts_reward_expectancy,2022.2.4,MacIntel,60.0024001,Chrome,1440,900,,,,,1,649,,,,,,,,,,,,,,,,,125,Y,star,1,0,,,,,,,,,,,,,,,,repeat,number,numRpt,d,0.4206,Hi,,,,,,1,,,,,,,,low,2,0,2,0,1,,,,,,,,,
295966,2022-10-04_15h03.04.053,vts_reward_expectancy,2022.2.4,MacIntel,60.0024001,Chrome,1440,900,,,,,1,650,,,,,,,,,,,,,,,,,167,B,triangle,1,0,,,,,,,,,,,,,,,,repeat,number,numRpt,f,0.7639,Lo,,,,,,1,,,,,,,,low,3,0,3,0,1,,,,,,,,,
295966,2022-10-04_15h03.04.053,vts_reward_expectancy,2022.2.4,MacIntel,60.0024001,Chrome,1440,900,,,,,1,651,,,,,,,,,,,,,,,,,132,W,triangle,1,0,,,,,,,,,,,,,,,,repeat,number,numRpt,d,0.6023,Lo,,,,,,1,,,,,,,,low,4,0,4,0,1,,,,,,,,,
295966,2022-10-04_15h03.04.053,vts_reward_expectancy,2022.2.4,MacIntel,60.0024001,Chrome,1440,900,,,,,0,651,,,,,,,,,,,,,,,,,139,U,star,1,0,,,,,,,,,,,,,,,,repeat,number,numRpt,d,0.7844,Hi,,,,,,1,,,,,,,,low,5,0,5,0,1,,,,,,,,,
295966,2022-10-04_15h03.04.053,vts_reward_expectancy,2022.2.4,MacIntel,60.0024001,Chrome,1440,900,,,,,0,651,,,,,,,,,,,,,,,,,146,F,star,1,0,,,,,,,,,,,,,,,,repeat,number,numRpt,d,0.8579,Hi,,,,,,1,,,,,,,,low,6,0,6,0,1,,,,,,,,,
295966,2022-10-04_15h03.04.053,vts_reward_expectancy,2022.2.4,MacIntel,60.0024001,Chrome,1440,900,,,,,1,652,,,,,,,,,,,,,,,,,174,S,triangle,1,0,,,,,,,,,,,,,,,,switch,letter,lettSwt,k,0.614,Lo,,,,,,1,,,,,,,,low,7,0,7,0,1,,,,,,,,,
295966,2022-10-04_15h03.04.053,vts_reward_expectancy,2022.2.4,MacIntel,60.0024001,Chrome,1440,900,,,,,10,662,,,,,,,,,,,,,,,,,160,D,star,1,0,,,,,,,,,,,,,,,,repeat,letter,lettRpt,j,0.5303,Hi,,,,,,1,,,,,,,,low,8,0,8,0,1,,,,,,,,,
295966,2022-10-04_15h03.04.053,vts_reward_expectancy,2022.2.4,MacIntel,60.0024001,Chrome,1440,900,,,,,0,662,,,,,,,,,,,,,,,,,181,H,triangle,0,0,,,,,,,,,,,,,,,,repeat,letter,NA,k,0.5138,Hi,,,,,,1,,,,,,,,low,9,0,9,0,1,,,,,,,,,
295966,2022-10-04_15h03.04.053,vts_reward_expectancy,2022.2.4,MacIntel,60.0024001,Chrome,1440,900,,,,,1,663,,,,,,,,,,,,,,,,,125,Y,triangle,1,1,,,,,,,,,,,,,,,,repeat,letter,lettRpt,k,0.8127,Lo,,,,,,1,,,,,,,,low,10,0,10,0,1,,,,,,,,,
295966,2022-10-04_15h03.04.053,vts_reward_expectancy,2022.2.4,MacIntel,60.0024001,Chrome,1440,900,,,,,0,663,,,,,,,,,,,,,,,,,167,B,star,1,0,,,,,,,,,,,,,,,,repeat,letter,lettRpt,j,0.6634,Hi,,,,,,1,,,,,,,,low,11,0,11,0,1,,,,,,,,,
295966,2022-10-04_15h03.04.053,vts_reward_expectancy,2022.2.4,MacIntel,60.0024001,Chrome,1440,900,,,,,0,663,,,,,,,,,,,,,,,,,132,W,star,1,0,,,,,,,,,,,,,,,,switch,number,numSwt,d,0.824,Hi,,,,,,1,,,,,,,,low,12,0,12,0,1,,,,,,,,,
295966,2022-10-04_15h03.04.053,vts_reward_expectancy,2022.2.4,MacIntel,60.0024001,Chrome,1440,900,,,,,10,673,,,,,,,,,,,,,,,,,139,U,triangle,1,0,,,,,,,,,,,,,,,,repeat,number,numRpt,d,0.5418,Lo,,,,,,1,,,,,,,,low,13,0,13,0,1,,,,,,,,,
295966,2022-10-04_15h03.04.053,vts_reward_expectancy,2022.2.4,MacIntel,60.0024001,Chrome,1440,900,,,,,10,683,,,,,,,,,,,,,,,,,146,F,star,1,0,,,,,,,,,,,,,,,,switch,letter,lettSwt,j,0.5917,Hi,,,,,,1,,,,,,,,low,14,0,14,0,1,,,,,,,,,
295966,2022-10-04_15h03.04.053,vts_reward_expectancy,2022.2.4,MacIntel,60.0024001,Chrome,1440,900,,,,,1,684,,,,,,,,,,,,,,,,,174,S,triangle,1,0,,,,,,,,,,,,,,,,repeat,letter,lettRpt,k,0.4522,Lo,,,,,,1,,,,,,,,low,15,0,15,0,1,,,,,,,,,
295966,2022-10-04_15h03.04.053,vts_reward_expectancy,2022.2.4,MacIntel,60.0024001,Chrome,1440,900,,,,,1,685,,,,,,,,,,,,,,,,,160,F,triangle,1,0,,,,,,,,,,,,,,,,repeat,letter,lettRpt,j,0.6961,Lo,,,,,,1,,,,,,,,low,16,0,16,0,1,,,,,,,,,
295966,2022-10-04_15h03.04.053,vts_reward_expectancy,2022.2.4,MacIntel,60.0024001,Chrome,1440,900,,,,,0,685,,,,,,,,,,,,,,,,,174,D,star,1,0,,,,,,,,,,,,,,,,repeat,letter,lettRpt,j,0.6982,Hi,,,,,,1,,,,,,,,low,17,0,17,0,1,,,,,,,,,
295966,2022-10-04_15h03.04.053,vts_reward_expectancy,2022.2.4,MacIntel,60.0024001,Chrome,1440,900,,,,,1,686,,,,,,,,,,,,,,,,,139,S,triangle,1,0,,,,,,,,,,,,,,,,switch,number,numSwt,d,0.4336,Lo,,,,,,1,,,,,,,,low,18,0,18,0,1,,,,,,,,,
295966,2022-10-04_15h03.04.053,vts_reward_expectancy,2022.2.4,MacIntel,60.0024001,Chrome,1440,900,,,,,10,696,,,,,,,,,,,,,,,,,181,U,star,1,0,,,,,,,,,,,,,,,,repeat,number,numRpt,f,0.4666,Hi,,,,,,1,,,,,,,,low,19,0,19,0,1,,,,,,,,,
295966,2022-10-04_15h03.04.053,vts_reward_expectancy,2022.2.4,MacIntel,60.0024001,Chrome,1440,900,,,,,10,706,,,,,,,,,,,,,,,,,132,W,star,1,0,,,,,,,,,,,,,,,,repeat,number,numRpt,d,0.5818,Hi,,,,,,1,,,,,,,,low,20,0,20,0,1,,,,,,,,,
295966,2022-10-04_15h03.04.053,vts_reward_expectancy,2022.2.4,MacIntel,60.0024001,Chrome,1440,900,,,,,10,716,,,,,,,,,,,,,,,,,146,B,triangle,1,0,,,,,,,,,,,,,,,,switch,letter,lettSwt,j,0.6149,Lo,,,,,,1,,,,,,,,low,21,0,21,0,1,,,,,,,,,
295966,2022-10-04_15h03.04.053,vts_reward_expectancy,2022.2.4,MacIntel,60.0024001,Chrome,1440,900,,,,,0,716,,,,,,,,,,,,,,,,,167,H,star,1,0,,,,,,,,,,,,,,,,repeat,letter,lettRpt,j,0.6128,Hi,,,,,,1,,,,,,,,low,22,0,22,0,1,,,,,,,,,
295966,2022-10-04_15h03.04.053,vts_reward_expectancy,2022.2.4,MacIntel,60.0024001,Chrome,1440,900,,,,,10,726,,,,,,,,,,,,,,,,,125,Y,triangle,1,0,,,,,,,,,,,,,,,,repeat,letter,lettRpt,k,0.665,Lo,,,,,,1,,,,,,,,low,23,0,23,0,1,,,,,,,,,
295966,2022-10-04_15h03.04.053,vts_reward_expectancy,2022.2.4,MacIntel,60.0024001,Chrome,1440,900,,,,,10,736,,,,,,,,,,,,,,,,,167,B,triangle,1,0,,,,,,,,,,,,,,,,switch,number,numSwt,f,0.6285,Lo,,,,,,1,,,,,,,,low,24,0,24,0,1,,,,,,,,,
295966,2022-10-04_15h03.04.053,vts_reward_expectancy,2022.2.4,MacIntel,60.0024001,Chrome,1440,900,,,,,0,736,,,,,,,,,,,,,,,,,181,W,star,1,0,,,,,,,,,,,,,,,,switch,letter,lettSwt,k,0.945,Hi,,,,,,1,,,,,,,,low,25,0,25,0,1,,,,,,,,,
295966,2022-10-04_15h03.04.053,vts_reward_expectancy,2022.2.4,MacIntel,60.0024001,Chrome,1440,900,,,,,0,736,,,,,,,,,,,,,,,,,174,F,star,1,0,,,,,,,,,,,,,,,,switch,number,numSwt,f,0.7759,Hi,,,,,,1,,,,,,,,low,26,0,26,0,1,,,,,,,,,
295966,2022-10-04_15h03.04.053,vts_reward_expectancy,2022.2.4,MacIntel,60.0024001,Chrome,1440,900,,,,,10,746,,,,,,,,,,,,,,,,,160,H,triangle,1,0,,,,,,,,,,,,,,,,repeat,number,numRpt,f,0.9793,Lo,,,,,,1,,,,,,,,low,27,0,27,0,1,,,,,,,,,
295966,2022-10-04_15h03.04.053,vts_reward_expectancy,2022.2.4,MacIntel,60.0024001,Chrome,1440,900,,,,,1,747,,,,,,,,,,,,,,,,,139,S,star,1,0,,,,,,,,,,,,,,,,switch,letter,lettSwt,k,0.5855,Hi,,,,,,1,,,,,,,,low,28,0,28,0,1,,,,,,,,,
295966,2022-10-04_15h03.04.053,vts_reward_expectancy,2022.2.4,MacIntel,60.0024001,Chrome,1440,900,,,,,1,748,,,,,,,,,,,,,,,,,146,Y,triangle,1,0,,,,,,,,,,,,,,,,repeat,letter,lettRpt,k,0.7111,Lo,,,,,,1,,,,,,,,low,29,0,29,0,1,,,,,,,,,
295966,2022-10-04_15h03.04.053,vts_reward_expectancy,2022.2.4,MacIntel,60.0024001,Chrome,1440,900,,,,,10,758,,,,,,,,,,,,,,,,,132,D,triangle,1,0,,,,,,,,,,,,,,,,repeat,letter,lettRpt,j,0.7037,Lo,,,,,,1,,,,,,,,low,30,0,30,0,1,,,,,,,,,
295966,2022-10-04_15h03.04.053,vts_reward_expectancy,2022.2.4,MacIntel,60.0024001,Chrome,1440,900,,,,,0,758,,,,,,,,,,,,,,,,,125,U,star,1,0,,,,,,,,,,,,,,,,switch,number,numSwt,d,0.7659,Hi,,,,,,1,,,,,,,,low,31,0,31,0,1,,,,,,,,,
295966,2022-10-04_15h03.04.053,vts_reward_expectancy,2022.2.4,MacIntel,60.0024001,Chrome,1440,900,,,,,0,758,,,,,,,,,,,,,,,,,125,H,hexagon,1,0,,,,,,,,,,,,,,,,repeat,number,numRpt,d,0.6939,Hi,,,,,,2,,,,,,space,1.3585,high,0,0,0,0,1,,,,,,,,,
295966,2022-10-04_15h03.04.053,vts_reward_expectancy,2022.2.4,MacIntel,60.0024001,Chrome,1440,900,,,,,10,768,,,,,,,,,,,,,,,,,132,U,circle,1,0,,,,,,,,,,,,,,,,repeat,number,numRpt,d,0.4937,Lo,,,,,,2,,,,,,,,high,1,0,1,0,1,,,,,,,,,
295966,2022-10-04_15h03.04.053,vts_reward_expectancy,2022.2.4,MacIntel,60.0024001,Chrome,1440,900,,,,,10,778,,,,,,,,,,,,,,,,,181,B,hexagon,1,0,,,,,,,,,,,,,,,,switch,letter,lettSwt,j,0.5462,Hi,,,,,,2,,,,,,,,high,2,0,2,0,1,,,,,,,,,
295966,2022-10-04_15h03.04.053,vts_reward_expectancy,2022.2.4,MacIntel,60.0024001,Chrome,1440,900,,,,,1,779,,,,,,,,,,,,,,,,,167,D,circle,1,0,,,,,,,,,,,,,,,,repeat,letter,lettRpt,j,0.5639,Lo,,,,,,2,,,,,,,,high,3,0,3,0,1,,,,,,,,,
295966,2022-10-04_15h03.04.053,vts_reward_expectancy,2022.2.4,MacIntel,60.0024001,Chrome,1440,900,,,,,1,780,,,,,,,,,,,,,,,,,139,Y,circle,1,0,,,,,,,,,,,,,,,,repeat,letter,lettRpt,k,0.5464,Lo,,,,,,2,,,,,,,,high,4,0,4,0,1,,,,,,,,,
295966,2022-10-04_15h03.04.053,vts_reward_expectancy,2022.2.4,MacIntel,60.0024001,Chrome,1440,900,,,,,10,790,,,,,,,,,,,,,,,,,146,S,hexagon,1,0,,,,,,,,,,,,,,,,switch,number,numSwt,d,0.6096,Hi,,,,,,2,,,,,,,,high,5,0,5,0,1,,,,,,,,,
295966,2022-10-04_15h03.04.053,vts_reward_expectancy,2022.2.4,MacIntel,60.0024001,Chrome,1440,900,,,,,1,791,,,,,,,,,,,,,,,,,160,F,circle,1,0,,,,,,,,,,,,,,,,switch,letter,lettSwt,j,0.8984,Lo,,,,,,2,,,,,,,,high,6,0,6,0,1,,,,,,,,,
295966,2022-10-04_15h03.04.053,vts_reward_expectancy,2022.2.4,MacIntel,60.0024001,Chrome,1440,900,,,,,10,801,,,,,,,,,,,,,,,,,174,W,hexagon,1,0,,,,,,,,,,,,,,,,repeat,letter,lettRpt,k,0.5831,Hi,,,,,,2,,,,,,,,high,7,0,7,0,1,,,,,,,,,
295966,2022-10-04_15h03.04.053,vts_reward_expectancy,2022.2.4,MacIntel,60.0024001,Chrome,1440,900,,,,,1,802,,,,,,,,,,,,,,,,,125,H,circle,1,0,,,,,,,,,,,,,,,,switch,number,numSwt,d,0.4808,Lo,,,,,,2,,,,,,,,high,8,0,8,0,1,,,,,,,,,
295966,2022-10-04_15h03.04.053,vts_reward_expectancy,2022.2.4,MacIntel,60.0024001,Chrome,1440,900,,,,,0,802,,,,,,,,,,,,,,,,,132,U,hexagon,1,0,,,,,,,,,,,,,,,,repeat,number,numRpt,d,0.9133,Hi,,,,,,2,,,,,,,,high,9,0,9,0,1,,,,,,,,,
295966,2022-10-04_15h03.04.053,vts_reward_expectancy,2022.2.4,MacIntel,60.0024001,Chrome,1440,900,,,,,0,802,,,,,,,,,,,,,,,,,181,B,hexagon,1,0,,,,,,,,,,,,,,,,switch,letter,lettSwt,j,0.6964,Hi,,,,,,2,,,,,,,,high,10,0,10,0,1,,,,,,,,,
295966,2022-10-04_15h03.04.053,vts_reward_expectancy,2022.2.4,MacIntel,60.0024001,Chrome,1440,900,,,,,10,812,,,,,,,,,,,,,,,,,167,D,circle,1,0,,,,,,,,,,,,,,,,repeat,letter,lettRpt,j,0.4977,Lo,,,,,,2,,,,,,,,high,11,0,11,0,1,,,,,,,,,
295966,2022-10-04_15h03.04.053,vts_reward_expectancy,2022.2.4,MacIntel,60.0024001,Chrome,1440,900,,,,,10,822,,,,,,,,,,,,,,,,,139,Y,hexagon,1,0,,,,,,,,,,,,,,,,switch,number,numSwt,d,0.4472,Hi,,,,,,2,,,,,,,,high,12,0,12,0,1,,,,,,,,,
295966,2022-10-04_15h03.04.053,vts_reward_expectancy,2022.2.4,MacIntel,60.0024001,Chrome,1440,900,,,,,1,823,,,,,,,,,,,,,,,,,146,S,circle,1,0,,,,,,,,,,,,,,,,repeat,number,numRpt,d,0.5764,Lo,,,,,,2,,,,,,,,high,13,0,13,0,1,,,,,,,,,
295966,2022-10-04_15h03.04.053,vts_reward_expectancy,2022.2.4,MacIntel,60.0024001,Chrome,1440,900,,,,,10,833,,,,,,,,,,,,,,,,,160,F,hexagon,1,0,,,,,,,,,,,,,,,,switch,letter,lettSwt,j,0.5963,Hi,,,,,,2,,,,,,,,high,14,0,14,0,1,,,,,,,,,
295966,2022-10-04_15h03.04.053,vts_reward_expectancy,2022.2.4,MacIntel,60.0024001,Chrome,1440,900,,,,,1,834,,,,,,,,,,,,,,,,,174,W,circle,1,0,,,,,,,,,,,,,,,,repeat,letter,lettRpt,k,0.5154,Lo,,,,,,2,,,,,,,,high,15,0,15,0,1,,,,,,,,,
295966,2022-10-04_15h03.04.053,vts_reward_expectancy,2022.2.4,MacIntel,60.0024001,Chrome,1440,900,,,,,0,834,,,,,,,,,,,,,,,,,174,F,hexagon,1,0,,,,,,,,,,,,,,,,repeat,letter,lettRpt,j,0.8319,Hi,,,,,,2,,,,,,,,high,16,0,16,0,1,,,,,,,,,
295966,2022-10-04_15h03.04.053,vts_reward_expectancy,2022.2.4,MacIntel,60.0024001,Chrome,1440,900,,,,,1,835,,,,,,,,,,,,,,,,,125,H,circle,1,0,,,,,,,,,,,,,,,,switch,number,numSwt,d,0.592,Lo,,,,,,2,,,,,,,,high,17,0,17,0,1,,,,,,,,,
295966,2022-10-04_15h03.04.053,vts_reward_expectancy,2022.2.4,MacIntel,60.0024001,Chrome,1440,900,,,,,1,836,,,,,,,,,,,,,,,,,146,D,circle,1,0,,,,,,,,,,,,,,,,repeat,number,numRpt,d,0.5382,Lo,,,,,,2,,,,,,,,high,18,0,18,0,1,,,,,,,,,
295966,2022-10-04_15h03.04.053,vts_reward_expectancy,2022.2.4,MacIntel,60.0024001,Chrome,1440,900,,,,,0,836,,,,,,,,,,,,,,,,,167,U,hexagon,1,0,,,,,,,,,,,,,,,,switch,letter,lettSwt,k,0.6022,Hi,,,,,,2,,,,,,,,high,19,0,19,0,1,,,,,,,,,
295966,2022-10-04_15h03.04.053,vts_reward_expectancy,2022.2.4,MacIntel,60.0024001,Chrome,1440,900,,,,,1,837,,,,,,,,,,,,,,,,,132,Y,circle,1,0,,,,,,,,,,,,,,,,repeat,letter,lettRpt,k,0.5304,Lo,,,,,,2,,,,,,,,high,20,0,20,0,1,,,,,,,,,
295966,2022-10-04_15h03.04.053,vts_reward_expectancy,2022.2.4,MacIntel,60.0024001,Chrome,1440,900,,,,,0,837,,,,,,,,,,,,,,,,,181,S,hexagon,1,0,,,,,,,,,,,,,,,,repeat,letter,lettRpt,k,0.7452,Hi,,,,,,2,,,,,,,,high,21,0,21,0,1,,,,,,,,,
295966,2022-10-04_15h03.04.053,vts_reward_expectancy,2022.2.4,MacIntel,60.0024001,Chrome,1440,900,,,,,0,837,,,,,,,,,,,,,,,,,160,W,hexagon,0,0,,,,,,,,,,,,,,,,switch,number,NA,d,0.9135,Hi,,,,,,2,,,,,,,,high,22,0,22,0,1,,,,,,,,,
295966,2022-10-04_15h03.04.053,vts_reward_expectancy,2022.2.4,MacIntel,60.0024001,Chrome,1440,900,,,,,1,838,,,,,,,,,,,,,,,,,139,B,circle,1,1,,,,,,,,,,,,,,,,repeat,number,numRpt,d,0.5868,Lo,,,,,,2,,,,,,,,high,23,0,23,0,1,,,,,,,,,
295966,2022-10-04_15h03.04.053,vts_reward_expectancy,2022.2.4,MacIntel,60.0024001,Chrome,1440,900,,,,,1,839,,,,,,,,,,,,,,,,,146,Y,circle,1,0,,,,,,,,,,,,,,,,switch,letter,lettSwt,k,0.5824,Lo,,,,,,2,,,,,,,,high,24,0,24,0,1,,,,,,,,,
295966,2022-10-04_15h03.04.053,vts_reward_expectancy,2022.2.4,MacIntel,60.0024001,Chrome,1440,900,,,,,0,839,,,,,,,,,,,,,,,,,139,F,hexagon,1,0,,,,,,,,,,,,,,,,repeat,letter,lettRpt,j,0.8324,Hi,,,,,,2,,,,,,,,high,25,0,25,0,1,,,,,,,,,
295966,2022-10-04_15h03.04.053,vts_reward_expectancy,2022.2.4,MacIntel,60.0024001,Chrome,1440,900,,,,,10,849,,,,,,,,,,,,,,,,,132,W,hexagon,1,0,,,,,,,,,,,,,,,,switch,number,numSwt,d,0.4807,Hi,,,,,,2,,,,,,,,high,26,0,26,0,1,,,,,,,,,
295966,2022-10-04_15h03.04.053,vts_reward_expectancy,2022.2.4,MacIntel,60.0024001,Chrome,1440,900,,,,,1,850,,,,,,,,,,,,,,,,,181,H,circle,1,0,,,,,,,,,,,,,,,,repeat,number,numRpt,f,0.4721,Lo,,,,,,2,,,,,,,,high,27,0,27,0,1,,,,,,,,,
295966,2022-10-04_15h03.04.053,vts_reward_expectancy,2022.2.4,MacIntel,60.0024001,Chrome,1440,900,,,,,10,860,,,,,,,,,,,,,,,,,167,U,circle,1,0,,,,,,,,,,,,,,,,switch,letter,lettSwt,k,0.581,Lo,,,,,,2,,,,,,,,high,28,0,28,0,1,,,,,,,,,
295966,2022-10-04_15h03.04.053,vts_reward_expectancy,2022.2.4,MacIntel,60.0024001,Chrome,1440,900,,,,,0,860,,,,,,,,,,,,,,,,,125,B,hexagon,1,0,,,,,,,,,,,,,,,,repeat,letter,lettRpt,j,0.9373,Hi,,,,,,2,,,,,,,,high,29,0,29,0,1,,,,,,,,,
295966,2022-10-04_15h03.04.053,vts_reward_expectancy,2022.2.4,MacIntel,60.0024001,Chrome,1440,900,,,,,0,860,,,,,,,,,,,,,,,,,160,D,hexagon,1,0,,,,,,,,,,,,,,,,switch,number,numSwt,f,0.9641,Hi,,,,,,2,,,,,,,,high,30,0,30,0,1,,,,,,,,,
295966,2022-10-04_15h03.04.053,vts_reward_expectancy,2022.2.4,MacIntel,60.0024001,Chrome,1440,900,,,,,1,861,,,,,,,,,,,,,,,,,174,S,circle,1,0,,,,,,,,,,,,,,,,repeat,number,numRpt,f,0.5776,Lo,,,,,,2,,,,,,,,high,31,0,31,0,1,,,,,,,,,
295966,2022-10-04_15h03.04.053,vts_reward_expectancy,2022.2.4,MacIntel,60.0024001,Chrome,1440,900,,,,,0,861,,,,,,,,,,,,,,,,,181,S,star,1,0,,,,,,,,,,,,,,,,repeat,number,numRpt,f,0.8821,Hi,,,,,,3,,,,,,space,1.1571,low,0,0,0,0,1,,,,,,,,,
295966,2022-10-04_15h03.04.053,vts_reward_expectancy,2022.2.4,MacIntel,60.0024001,Chrome,1440,900,,,,,10,871,,,,,,,,,,,,,,,,,146,Y,triangle,1,0,,,,,,,,,,,,,,,,repeat,number,numRpt,d,0.6625,Lo,,,,,,3,,,,,,,,low,1,0,1,0,1,,,,,,,,,
295966,2022-10-04_15h03.04.053,vts_reward_expectancy,2022.2.4,MacIntel,60.0024001,Chrome,1440,900,,,,,0,871,,,,,,,,,,,,,,,,,132,U,star,0,0,,,,,,,,,,,,,,,,switch,letter,NA,j,0.594,Lo,,,,,,3,,,,,,,,low,2,0,2,0,1,,,,,,,,,
295966,2022-10-04_15h03.04.053,vts_reward_expectancy,2022.2.4,MacIntel,60.0024001,Chrome,1440,900,,,,,1,872,,,,,,,,,,,,,,,,,167,B,triangle,1,1,,,,,,,,,,,,,,,,repeat,letter,lettRpt,j,0.4847,Lo,,,,,,3,,,,,,,,low,3,0,3,0,1,,,,,,,,,
295966,2022-10-04_15h03.04.053,vts_reward_expectancy,2022.2.4,MacIntel,60.0024001,Chrome,1440,900,,,,,0,872,,,,,,,,,,,,,,,,,160,F,triangle,0,0,,,,,,,,,,,,,,,,switch,number,NA,d,0.8149,Lo,,,,,,3,,,,,,,,low,4,0,4,0,1,,,,,,,,,
295966,2022-10-04_15h03.04.053,vts_reward_expectancy,2022.2.4,MacIntel,60.0024001,Chrome,1440,900,,,,,0,872,,,,,,,,,,,,,,,,,139,W,star,1,1,,,,,,,,,,,,,,,,repeat,number,numRpt,d,0.7131,Hi,,,,,,3,,,,,,,,low,5,0,5,0,1,,,,,,,,,
295966,2022-10-04_15h03.04.053,vts_reward_expectancy,2022.2.4,MacIntel,60.0024001,Chrome,1440,900,,,,,1,873,,,,,,,,,,,,,,,,,174,D,triangle,1,0,,,,,,,,,,,,,,,,switch,letter,lettSwt,j,0.4797,Lo,,,,,,3,,,,,,,,low,6,0,6,0,1,,,,,,,,,
295966,2022-10-04_15h03.04.053,vts_reward_expectancy,2022.2.4,MacIntel,60.0024001,Chrome,1440,900,,,,,0,873,,,,,,,,,,,,,,,,,125,H,star,1,0,,,,,,,,,,,,,,,,repeat,letter,lettRpt,j,0.6892,Hi,,,,,,3,,,,,,,,low,7,0,7,0,1,,,,,,,,,
295966,2022-10-04_15h03.04.053,vts_reward_expectancy,2022.2.4,MacIntel,60.0024001,Chrome,1440,900,,,,,0,873,,,,,,,,,,,,,,,,,181,S,star,1,0,,,,,,,,,,,,,,,,repeat,letter,lettRpt,k,0.6635,Hi,,,,,,3,,,,,,,,low,8,0,8,0,1,,,,,,,,,
295966,2022-10-04_15h03.04.053,vts_reward_expectancy,2022.2.4,MacIntel,60.0024001,Chrome,1440,900,,,,,1,874,,,,,,,,,,,,,,,,,146,Y,triangle,1,0,,,,,,,,,,,,,,,,switch,number,numSwt,d,0.4535,Lo,,,,,,3,,,,,,,,low,9,0,9,0,1,,,,,,,,,
295966,2022-10-04_15h03.04.053,vts_reward_expectancy,2022.2.4,MacIntel,60.0024001,Chrome,1440,900,,,,,1,875,,,,,,,,,,,,,,,,,132,U,triangle,1,0,,,,,,,,,,,,,,,,repeat,number,numRpt,d,0.7979,Lo,,,,,,3,,,,,,,,low,10,0,10,0,1,,,,,,,,,
295966,2022-10-04_15h03.04.053,vts_reward_expectancy,2022.2.4,MacIntel,60.0024001,Chrome,1440,900,,,,,0,875,,,,,,,,,,,,,,,,,167,B,star,1,0,,,,,,,,,,,,,,,,repeat,number,numRpt,f,0.6341,Hi,,,,,,3,,,,,,,,low,11,0,11,0,1,,,,,,,,,
295966,2022-10-04_15h03.04.053,vts_reward_expectancy,2022.2.4,MacIntel,60.0024001,Chrome,1440,900,,,,,0,875,,,,,,,,,,,,,,,,,160,F,star,1,0,,,,,,,,,,,,,,,,switch,letter,lettSwt,j,0.8631,Hi,,,,,,3,,,,,,,,low,12,0,12,0,1,,,,,,,,,
295966,2022-10-04_15h03.04.053,vts_reward_expectancy,2022.2.4,MacIntel,60.0024001,Chrome,1440,900,,,,,1,876,,,,,,,,,,,,,,,,,139,W,triangle,1,0,,,,,,,,,,,,,,,,repeat,letter,lettRpt,k,0.8192,Lo,,,,,,3,,,,,,,,low,13,0,13,0,1,,,,,,,,,
295966,2022-10-04_15h03.04.053,vts_reward_expectancy,2022.2.4,MacIntel,60.0024001,Chrome,1440,900,,,,,0,876,,,,,,,,,,,,,,,,,174,D,star,0,0,,,,,,,,,,,,,,,,switch,number,NA,d,0.7053,Lo,,,,,,3,,,,,,,,low,14,0,14,0,1,,,,,,,,,
295966,2022-10-04_15h03.04.053,vts_reward_expectancy,2022.2.4,MacIntel,60.0024001,Chrome,1440,900,,,,,1,877,,,,,,,,,,,,,,,,,125,H,triangle,1,1,,,,,,,,,,,,,,,,repeat,number,numRpt,d,0.6189,Lo,,,,,,3,,,,,,,,low,15,0,15,0,1,,,,,,,,,
295966,2022-10-04_15h03.04.053,vts_reward_expectancy,2022.2.4,MacIntel,60.0024001,Chrome,1440,900,,,,,1,878,,,,,,,,,,,,,,,,,146,B,triangle,1,0,,,,,,,,,,,,,,,,switch,letter,lettSwt,j,0.5135,Lo,,,,,,3,,,,,,,,low,16,0,16,0,1,,,,,,,,,
295966,2022-10-04_15h03.04.053,vts_reward_expectancy,2022.2.4,MacIntel,60.0024001,Chrome,1440,900,,,,,0,878,,,,,,,,,,,,,,,,,139,F,star,1,0,,,,,,,,,,,,,,,,repeat,letter,lettRpt,j,0.7705,Hi,,,,,,3,,,,,,,,low,17,0,17,0,1,,,,,,,,,
295966,2022-10-04_15h03.04.053,vts_reward_expectancy,2022.2.4,MacIntel,60.0024001,Chrome,1440,900,,,,,0,878,,,,,,,,,,,,,,,,,160,Y,star,1,0,,,,,,,,,,,,,,,,switch,number,numSwt,f,0.8627,Hi,,,,,,3,,,,,,,,low,18,0,18,0,1,,,,,,,,,
295966,2022-10-04_15h03.04.053,vts_reward_expectancy,2022.2.4,MacIntel,60.0024001,Chrome,1440,900,,,,,1,879,,,,,,,,,,,,,,,,,174,W,triangle,1,0,,,,,,,,,,,,,,,,repeat,number,numRpt,f,0.6246,Lo,,,,,,3,,,,,,,,low,19,0,19,0,1,,,,,,,,,
295966,2022-10-04_15h03.04.053,vts_reward_expectancy,2022.2.4,MacIntel,60.0024001,Chrome,1440,900,,,,,10,889,,,,,,,,,,,,,,,,,167,D,triangle,1,0,,,,,,,,,,,,,,,,switch,letter,lettSwt,j,0.5392,Lo,,,,,,3,,,,,,,,low,20,0,20,0,1,,,,,,,,,
295966,2022-10-04_15h03.04.053,vts_reward_expectancy,2022.2.4,MacIntel,60.0024001,Chrome,1440,900,,,,,0,889,,,,,,,,,,,,,,,,,181,U,star,1,0,,,,,,,,,,,,,,,,repeat,letter,lettRpt,k,0.8625,Hi,,,,,,3,,,,,,,,low,21,0,21,0,1,,,,,,,,,
295966,2022-10-04_15h03.04.053,vts_reward_expectancy,2022.2.4,MacIntel,60.0024001,Chrome,1440,900,,,,,10,899,,,,,,,,,,,,,,,,,125,H,triangle,1,0,,,,,,,,,,,,,,,,switch,number,numSwt,d,0.5185,Lo,,,,,,3,,,,,,,,low,22,0,22,0,1,,,,,,,,,
295966,2022-10-04_15h03.04.053,vts_reward_expectancy,2022.2.4,MacIntel,60.0024001,Chrome,1440,900,,,,,10,909,,,,,,,,,,,,,,,,,132,S,star,1,0,,,,,,,,,,,,,,,,repeat,number,numRpt,d,0.5369,Hi,,,,,,3,,,,,,,,low,23,0,23,0,1,,,,,,,,,
295966,2022-10-04_15h03.04.053,vts_reward_expectancy,2022.2.4,MacIntel,60.0024001,Chrome,1440,900,,,,,1,910,,,,,,,,,,,,,,,,,167,U,star,1,0,,,,,,,,,,,,,,,,repeat,number,numRpt,f,0.5198,Hi,,,,,,3,,,,,,,,low,24,0,24,0,1,,,,,,,,,
295966,2022-10-04_15h03.04.053,vts_reward_expectancy,2022.2.4,MacIntel,60.0024001,Chrome,1440,900,,,,,10,920,,,,,,,,,,,,,,,,,160,W,triangle,1,0,,,,,,,,,,,,,,,,switch,letter,lettSwt,k,0.5499,Lo,,,,,,3,,,,,,,,low,25,0,25,0,1,,,,,,,,,
295966,2022-10-04_15h03.04.053,vts_reward_expectancy,2022.2.4,MacIntel,60.0024001,Chrome,1440,900,,,,,1,921,,,,,,,,,,,,,,,,,174,B,triangle,1,0,,,,,,,,,,,,,,,,repeat,letter,lettRpt,j,0.5638,Lo,,,,,,3,,,,,,,,low,26,0,26,0,1,,,,,,,,,
295966,2022-10-04_15h03.04.053,vts_reward_expectancy,2022.2.4,MacIntel,60.0024001,Chrome,1440,900,,,,,0,921,,,,,,,,,,,,,,,,,181,Y,star,1,0,,,,,,,,,,,,,,,,switch,number,numSwt,f,0.5227,Hi,,,,,,3,,,,,,,,low,27,0,27,0,1,,,,,,,,,
295966,2022-10-04_15h03.04.053,vts_reward_expectancy,2022.2.4,MacIntel,60.0024001,Chrome,1440,900,,,,,1,922,,,,,,,,,,,,,,,,,125,D,triangle,1,0,,,,,,,,,,,,,,,,repeat,number,numRpt,d,0.438,Lo,,,,,,3,,,,,,,,low,28,0,28,0,1,,,,,,,,,
295966,2022-10-04_15h03.04.053,vts_reward_expectancy,2022.2.4,MacIntel,60.0024001,Chrome,1440,900,,,,,0,922,,,,,,,,,,,,,,,,,146,H,star,1,0,,,,,,,,,,,,,,,,switch,letter,lettSwt,j,0.6185,Hi,,,,,,3,,,,,,,,low,29,0,29,0,1,,,,,,,,,
295966,2022-10-04_15h03.04.053,vts_reward_expectancy,2022.2.4,MacIntel,60.0024001,Chrome,1440,900,,,,,1,923,,,,,,,,,,,,,,,,,132,S,triangle,1,0,,,,,,,,,,,,,,,,repeat,letter,lettRpt,k,0.7093,Lo,,,,,,3,,,,,,,,low,30,0,30,0,1,,,,,,,,,
295966,2022-10-04_15h03.04.053,vts_reward_expectancy,2022.2.4,MacIntel,60.0024001,Chrome,1440,900,,,,,0,923,,,,,,,,,,,,,,,,,139,F,star,1,0,,,,,,,,,,,,,,,,switch,number,numSwt,d,0.5455,Hi,,,,,,3,,,,,,,,low,31,0,31,0,1,,,,,,,,,
295966,2022-10-04_15h03.04.053,vts_reward_expectancy,2022.2.4,MacIntel,60.0024001,Chrome,1440,900,,,,,1,924,,,,,,,,,,,,,,,,,167,F,hexagon,1,0,,,,,,,,,,,,,,,,repeat,number,numRpt,f,0.5655,Hi,,,,,,4,,,,,,space,0.4836,high,0,0,0,0,1,,,,,,,,,
295966,2022-10-04_15h03.04.053,vts_reward_expectancy,2022.2.4,MacIntel,60.0024001,Chrome,1440,900,,,,,10,934,,,,,,,,,,,,,,,,,146,S,circle,1,0,,,,,,,,,,,,,,,,repeat,number,numRpt,d,0.4967,Lo,,,,,,4,,,,,,,,high,1,0,1,0,1,,,,,,,,,
295966,2022-10-04_15h03.04.053,vts_reward_expectancy,2022.2.4,MacIntel,60.0024001,Chrome,1440,900,,,,,10,944,,,,,,,,,,,,,,,,,160,D,hexagon,1,0,,,,,,,,,,,,,,,,switch,letter,lettSwt,j,0.5297,Hi,,,,,,4,,,,,,,,high,2,0,2,0,1,,,,,,,,,
295966,2022-10-04_15h03.04.053,vts_reward_expectancy,2022.2.4,MacIntel,60.0024001,Chrome,1440,900,,,,,1,945,,,,,,,,,,,,,,,,,181,U,circle,1,0,,,,,,,,,,,,,,,,switch,number,numSwt,f,0.499,Lo,,,,,,4,,,,,,,,high,3,0,3,0,1,,,,,,,,,
295966,2022-10-04_15h03.04.053,vts_reward_expectancy,2022.2.4,MacIntel,60.0024001,Chrome,1440,900,,,,,10,955,,,,,,,,,,,,,,,,,132,W,hexagon,1,0,,,,,,,,,,,,,,,,repeat,number,numRpt,d,0.4407,Hi,,,,,,4,,,,,,,,high,4,0,4,0,1,,,,,,,,,
295966,2022-10-04_15h03.04.053,vts_reward_expectancy,2022.2.4,MacIntel,60.0024001,Chrome,1440,900,,,,,1,956,,,,,,,,,,,,,,,,,174,B,circle,1,0,,,,,,,,,,,,,,,,switch,letter,lettSwt,j,0.5477,Lo,,,,,,4,,,,,,,,high,5,0,5,0,1,,,,,,,,,
295966,2022-10-04_15h03.04.053,vts_reward_expectancy,2022.2.4,MacIntel,60.0024001,Chrome,1440,900,,,,,0,956,,,,,,,,,,,,,,,,,125,H,hexagon,1,0,,,,,,,,,,,,,,,,repeat,letter,lettRpt,j,0.6813,Hi,,,,,,4,,,,,,,,high,6,0,6,0,1,,,,,,,,,
295966,2022-10-04_15h03.04.053,vts_reward_expectancy,2022.2.4,MacIntel,60.0024001,Chrome,1440,900,,,,,0,956,,,,,,,,,,,,,,,,,139,Y,circle,0,0,,,,,,,,,,,,,,,,switch,number,NA,f,0.7518,Hi,,,,,,4,,,,,,,,high,7,0,7,0,1,,,,,,,,,
295966,2022-10-04_15h03.04.053,vts_reward_expectancy,2022.2.4,MacIntel,60.0024001,Chrome,1440,900,,,,,1,957,,,,,,,,,,,,,,,,,167,F,circle,1,1,,,,,,,,,,,,,,,,repeat,number,numRpt,f,0.5512,Lo,,,,,,4,,,,,,,,high,8,0,8,0,1,,,,,,,,,
295966,2022-10-04_15h03.04.053,vts_reward_expectancy,2022.2.4,MacIntel,60.0024001,Chrome,1440,900,,,,,0,957,,,,,,,,,,,,,,,,,146,S,hexagon,1,0,,,,,,,,,,,,,,,,switch,letter,lettSwt,k,0.5663,Hi,,,,,,4,,,,,,,,high,9,0,9,0,1,,,,,,,,,
295966,2022-10-04_15h03.04.053,vts_reward_expectancy,2022.2.4,MacIntel,60.0024001,Chrome,1440,900,,,,,0,957,,,,,,,,,,,,,,,,,160,D,hexagon,1,0,,,,,,,,,,,,,,,,repeat,letter,lettRpt,j,0.9302,Hi,,,,,,4,,,,,,,,high,10,0,10,0,1,,,,,,,,,
295966,2022-10-04_15h03.04.053,vts_reward_expectancy,2022.2.4,MacIntel,60.0024001,Chrome,1440,900,,,,,10,967,,,,,,,,,,,,,,,,,181,U,circle,1,0,,,,,,,,,,,,,,,,switch,number,numSwt,f,0.4808,Lo,,,,,,4,,,,,,,,high,11,0,11,0,1,,,,,,,,,
295966,2022-10-04_15h03.04.053,vts_reward_expectancy,2022.2.4,MacIntel,60.0024001,Chrome,1440,900,,,,,1,968,,,,,,,,,,,,,,,,,132,W,circle,1,0,,,,,,,,,,,,,,,,repeat,number,numRpt,d,0.4676,Lo,,,,,,4,,,,,,,,high,12,0,12,0,1,,,,,,,,,
295966,2022-10-04_15h03.04.053,vts_reward_expectancy,2022.2.4,MacIntel,60.0024001,Chrome,1440,900,,,,,10,978,,,,,,,,,,,,,,,,,174,B,hexagon,1,0,,,,,,,,,,,,,,,,switch,letter,lettSwt,j,0.4965,Hi,,,,,,4,,,,,,,,high,13,0,13,0,1,,,,,,,,,
295966,2022-10-04_15h03.04.053,vts_reward_expectancy,2022.2.4,MacIntel,60.0024001,Chrome,1440,900,,,,,10,988,,,,,,,,,,,,,,,,,125,H,hexagon,1,0,,,,,,,,,,,,,,,,repeat,letter,lettRpt,j,0.6151,Hi,,,,,,4,,,,,,,,high,14,0,14,0,1,,,,,,,,,
295966,2022-10-04_15h03.04.053,vts_reward_expectancy,2022.2.4,MacIntel,60.0024001,Chrome,1440,900,,,,,1,989,,,,,,,,,,,,,,,,,139,Y,circle,1,0,,,,,,,,,,,,,,,,switch,number,numSwt,d,0.7336,Lo,,,,,,4,,,,,,,,high,15,0,15,0,1,,,,,,,,,
295966,2022-10-04_15h03.04.053,vts_reward_expectancy,2022.2.4,MacIntel,60.0024001,Chrome,1440,900,,,,,1,990,,,,,,,,,,,,,,,,,160,W,circle,1,0,,,,,,,,,,,,,,,,repeat,number,numRpt,f,0.7169,Lo,,,,,,4,,,,,,,,high,16,0,16,0,1,,,,,,,,,
295966,2022-10-04_15h03.04.053,vts_reward_expectancy,2022.2.4,MacIntel,60.0024001,Chrome,1440,900,,,,,10,1000,,,,,,,,,,,,,,,,,132,U,hexagon,1,0,,,,,,,,,,,,,,,,repeat,number,numRpt,d,0.5222,Hi,,,,,,4,,,,,,,,high,17,0,17,0,1,,,,,,,,,
295966,2022-10-04_15h03.04.053,vts_reward_expectancy,2022.2.4,MacIntel,60.0024001,Chrome,1440,900,,,,,1,1001,,,,,,,,,,,,,,,,,167,H,circle,1,0,,,,,,,,,,,,,,,,switch,letter,lettSwt,j,0.4317,Lo,,,,,,4,,,,,,,,high,18,0,18,0,1,,,,,,,,,
295966,2022-10-04_15h03.04.053,vts_reward_expectancy,2022.2.4,MacIntel,60.0024001,Chrome,1440,900,,,,,0,1001,,,,,,,,,,,,,,,,,146,B,hexagon,0,0,,,,,,,,,,,,,,,,repeat,letter,NA,k,0.5775,Lo,,,,,,4,,,,,,,,high,19,0,19,0,1,,,,,,,,,
295966,2022-10-04_15h03.04.053,vts_reward_expectancy,2022.2.4,MacIntel,60.0024001,Chrome,1440,900,,,,,1,1002,,,,,,,,,,,,,,,,,181,F,circle,1,1,,,,,,,,,,,,,,,,repeat,letter,lettRpt,j,0.6649,Lo,,,,,,4,,,,,,,,high,20,0,20,0,1,,,,,,,,,
295966,2022-10-04_15h03.04.053,vts_reward_expectancy,2022.2.4,MacIntel,60.0024001,Chrome,1440,900,,,,,0,1002,,,,,,,,,,,,,,,,,125,D,hexagon,1,0,,,,,,,,,,,,,,,,repeat,letter,lettRpt,j,0.7271,Hi,,,,,,4,,,,,,,,high,21,0,21,0,1,,,,,,,,,
295966,2022-10-04_15h03.04.053,vts_reward_expectancy,2022.2.4,MacIntel,60.0024001,Chrome,1440,900,,,,,1,1003,,,,,,,,,,,,,,,,,139,Y,hexagon,1,0,,,,,,,,,,,,,,,,switch,number,numSwt,d,0.4992,Hi,,,,,,4,,,,,,,,high,22,0,22,0,1,,,,,,,,,
295966,2022-10-04_15h03.04.053,vts_reward_expectancy,2022.2.4,MacIntel,60.0024001,Chrome,1440,900,,,,,1,1004,,,,,,,,,,,,,,,,,174,S,circle,1,0,,,,,,,,,,,,,,,,repeat,number,numRpt,f,0.5826,Lo,,,,,,4,,,,,,,,high,23,0,23,0,1,,,,,,,,,
295966,2022-10-04_15h03.04.053,vts_reward_expectancy,2022.2.4,MacIntel,60.0024001,Chrome,1440,900,,,,,0,1004,,,,,,,,,,,,,,,,,160,H,circle,0,0,,,,,,,,,,,,,,,,repeat,number,NA,d,0.5637,Lo,,,,,,4,,,,,,,,high,24,0,24,0,1,,,,,,,,,
295966,2022-10-04_15h03.04.053,vts_reward_expectancy,2022.2.4,MacIntel,60.0024001,Chrome,1440,900,,,,,0,1004,,,,,,,,,,,,,,,,,174,U,hexagon,1,1,,,,,,,,,,,,,,,,switch,letter,lettSwt,k,0.6462,Hi,,,,,,4,,,,,,,,high,25,0,25,0,1,,,,,,,,,
295966,2022-10-04_15h03.04.053,vts_reward_expectancy,2022.2.4,MacIntel,60.0024001,Chrome,1440,900,,,,,10,1014,,,,,,,,,,,,,,,,,181,B,hexagon,1,0,,,,,,,,,,,,,,,,repeat,letter,lettRpt,j,0.4829,Hi,,,,,,4,,,,,,,,high,26,0,26,0,1,,,,,,,,,
295966,2022-10-04_15h03.04.053,vts_reward_expectancy,2022.2.4,MacIntel,60.0024001,Chrome,1440,900,,,,,1,1015,,,,,,,,,,,,,,,,,139,Y,circle,1,0,,,,,,,,,,,,,,,,switch,number,numSwt,d,0.5816,Lo,,,,,,4,,,,,,,,high,27,0,27,0,1,,,,,,,,,
295966,2022-10-04_15h03.04.053,vts_reward_expectancy,2022.2.4,MacIntel,60.0024001,Chrome,1440,900,,,,,0,1015,,,,,,,,,,,,,,,,,167,D,hexagon,1,0,,,,,,,,,,,,,,,,repeat,number,numRpt,f,0.7466,Hi,,,,,,4,,,,,,,,high,28,0,28,0,1,,,,,,,,,
295966,2022-10-04_15h03.04.053,vts_reward_expectancy,2022.2.4,MacIntel,60.0024001,Chrome,1440,900,,,,,1,1016,,,,,,,,,,,,,,,,,132,F,circle,1,0,,,,,,,,,,,,,,,,switch,letter,lettSwt,j,0.6125,Lo,,,,,,4,,,,,,,,high,29,0,29,0,1,,,,,,,,,
295966,2022-10-04_15h03.04.053,vts_reward_expectancy,2022.2.4,MacIntel,60.0024001,Chrome,1440,900,,,,,0,1016,,,,,,,,,,,,,,,,,125,S,hexagon,1,0,,,,,,,,,,,,,,,,switch,number,numSwt,d,0.6641,Hi,,,,,,4,,,,,,,,high,30,0,30,0,1,,,,,,,,,
295966,2022-10-04_15h03.04.053,vts_reward_expectancy,2022.2.4,MacIntel,60.0024001,Chrome,1440,900,,,,,1,1017,,,,,,,,,,,,,,,,,146,W,circle,1,0,,,,,,,,,,,,,,,,repeat,number,numRpt,d,0.6454,Lo,,,,,,4,,,,,,,,high,31,0,31,0,1,,,,,,,,,
295966,2022-10-04_15h03.04.053,vts_reward_expectancy,2022.2.4,MacIntel,60.0024001,Chrome,1440,900,,,,,10,1027,,,,,,,,,,,,,,,,,167,F,circle,1,0,,,,,,,,,,,,,,,,switch,letter,lettSwt,j,0.5138,Lo,,,,,,5,,,,,,space,1.1662,high,0,0,0,0,1,,,,,,,,,
295966,2022-10-04_15h03.04.053,vts_reward_expectancy,2022.2.4,MacIntel,60.0024001,Chrome,1440,900,,,,,1,1028,,,,,,,,,,,,,,,,,132,D,hexagon,1,0,,,,,,,,,,,,,,,,repeat,letter,lettRpt,j,0.5151,Hi,,,,,,5,,,,,,,,high,1,0,1,0,1,,,,,,,,,
295966,2022-10-04_15h03.04.053,vts_reward_expectancy,2022.2.4,MacIntel,60.0024001,Chrome,1440,900,,,,,1,1029,,,,,,,,,,,,,,,,,146,H,circle,1,0,,,,,,,,,,,,,,,,switch,number,numSwt,d,0.5136,Lo,,,,,,5,,,,,,,,high,2,0,2,0,1,,,,,,,,,
295966,2022-10-04_15h03.04.053,vts_reward_expectancy,2022.2.4,MacIntel,60.0024001,Chrome,1440,900,,,,,1,1030,,,,,,,,,,,,,,,,,139,Y,hexagon,1,0,,,,,,,,,,,,,,,,repeat,number,numRpt,d,0.4628,Hi,,,,,,5,,,,,,,,high,3,0,3,0,1,,,,,,,,,
295966,2022-10-04_15h03.04.053,vts_reward_expectancy,2022.2.4,MacIntel,60.0024001,Chrome,1440,900,,,,,1,1031,,,,,,,,,,,,,,,,,125,B,circle,1,0,,,,,,,,,,,,,,,,switch,letter,lettSwt,j,0.5458,Lo,,,,,,5,,,,,,,,high,4,0,4,0,1,,,,,,,,,
295966,2022-10-04_15h03.04.053,vts_reward_expectancy,2022.2.4,MacIntel,60.0024001,Chrome,1440,900,,,,,10,1041,,,,,,,,,,,,,,,,,181,S,hexagon,1,0,,,,,,,,,,,,,,,,repeat,letter,lettRpt,k,0.5287,Hi,,,,,,5,,,,,,,,high,5,0,5,0,1,,,,,,,,,
295966,2022-10-04_15h03.04.053,vts_reward_expectancy,2022.2.4,MacIntel,60.0024001,Chrome,1440,900,,,,,1,1042,,,,,,,,,,,,,,,,,174,U,circle,1,0,,,,,,,,,,,,,,,,switch,number,numSwt,f,0.4815,Lo,,,,,,5,,,,,,,,high,6,0,6,0,1,,,,,,,,,
295966,2022-10-04_15h03.04.053,vts_reward_expectancy,2022.2.4,MacIntel,60.0024001,Chrome,1440,900,,,,,0,1042,,,,,,,,,,,,,,,,,160,W,hexagon,1,0,,,,,,,,,,,,,,,,repeat,number,numRpt,f,0.7161,Hi,,,,,,5,,,,,,,,high,7,0,7,0,1,,,,,,,,,
295966,2022-10-04_15h03.04.053,vts_reward_expectancy,2022.2.4,MacIntel,60.0024001,Chrome,1440,900,,,,,1,1043,,,,,,,,,,,,,,,,,167,F,circle,1,0,,,,,,,,,,,,,,,,repeat,number,numRpt,f,0.4856,Lo,,,,,,5,,,,,,,,high,8,0,8,0,1,,,,,,,,,
295966,2022-10-04_15h03.04.053,vts_reward_expectancy,2022.2.4,MacIntel,60.0024001,Chrome,1440,900,,,,,10,1053,,,,,,,,,,,,,,,,,132,D,hexagon,1,0,,,,,,,,,,,,,,,,switch,letter,lettSwt,j,0.4745,Hi,,,,,,5,,,,,,,,high,9,0,9,0,1,,,,,,,,,
295966,2022-10-04_15h03.04.053,vts_reward_expectancy,2022.2.4,MacIntel,60.0024001,Chrome,1440,900,,,,,10,1063,,,,,,,,,,,,,,,,,146,H,hexagon,1,0,,,,,,,,,,,,,,,,repeat,letter,lettRpt,j,0.4868,Hi,,,,,,5,,,,,,,,high,10,0,10,0,1,,,,,,,,,
295966,2022-10-04_15h03.04.053,vts_reward_expectancy,2022.2.4,MacIntel,60.0024001,Chrome,1440,900,,,,,1,1064,,,,,,,,,,,,,,,,,139,Y,circle,1,0,,,,,,,,,,,,,,,,switch,number,numSwt,d,0.5079,Lo,,,,,,5,,,,,,,,high,11,0,11,0,1,,,,,,,,,
295966,2022-10-04_15h03.04.053,vts_reward_expectancy,2022.2.4,MacIntel,60.0024001,Chrome,1440,900,,,,,10,1074,,,,,,,,,,,,,,,,,125,B,hexagon,1,0,,,,,,,,,,,,,,,,repeat,number,numRpt,d,0.4929,Hi,,,,,,5,,,,,,,,high,12,0,12,0,1,,,,,,,,,
295966,2022-10-04_15h03.04.053,vts_reward_expectancy,2022.2.4,MacIntel,60.0024001,Chrome,1440,900,,,,,10,1084,,,,,,,,,,,,,,,,,181,S,circle,1,0,,,,,,,,,,,,,,,,repeat,number,numRpt,f,0.5132,Lo,,,,,,5,,,,,,,,high,13,0,13,0,1,,,,,,,,,
295966,2022-10-04_15h03.04.053,vts_reward_expectancy,2022.2.4,MacIntel,60.0024001,Chrome,1440,900,,,,,1,1085,,,,,,,,,,,,,,,,,174,U,circle,1,0,,,,,,,,,,,,,,,,switch,letter,lettSwt,k,0.6303,Lo,,,,,,5,,,,,,,,high,14,0,14,0,1,,,,,,,,,
295966,2022-10-04_15h03.04.053,vts_reward_expectancy,2022.2.4,MacIntel,60.0024001,Chrome,1440,900,,,,,10,1095,,,,,,,,,,,,,,,,,160,W,hexagon,1,0,,,,,,,,,,,,,,,,repeat,letter,lettRpt,k,0.5474,Hi,,,,,,5,,,,,,,,high,15,0,15,0,1,,,,,,,,,
295966,2022-10-04_15h03.04.053,vts_reward_expectancy,2022.2.4,MacIntel,60.0024001,Chrome,1440,900,,,,,1,1096,,,,,,,,,,,,,,,,,174,B,circle,1,0,,,,,,,,,,,,,,,,repeat,letter,lettRpt,j,0.521,Lo,,,,,,5,,,,,,,,high,16,0,16,0,1,,,,,,,,,
295966,2022-10-04_15h03.04.053,vts_reward_expectancy,2022.2.4,MacIntel,60.0024001,Chrome,1440,900,,,,,0,1096,,,,,,,,,,,,,,,,,160,W,hexagon,1,0,,,,,,,,,,,,,,,,switch,number,numSwt,f,0.7113,Hi,,,,,,5,,,,,,,,high,17,0,17,0,1,,,,,,,,,
295966,2022-10-04_15h03.04.053,vts_reward_expectancy,2022.2.4,MacIntel,60.0024001,Chrome,1440,900,,,,,10,1106,,,,,,,,,,,,,,,,,146,S,hexagon,1,0,,,,,,,,,,,,,,,,repeat,number,numRpt,d,0.4961,Hi,,,,,,5,,,,,,,,high,18,0,18,0,1,,,,,,,,,
295966,2022-10-04_15h03.04.053,vts_reward_expectancy,2022.2.4,MacIntel,60.0024001,Chrome,1440,900,,,,,1,1107,,,,,,,,,,,,,,,,,132,H,circle,1,0,,,,,,,,,,,,,,,,switch,letter,lettSwt,j,0.5931,Lo,,,,,,5,,,,,,,,high,19,0,19,0,1,,,,,,,,,
295966,2022-10-04_15h03.04.053,vts_reward_expectancy,2022.2.4,MacIntel,60.0024001,Chrome,1440,900,,,,,1,1108,,,,,,,,,,,,,,,,,167,D,hexagon,1,0,,,,,,,,,,,,,,,,repeat,letter,lettRpt,j,0.5293,Hi,,,,,,5,,,,,,,,high,20,0,20,0,1,,,,,,,,,
295966,2022-10-04_15h03.04.053,vts_reward_expectancy,2022.2.4,MacIntel,60.0024001,Chrome,1440,900,,,,,1,1109,,,,,,,,,,,,,,,,,181,Y,circle,1,0,,,,,,,,,,,,,,,,switch,number,numSwt,f,0.5984,Lo,,,,,,5,,,,,,,,high,21,0,21,0,1,,,,,,,,,
295966,2022-10-04_15h03.04.053,vts_reward_expectancy,2022.2.4,MacIntel,60.0024001,Chrome,1440,900,,,,,1,1110,,,,,,,,,,,,,,,,,125,F,circle,1,0,,,,,,,,,,,,,,,,repeat,number,numRpt,d,0.6653,Lo,,,,,,5,,,,,,,,high,22,0,22,0,1,,,,,,,,,
295966,2022-10-04_15h03.04.053,vts_reward_expectancy,2022.2.4,MacIntel,60.0024001,Chrome,1440,900,,,,,0,1110,,,,,,,,,,,,,,,,,139,U,hexagon,1,0,,,,,,,,,,,,,,,,repeat,number,numRpt,d,0.86,Hi,,,,,,5,,,,,,,,high,23,0,23,0,1,,,,,,,,,
295966,2022-10-04_15h03.04.053,vts_reward_expectancy,2022.2.4,MacIntel,60.0024001,Chrome,1440,900,,,,,1,1111,,,,,,,,,,,,,,,,,181,W,circle,1,0,,,,,,,,,,,,,,,,switch,letter,lettSwt,k,0.665,Lo,,,,,,5,,,,,,,,high,24,0,24,0,1,,,,,,,,,
295966,2022-10-04_15h03.04.053,vts_reward_expectancy,2022.2.4,MacIntel,60.0024001,Chrome,1440,900,,,,,10,1121,,,,,,,,,,,,,,,,,132,S,hexagon,1,0,,,,,,,,,,,,,,,,repeat,letter,lettRpt,k,0.5599,Hi,,,,,,5,,,,,,,,high,25,0,25,0,1,,,,,,,,,
295966,2022-10-04_15h03.04.053,vts_reward_expectancy,2022.2.4,MacIntel,60.0024001,Chrome,1440,900,,,,,10,1131,,,,,,,,,,,,,,,,,139,U,hexagon,1,0,,,,,,,,,,,,,,,,repeat,letter,lettRpt,k,0.6016,Hi,,,,,,5,,,,,,,,high,26,0,26,0,1,,,,,,,,,
295966,2022-10-04_15h03.04.053,vts_reward_expectancy,2022.2.4,MacIntel,60.0024001,Chrome,1440,900,,,,,1,1132,,,,,,,,,,,,,,,,,160,Y,circle,1,0,,,,,,,,,,,,,,,,switch,number,numSwt,f,0.563,Lo,,,,,,5,,,,,,,,high,27,0,27,0,1,,,,,,,,,
295966,2022-10-04_15h03.04.053,vts_reward_expectancy,2022.2.4,MacIntel,60.0024001,Chrome,1440,900,,,,,1,1133,,,,,,,,,,,,,,,,,174,H,circle,1,0,,,,,,,,,,,,,,,,repeat,number,numRpt,f,0.608,Lo,,,,,,5,,,,,,,,high,28,0,28,0,1,,,,,,,,,
295966,2022-10-04_15h03.04.053,vts_reward_expectancy,2022.2.4,MacIntel,60.0024001,Chrome,1440,900,,,,,0,1133,,,,,,,,,,,,,,,,,146,D,hexagon,1,0,,,,,,,,,,,,,,,,repeat,number,numRpt,d,0.564,Hi,,,,,,5,,,,,,,,high,29,0,29,0,1,,,,,,,,,
295966,2022-10-04_15h03.04.053,vts_reward_expectancy,2022.2.4,MacIntel,60.0024001,Chrome,1440,900,,,,,0,1133,,,,,,,,,,,,,,,,,125,B,hexagon,1,0,,,,,,,,,,,,,,,,switch,letter,lettSwt,j,0.6324,Hi,,,,,,5,,,,,,,,high,30,0,30,0,1,,,,,,,,,
295966,2022-10-04_15h03.04.053,vts_reward_expectancy,2022.2.4,MacIntel,60.0024001,Chrome,1440,900,,,,,10,1143,,,,,,,,,,,,,,,,,167,F,circle,1,0,,,,,,,,,,,,,,,,repeat,letter,lettRpt,j,0.6692,Lo,,,,,,5,,,,,,,,high,31,0,31,0,1,,,,,,,,,
295966,2022-10-04_15h03.04.053,vts_reward_expectancy,2022.2.4,MacIntel,60.0024001,Chrome,1440,900,,,,,,,,,,,,,,,,,,,,,,,,,,,,,,,,,,,,,,,,,,,,,,,,,,,,,,6,,,,,,,,,,,,,,Asked to hit certain keys if a number was higher or lower than 153 and hit a certain key depending on whether a letter was closer to A or Z. ,1,,3,2,,2,1440,900
