participant,date,expName,psychopyVersion,OS,frameRate,browser,xResolution,yResolution,key_resp.keys,key_resp.rt,training_resp.keys,training_resp.rt,points_trial,points_cumul,trainBlock,training.thisRepN,training.thisTrialN,training.thisN,training.thisIndex,training.ran,LTriangleOpac,LCircleOpac,LHexagonOpac,LStarOpac,RTriangleOpac,RCircleOpac,RHexagonOpac,RStarOpac,LShape_ID,RShape_ID,curr_topStim,curr_bottStim,curr_shape,acc,E1,target_resp_prac1.keys,target_resp_prac1.rt,pracBlock,task1_prac_trials.thisRepN,task1_prac_trials.thisTrialN,task1_prac_trials.thisN,task1_prac_trials.thisIndex,task1_prac_trials.ran,target_resp_prac2.keys,target_resp_prac2.rt,task2_praac_trials.thisRepN,task2_praac_trials.thisTrialN,task2_praac_trials.thisN,task2_praac_trials.thisIndex,task2_praac_trials.ran,alt,task,condition,target_resp.keys,target_resp.rt,rewCond,vts_practice_trials.thisRepN,vts_practice_trials.thisTrialN,vts_practice_trials.thisN,vts_practice_trials.thisIndex,vts_practice_trials.ran,blockNum,trials_norew.thisRepN,trials_norew.thisTrialN,trials_norew.thisN,trials_norew.thisIndex,trials_norew.ran,key_resp_2.keys,key_resp_2.rt,rewExpect,trials_rew.thisRepN,trials_rew.thisTrialN,trials_rew.thisN,trials_rew.thisIndex,trials_rew.ran,Q1,Q2,Q2_text,Q3,Q4,Q5,Q5_text,xRes,yRes
297808,2022-10-04_11h38.27.497,vts_reward_expectancy,2022.2.4,Win32,62.89703755,Chrome,1536,864,,,,,,,,,,,,,,,,,,,,,,,,,,,,,,,,,,,,,,,,,,,,,,,,,,,,,,,,,,,,,,,,,,,,,,,,,,,,
297808,2022-10-04_11h38.27.497,vts_reward_expectancy,2022.2.4,Win32,62.89703755,Chrome,1536,864,space,29.4005,,,,,,,,,,,,,,,,,,,,,,,,,,,,,,,,,,,,,,,,,,,,,,,,,,,,,,,,,,,,,,,,,,,,,,,,,,
297808,2022-10-04_11h38.27.497,vts_reward_expectancy,2022.2.4,Win32,62.89703755,Chrome,1536,864,,,,,,,,,,,,,,,,,,,,,,,,,,,,,,,,,,,,,,,,,,,,,,,,,,,,,,,,,,,,,,,,,,,,,,,,,,,,
297808,2022-10-04_11h38.27.497,vts_reward_expectancy,2022.2.4,Win32,62.89703755,Chrome,1536,864,,,l,2.4211,1,1,0,0,0,0,8,1,0,0,1,0,0,0,0,1,hexagon,star,,,,,,,,,,,,,,,,,,,,,,,,,,,,,,,,,,,,,,,,,,,,,,,,,,,,,,
297808,2022-10-04_11h38.27.497,vts_reward_expectancy,2022.2.4,Win32,62.89703755,Chrome,1536,864,,,a,0.7534,10,11,0,0,1,1,2,1,1,0,0,0,0,0,0,1,triangle,star,,,,,,,,,,,,,,,,,,,,,,,,,,,,,,,,,,,,,,,,,,,,,,,,,,,,,,
297808,2022-10-04_11h38.27.497,vts_reward_expectancy,2022.2.4,Win32,62.89703755,Chrome,1536,864,,,l,1.5431,1,12,0,0,2,2,7,1,0,0,1,0,0,1,0,0,hexagon,circle,,,,,,,,,,,,,,,,,,,,,,,,,,,,,,,,,,,,,,,,,,,,,,,,,,,,,,
297808,2022-10-04_11h38.27.497,vts_reward_expectancy,2022.2.4,Win32,62.89703755,Chrome,1536,864,,,l,1.0959,1,13,0,0,3,3,4,1,0,1,0,0,0,0,1,0,circle,hexagon,,,,,,,,,,,,,,,,,,,,,,,,,,,,,,,,,,,,,,,,,,,,,,,,,,,,,,
297808,2022-10-04_11h38.27.497,vts_reward_expectancy,2022.2.4,Win32,62.89703755,Chrome,1536,864,,,l,1.552,1,14,0,0,4,4,11,1,0,0,0,1,0,0,1,0,star,hexagon,,,,,,,,,,,,,,,,,,,,,,,,,,,,,,,,,,,,,,,,,,,,,,,,,,,,,,
297808,2022-10-04_11h38.27.497,vts_reward_expectancy,2022.2.4,Win32,62.89703755,Chrome,1536,864,,,a,1.711,10,24,0,0,5,5,5,1,0,1,0,0,0,0,0,1,circle,star,,,,,,,,,,,,,,,,,,,,,,,,,,,,,,,,,,,,,,,,,,,,,,,,,,,,,,
297808,2022-10-04_11h38.27.497,vts_reward_expectancy,2022.2.4,Win32,62.89703755,Chrome,1536,864,,,a,1.6256,10,34,0,0,6,6,1,1,1,0,0,0,0,0,1,0,triangle,hexagon,,,,,,,,,,,,,,,,,,,,,,,,,,,,,,,,,,,,,,,,,,,,,,,,,,,,,,
297808,2022-10-04_11h38.27.497,vts_reward_expectancy,2022.2.4,Win32,62.89703755,Chrome,1536,864,,,l,1.5701,10,44,0,0,7,7,10,1,0,0,0,1,0,1,0,0,star ,circle,,,,,,,,,,,,,,,,,,,,,,,,,,,,,,,,,,,,,,,,,,,,,,,,,,,,,,
297808,2022-10-04_11h38.27.497,vts_reward_expectancy,2022.2.4,Win32,62.89703755,Chrome,1536,864,,,l,1.2016,1,45,0,0,8,8,6,1,0,0,1,0,1,0,0,0,hexagon,triangle,,,,,,,,,,,,,,,,,,,,,,,,,,,,,,,,,,,,,,,,,,,,,,,,,,,,,,
297808,2022-10-04_11h38.27.497,vts_reward_expectancy,2022.2.4,Win32,62.89703755,Chrome,1536,864,,,l,1.1752,10,55,0,0,9,9,9,1,0,0,0,1,1,0,0,0,star,triangle,,,,,,,,,,,,,,,,,,,,,,,,,,,,,,,,,,,,,,,,,,,,,,,,,,,,,,
297808,2022-10-04_11h38.27.497,vts_reward_expectancy,2022.2.4,Win32,62.89703755,Chrome,1536,864,,,a,1.0528,10,65,0,0,10,10,0,1,1,0,0,0,0,1,0,0,triangle,circle,,,,,,,,,,,,,,,,,,,,,,,,,,,,,,,,,,,,,,,,,,,,,,,,,,,,,,
297808,2022-10-04_11h38.27.497,vts_reward_expectancy,2022.2.4,Win32,62.89703755,Chrome,1536,864,,,l,0.8036,10,75,0,0,11,11,3,1,0,1,0,0,1,0,0,0,circle,triangle,,,,,,,,,,,,,,,,,,,,,,,,,,,,,,,,,,,,,,,,,,,,,,,,,,,,,,
297808,2022-10-04_11h38.27.497,vts_reward_expectancy,2022.2.4,Win32,62.89703755,Chrome,1536,864,,,l,1.0054,1,76,0,1,0,12,11,1,0,0,0,1,0,0,1,0,star,hexagon,,,,,,,,,,,,,,,,,,,,,,,,,,,,,,,,,,,,,,,,,,,,,,,,,,,,,,
297808,2022-10-04_11h38.27.497,vts_reward_expectancy,2022.2.4,Win32,62.89703755,Chrome,1536,864,,,a,2.0468,1,77,0,1,1,13,7,1,0,0,1,0,0,1,0,0,hexagon,circle,,,,,,,,,,,,,,,,,,,,,,,,,,,,,,,,,,,,,,,,,,,,,,,,,,,,,,
297808,2022-10-04_11h38.27.497,vts_reward_expectancy,2022.2.4,Win32,62.89703755,Chrome,1536,864,,,l,0.6469,1,78,0,1,2,14,4,1,0,1,0,0,0,0,1,0,circle,hexagon,,,,,,,,,,,,,,,,,,,,,,,,,,,,,,,,,,,,,,,,,,,,,,,,,,,,,,
297808,2022-10-04_11h38.27.497,vts_reward_expectancy,2022.2.4,Win32,62.89703755,Chrome,1536,864,,,a,1.1071,10,88,0,1,3,15,1,1,1,0,0,0,0,0,1,0,triangle,hexagon,,,,,,,,,,,,,,,,,,,,,,,,,,,,,,,,,,,,,,,,,,,,,,,,,,,,,,
297808,2022-10-04_11h38.27.497,vts_reward_expectancy,2022.2.4,Win32,62.89703755,Chrome,1536,864,,,l,1.2909,10,98,0,1,4,16,10,1,0,0,0,1,0,1,0,0,star ,circle,,,,,,,,,,,,,,,,,,,,,,,,,,,,,,,,,,,,,,,,,,,,,,,,,,,,,,
297808,2022-10-04_11h38.27.497,vts_reward_expectancy,2022.2.4,Win32,62.89703755,Chrome,1536,864,,,l,1.3807,10,108,0,1,5,17,6,1,0,0,1,0,1,0,0,0,hexagon,triangle,,,,,,,,,,,,,,,,,,,,,,,,,,,,,,,,,,,,,,,,,,,,,,,,,,,,,,
297808,2022-10-04_11h38.27.497,vts_reward_expectancy,2022.2.4,Win32,62.89703755,Chrome,1536,864,,,l,1.3104,10,118,0,1,6,18,3,1,0,1,0,0,1,0,0,0,circle,triangle,,,,,,,,,,,,,,,,,,,,,,,,,,,,,,,,,,,,,,,,,,,,,,,,,,,,,,
297808,2022-10-04_11h38.27.497,vts_reward_expectancy,2022.2.4,Win32,62.89703755,Chrome,1536,864,,,l,1.2162,10,128,0,1,7,19,9,1,0,0,0,1,1,0,0,0,star,triangle,,,,,,,,,,,,,,,,,,,,,,,,,,,,,,,,,,,,,,,,,,,,,,,,,,,,,,
297808,2022-10-04_11h38.27.497,vts_reward_expectancy,2022.2.4,Win32,62.89703755,Chrome,1536,864,,,a,1.3474,10,138,0,1,8,20,0,1,1,0,0,0,0,1,0,0,triangle,circle,,,,,,,,,,,,,,,,,,,,,,,,,,,,,,,,,,,,,,,,,,,,,,,,,,,,,,
297808,2022-10-04_11h38.27.497,vts_reward_expectancy,2022.2.4,Win32,62.89703755,Chrome,1536,864,,,a,1.0163,1,139,0,1,9,21,8,1,0,0,1,0,0,0,0,1,hexagon,star,,,,,,,,,,,,,,,,,,,,,,,,,,,,,,,,,,,,,,,,,,,,,,,,,,,,,,
297808,2022-10-04_11h38.27.497,vts_reward_expectancy,2022.2.4,Win32,62.89703755,Chrome,1536,864,,,a,0.8124,1,140,0,1,10,22,2,1,1,0,0,0,0,0,0,1,triangle,star,,,,,,,,,,,,,,,,,,,,,,,,,,,,,,,,,,,,,,,,,,,,,,,,,,,,,,
297808,2022-10-04_11h38.27.497,vts_reward_expectancy,2022.2.4,Win32,62.89703755,Chrome,1536,864,,,a,1.0713,10,150,0,1,11,23,5,1,0,1,0,0,0,0,0,1,circle,star,,,,,,,,,,,,,,,,,,,,,,,,,,,,,,,,,,,,,,,,,,,,,,,,,,,,,,
297808,2022-10-04_11h38.27.497,vts_reward_expectancy,2022.2.4,Win32,62.89703755,Chrome,1536,864,,,a,1.3806,1,151,0,2,0,24,0,1,1,0,0,0,0,1,0,0,triangle,circle,,,,,,,,,,,,,,,,,,,,,,,,,,,,,,,,,,,,,,,,,,,,,,,,,,,,,,
297808,2022-10-04_11h38.27.497,vts_reward_expectancy,2022.2.4,Win32,62.89703755,Chrome,1536,864,,,l,1.0398,10,161,0,2,1,25,9,1,0,0,0,1,1,0,0,0,star,triangle,,,,,,,,,,,,,,,,,,,,,,,,,,,,,,,,,,,,,,,,,,,,,,,,,,,,,,
297808,2022-10-04_11h38.27.497,vts_reward_expectancy,2022.2.4,Win32,62.89703755,Chrome,1536,864,,,l,0.8584,10,171,0,2,2,26,10,1,0,0,0,1,0,1,0,0,star ,circle,,,,,,,,,,,,,,,,,,,,,,,,,,,,,,,,,,,,,,,,,,,,,,,,,,,,,,
297808,2022-10-04_11h38.27.497,vts_reward_expectancy,2022.2.4,Win32,62.89703755,Chrome,1536,864,,,a,1.2043,1,172,0,2,3,27,11,1,0,0,0,1,0,0,1,0,star,hexagon,,,,,,,,,,,,,,,,,,,,,,,,,,,,,,,,,,,,,,,,,,,,,,,,,,,,,,
297808,2022-10-04_11h38.27.497,vts_reward_expectancy,2022.2.4,Win32,62.89703755,Chrome,1536,864,,,a,1.4995,10,182,0,2,4,28,2,1,1,0,0,0,0,0,0,1,triangle,star,,,,,,,,,,,,,,,,,,,,,,,,,,,,,,,,,,,,,,,,,,,,,,,,,,,,,,
297808,2022-10-04_11h38.27.497,vts_reward_expectancy,2022.2.4,Win32,62.89703755,Chrome,1536,864,,,a,0.9221,10,192,0,2,5,29,5,1,0,1,0,0,0,0,0,1,circle,star,,,,,,,,,,,,,,,,,,,,,,,,,,,,,,,,,,,,,,,,,,,,,,,,,,,,,,
297808,2022-10-04_11h38.27.497,vts_reward_expectancy,2022.2.4,Win32,62.89703755,Chrome,1536,864,,,l,1.7009,1,193,0,2,6,30,8,1,0,0,1,0,0,0,0,1,hexagon,star,,,,,,,,,,,,,,,,,,,,,,,,,,,,,,,,,,,,,,,,,,,,,,,,,,,,,,
297808,2022-10-04_11h38.27.497,vts_reward_expectancy,2022.2.4,Win32,62.89703755,Chrome,1536,864,,,l,1.7815,1,194,0,2,7,31,6,1,0,0,1,0,1,0,0,0,hexagon,triangle,,,,,,,,,,,,,,,,,,,,,,,,,,,,,,,,,,,,,,,,,,,,,,,,,,,,,,
297808,2022-10-04_11h38.27.497,vts_reward_expectancy,2022.2.4,Win32,62.89703755,Chrome,1536,864,,,a,2.616,10,204,0,2,8,32,1,1,1,0,0,0,0,0,1,0,triangle,hexagon,,,,,,,,,,,,,,,,,,,,,,,,,,,,,,,,,,,,,,,,,,,,,,,,,,,,,,
297808,2022-10-04_11h38.27.497,vts_reward_expectancy,2022.2.4,Win32,62.89703755,Chrome,1536,864,,,l,1.283,1,205,0,2,9,33,3,1,0,1,0,0,1,0,0,0,circle,triangle,,,,,,,,,,,,,,,,,,,,,,,,,,,,,,,,,,,,,,,,,,,,,,,,,,,,,,
297808,2022-10-04_11h38.27.497,vts_reward_expectancy,2022.2.4,Win32,62.89703755,Chrome,1536,864,,,a,1.3733,10,215,0,2,10,34,4,1,0,1,0,0,0,0,1,0,circle,hexagon,,,,,,,,,,,,,,,,,,,,,,,,,,,,,,,,,,,,,,,,,,,,,,,,,,,,,,
297808,2022-10-04_11h38.27.497,vts_reward_expectancy,2022.2.4,Win32,62.89703755,Chrome,1536,864,,,l,1.1425,10,225,0,2,11,35,7,1,0,0,1,0,0,1,0,0,hexagon,circle,,,,,,,,,,,,,,,,,,,,,,,,,,,,,,,,,,,,,,,,,,,,,,,,,,,,,,
297808,2022-10-04_11h38.27.497,vts_reward_expectancy,2022.2.4,Win32,62.89703755,Chrome,1536,864,,,a,1.0755,1,226,1,0,0,0,8,1,0,0,1,0,0,0,0,1,hexagon,star,,,,,,,,,,,,,,,,,,,,,,,,,,,,,,,,,,,,,,,,,,,,,,,,,,,,,,
297808,2022-10-04_11h38.27.497,vts_reward_expectancy,2022.2.4,Win32,62.89703755,Chrome,1536,864,,,a,0.7163,1,227,1,0,1,1,5,1,0,1,0,0,0,0,0,1,circle,star,,,,,,,,,,,,,,,,,,,,,,,,,,,,,,,,,,,,,,,,,,,,,,,,,,,,,,
297808,2022-10-04_11h38.27.497,vts_reward_expectancy,2022.2.4,Win32,62.89703755,Chrome,1536,864,,,l,1.2386,10,237,1,0,2,2,6,1,0,0,1,0,1,0,0,0,hexagon,triangle,,,,,,,,,,,,,,,,,,,,,,,,,,,,,,,,,,,,,,,,,,,,,,,,,,,,,,
297808,2022-10-04_11h38.27.497,vts_reward_expectancy,2022.2.4,Win32,62.89703755,Chrome,1536,864,,,a,0.9491,1,238,1,0,3,3,4,1,0,1,0,0,0,0,1,0,circle,hexagon,,,,,,,,,,,,,,,,,,,,,,,,,,,,,,,,,,,,,,,,,,,,,,,,,,,,,,
297808,2022-10-04_11h38.27.497,vts_reward_expectancy,2022.2.4,Win32,62.89703755,Chrome,1536,864,,,a,0.934,10,248,1,0,4,4,2,1,1,0,0,0,0,0,0,1,triangle,star,,,,,,,,,,,,,,,,,,,,,,,,,,,,,,,,,,,,,,,,,,,,,,,,,,,,,,
297808,2022-10-04_11h38.27.497,vts_reward_expectancy,2022.2.4,Win32,62.89703755,Chrome,1536,864,,,l,0.6956,10,258,1,0,5,5,7,1,0,0,1,0,0,1,0,0,hexagon,circle,,,,,,,,,,,,,,,,,,,,,,,,,,,,,,,,,,,,,,,,,,,,,,,,,,,,,,
297808,2022-10-04_11h38.27.497,vts_reward_expectancy,2022.2.4,Win32,62.89703755,Chrome,1536,864,,,l,2.1826,1,259,1,0,6,6,0,1,1,0,0,0,0,1,0,0,triangle,circle,,,,,,,,,,,,,,,,,,,,,,,,,,,,,,,,,,,,,,,,,,,,,,,,,,,,,,
297808,2022-10-04_11h38.27.497,vts_reward_expectancy,2022.2.4,Win32,62.89703755,Chrome,1536,864,,,l,0.7837,10,269,1,0,7,7,9,1,0,0,0,1,1,0,0,0,star,triangle,,,,,,,,,,,,,,,,,,,,,,,,,,,,,,,,,,,,,,,,,,,,,,,,,,,,,,
297808,2022-10-04_11h38.27.497,vts_reward_expectancy,2022.2.4,Win32,62.89703755,Chrome,1536,864,,,a,1.1743,10,279,1,0,8,8,1,1,1,0,0,0,0,0,1,0,triangle,hexagon,,,,,,,,,,,,,,,,,,,,,,,,,,,,,,,,,,,,,,,,,,,,,,,,,,,,,,
297808,2022-10-04_11h38.27.497,vts_reward_expectancy,2022.2.4,Win32,62.89703755,Chrome,1536,864,,,a,1.3151,10,289,1,0,9,9,3,1,0,1,0,0,1,0,0,0,circle,triangle,,,,,,,,,,,,,,,,,,,,,,,,,,,,,,,,,,,,,,,,,,,,,,,,,,,,,,
297808,2022-10-04_11h38.27.497,vts_reward_expectancy,2022.2.4,Win32,62.89703755,Chrome,1536,864,,,l,0.8,1,290,1,0,10,10,11,1,0,0,0,1,0,0,1,0,star,hexagon,,,,,,,,,,,,,,,,,,,,,,,,,,,,,,,,,,,,,,,,,,,,,,,,,,,,,,
297808,2022-10-04_11h38.27.497,vts_reward_expectancy,2022.2.4,Win32,62.89703755,Chrome,1536,864,,,l,0.6047,10,300,1,0,11,11,10,1,0,0,0,1,0,1,0,0,star ,circle,,,,,,,,,,,,,,,,,,,,,,,,,,,,,,,,,,,,,,,,,,,,,,,,,,,,,,
297808,2022-10-04_11h38.27.497,vts_reward_expectancy,2022.2.4,Win32,62.89703755,Chrome,1536,864,,,a,0.7318,10,310,1,1,0,12,3,1,0,1,0,0,1,0,0,0,circle,triangle,,,,,,,,,,,,,,,,,,,,,,,,,,,,,,,,,,,,,,,,,,,,,,,,,,,,,,
297808,2022-10-04_11h38.27.497,vts_reward_expectancy,2022.2.4,Win32,62.89703755,Chrome,1536,864,,,l,0.7518,10,320,1,1,1,13,0,1,1,0,0,0,0,1,0,0,triangle,circle,,,,,,,,,,,,,,,,,,,,,,,,,,,,,,,,,,,,,,,,,,,,,,,,,,,,,,
297808,2022-10-04_11h38.27.497,vts_reward_expectancy,2022.2.4,Win32,62.89703755,Chrome,1536,864,,,l,0.9248,10,330,1,1,2,14,7,1,0,0,1,0,0,1,0,0,hexagon,circle,,,,,,,,,,,,,,,,,,,,,,,,,,,,,,,,,,,,,,,,,,,,,,,,,,,,,,
297808,2022-10-04_11h38.27.497,vts_reward_expectancy,2022.2.4,Win32,62.89703755,Chrome,1536,864,,,a,1.3011,10,340,1,1,3,15,4,1,0,1,0,0,0,0,1,0,circle,hexagon,,,,,,,,,,,,,,,,,,,,,,,,,,,,,,,,,,,,,,,,,,,,,,,,,,,,,,
297808,2022-10-04_11h38.27.497,vts_reward_expectancy,2022.2.4,Win32,62.89703755,Chrome,1536,864,,,a,0.8601,10,350,1,1,4,16,8,1,0,0,1,0,0,0,0,1,hexagon,star,,,,,,,,,,,,,,,,,,,,,,,,,,,,,,,,,,,,,,,,,,,,,,,,,,,,,,
297808,2022-10-04_11h38.27.497,vts_reward_expectancy,2022.2.4,Win32,62.89703755,Chrome,1536,864,,,l,0.8839,10,360,1,1,5,17,10,1,0,0,0,1,0,1,0,0,star ,circle,,,,,,,,,,,,,,,,,,,,,,,,,,,,,,,,,,,,,,,,,,,,,,,,,,,,,,
297808,2022-10-04_11h38.27.497,vts_reward_expectancy,2022.2.4,Win32,62.89703755,Chrome,1536,864,,,l,1.1508,1,361,1,1,6,18,11,1,0,0,0,1,0,0,1,0,star,hexagon,,,,,,,,,,,,,,,,,,,,,,,,,,,,,,,,,,,,,,,,,,,,,,,,,,,,,,
297808,2022-10-04_11h38.27.497,vts_reward_expectancy,2022.2.4,Win32,62.89703755,Chrome,1536,864,,,l,1.5415,10,371,1,1,7,19,9,1,0,0,0,1,1,0,0,0,star,triangle,,,,,,,,,,,,,,,,,,,,,,,,,,,,,,,,,,,,,,,,,,,,,,,,,,,,,,
297808,2022-10-04_11h38.27.497,vts_reward_expectancy,2022.2.4,Win32,62.89703755,Chrome,1536,864,,,l,2.8654,10,381,1,1,8,20,6,1,0,0,1,0,1,0,0,0,hexagon,triangle,,,,,,,,,,,,,,,,,,,,,,,,,,,,,,,,,,,,,,,,,,,,,,,,,,,,,,
297808,2022-10-04_11h38.27.497,vts_reward_expectancy,2022.2.4,Win32,62.89703755,Chrome,1536,864,,,a,1.6275,10,391,1,1,9,21,1,1,1,0,0,0,0,0,1,0,triangle,hexagon,,,,,,,,,,,,,,,,,,,,,,,,,,,,,,,,,,,,,,,,,,,,,,,,,,,,,,
297808,2022-10-04_11h38.27.497,vts_reward_expectancy,2022.2.4,Win32,62.89703755,Chrome,1536,864,,,a,1.3828,1,392,1,1,10,22,5,1,0,1,0,0,0,0,0,1,circle,star,,,,,,,,,,,,,,,,,,,,,,,,,,,,,,,,,,,,,,,,,,,,,,,,,,,,,,
297808,2022-10-04_11h38.27.497,vts_reward_expectancy,2022.2.4,Win32,62.89703755,Chrome,1536,864,,,l,2.0824,10,402,1,1,11,23,2,1,1,0,0,0,0,0,0,1,triangle,star,,,,,,,,,,,,,,,,,,,,,,,,,,,,,,,,,,,,,,,,,,,,,,,,,,,,,,
297808,2022-10-04_11h38.27.497,vts_reward_expectancy,2022.2.4,Win32,62.89703755,Chrome,1536,864,,,l,1.0517,10,412,1,2,0,24,9,1,0,0,0,1,1,0,0,0,star,triangle,,,,,,,,,,,,,,,,,,,,,,,,,,,,,,,,,,,,,,,,,,,,,,,,,,,,,,
297808,2022-10-04_11h38.27.497,vts_reward_expectancy,2022.2.4,Win32,62.89703755,Chrome,1536,864,,,l,0.8744,1,413,1,2,1,25,10,1,0,0,0,1,0,1,0,0,star ,circle,,,,,,,,,,,,,,,,,,,,,,,,,,,,,,,,,,,,,,,,,,,,,,,,,,,,,,
297808,2022-10-04_11h38.27.497,vts_reward_expectancy,2022.2.4,Win32,62.89703755,Chrome,1536,864,,,l,1.466,1,414,1,2,2,26,6,1,0,0,1,0,1,0,0,0,hexagon,triangle,,,,,,,,,,,,,,,,,,,,,,,,,,,,,,,,,,,,,,,,,,,,,,,,,,,,,,
297808,2022-10-04_11h38.27.497,vts_reward_expectancy,2022.2.4,Win32,62.89703755,Chrome,1536,864,,,a,0.8896,10,424,1,2,3,27,3,1,0,1,0,0,1,0,0,0,circle,triangle,,,,,,,,,,,,,,,,,,,,,,,,,,,,,,,,,,,,,,,,,,,,,,,,,,,,,,
297808,2022-10-04_11h38.27.497,vts_reward_expectancy,2022.2.4,Win32,62.89703755,Chrome,1536,864,,,a,0.8237,10,434,1,2,4,28,2,1,1,0,0,0,0,0,0,1,triangle,star,,,,,,,,,,,,,,,,,,,,,,,,,,,,,,,,,,,,,,,,,,,,,,,,,,,,,,
297808,2022-10-04_11h38.27.497,vts_reward_expectancy,2022.2.4,Win32,62.89703755,Chrome,1536,864,,,a,0.8506,10,444,1,2,5,29,5,1,0,1,0,0,0,0,0,1,circle,star,,,,,,,,,,,,,,,,,,,,,,,,,,,,,,,,,,,,,,,,,,,,,,,,,,,,,,
297808,2022-10-04_11h38.27.497,vts_reward_expectancy,2022.2.4,Win32,62.89703755,Chrome,1536,864,,,l,1.0491,1,445,1,2,6,30,7,1,0,0,1,0,0,1,0,0,hexagon,circle,,,,,,,,,,,,,,,,,,,,,,,,,,,,,,,,,,,,,,,,,,,,,,,,,,,,,,
297808,2022-10-04_11h38.27.497,vts_reward_expectancy,2022.2.4,Win32,62.89703755,Chrome,1536,864,,,a,0.9825,10,455,1,2,7,31,4,1,0,1,0,0,0,0,1,0,circle,hexagon,,,,,,,,,,,,,,,,,,,,,,,,,,,,,,,,,,,,,,,,,,,,,,,,,,,,,,
297808,2022-10-04_11h38.27.497,vts_reward_expectancy,2022.2.4,Win32,62.89703755,Chrome,1536,864,,,a,1.499,10,465,1,2,8,32,1,1,1,0,0,0,0,0,1,0,triangle,hexagon,,,,,,,,,,,,,,,,,,,,,,,,,,,,,,,,,,,,,,,,,,,,,,,,,,,,,,
297808,2022-10-04_11h38.27.497,vts_reward_expectancy,2022.2.4,Win32,62.89703755,Chrome,1536,864,,,l,1.2523,10,475,1,2,9,33,0,1,1,0,0,0,0,1,0,0,triangle,circle,,,,,,,,,,,,,,,,,,,,,,,,,,,,,,,,,,,,,,,,,,,,,,,,,,,,,,
297808,2022-10-04_11h38.27.497,vts_reward_expectancy,2022.2.4,Win32,62.89703755,Chrome,1536,864,,,a,1.1551,1,476,1,2,10,34,8,1,0,0,1,0,0,0,0,1,hexagon,star,,,,,,,,,,,,,,,,,,,,,,,,,,,,,,,,,,,,,,,,,,,,,,,,,,,,,,
297808,2022-10-04_11h38.27.497,vts_reward_expectancy,2022.2.4,Win32,62.89703755,Chrome,1536,864,,,l,1.2333,10,486,1,2,11,35,11,1,0,0,0,1,0,0,1,0,star,hexagon,,,,,,,,,,,,,,,,,,,,,,,,,,,,,,,,,,,,,,,,,,,,,,,,,,,,,,
297808,2022-10-04_11h38.27.497,vts_reward_expectancy,2022.2.4,Win32,62.89703755,Chrome,1536,864,,,a,0.822,1,487,2,0,0,0,5,1,0,1,0,0,0,0,0,1,circle,star,,,,,,,,,,,,,,,,,,,,,,,,,,,,,,,,,,,,,,,,,,,,,,,,,,,,,,
297808,2022-10-04_11h38.27.497,vts_reward_expectancy,2022.2.4,Win32,62.89703755,Chrome,1536,864,,,l,0.8942,10,497,2,0,1,1,7,1,0,0,1,0,0,1,0,0,hexagon,circle,,,,,,,,,,,,,,,,,,,,,,,,,,,,,,,,,,,,,,,,,,,,,,,,,,,,,,
297808,2022-10-04_11h38.27.497,vts_reward_expectancy,2022.2.4,Win32,62.89703755,Chrome,1536,864,,,a,0.7828,1,498,2,0,2,2,4,1,0,1,0,0,0,0,1,0,circle,hexagon,,,,,,,,,,,,,,,,,,,,,,,,,,,,,,,,,,,,,,,,,,,,,,,,,,,,,,
297808,2022-10-04_11h38.27.497,vts_reward_expectancy,2022.2.4,Win32,62.89703755,Chrome,1536,864,,,a,1.3097,10,508,2,0,3,3,3,1,0,1,0,0,1,0,0,0,circle,triangle,,,,,,,,,,,,,,,,,,,,,,,,,,,,,,,,,,,,,,,,,,,,,,,,,,,,,,
297808,2022-10-04_11h38.27.497,vts_reward_expectancy,2022.2.4,Win32,62.89703755,Chrome,1536,864,,,l,0.7207,1,509,2,0,4,4,11,1,0,0,0,1,0,0,1,0,star,hexagon,,,,,,,,,,,,,,,,,,,,,,,,,,,,,,,,,,,,,,,,,,,,,,,,,,,,,,
297808,2022-10-04_11h38.27.497,vts_reward_expectancy,2022.2.4,Win32,62.89703755,Chrome,1536,864,,,l,1.6338,10,519,2,0,5,5,9,1,0,0,0,1,1,0,0,0,star,triangle,,,,,,,,,,,,,,,,,,,,,,,,,,,,,,,,,,,,,,,,,,,,,,,,,,,,,,
297808,2022-10-04_11h38.27.497,vts_reward_expectancy,2022.2.4,Win32,62.89703755,Chrome,1536,864,,,l,1.0498,10,529,2,0,6,6,10,1,0,0,0,1,0,1,0,0,star ,circle,,,,,,,,,,,,,,,,,,,,,,,,,,,,,,,,,,,,,,,,,,,,,,,,,,,,,,
297808,2022-10-04_11h38.27.497,vts_reward_expectancy,2022.2.4,Win32,62.89703755,Chrome,1536,864,,,l,1.8227,1,530,2,0,7,7,2,1,1,0,0,0,0,0,0,1,triangle,star,,,,,,,,,,,,,,,,,,,,,,,,,,,,,,,,,,,,,,,,,,,,,,,,,,,,,,
297808,2022-10-04_11h38.27.497,vts_reward_expectancy,2022.2.4,Win32,62.89703755,Chrome,1536,864,,,l,1.6652,10,540,2,0,8,8,6,1,0,0,1,0,1,0,0,0,hexagon,triangle,,,,,,,,,,,,,,,,,,,,,,,,,,,,,,,,,,,,,,,,,,,,,,,,,,,,,,
297808,2022-10-04_11h38.27.497,vts_reward_expectancy,2022.2.4,Win32,62.89703755,Chrome,1536,864,,,l,1.4547,1,541,2,0,9,9,0,1,1,0,0,0,0,1,0,0,triangle,circle,,,,,,,,,,,,,,,,,,,,,,,,,,,,,,,,,,,,,,,,,,,,,,,,,,,,,,
297808,2022-10-04_11h38.27.497,vts_reward_expectancy,2022.2.4,Win32,62.89703755,Chrome,1536,864,,,a,1.594,1,542,2,0,10,10,1,1,1,0,0,0,0,0,1,0,triangle,hexagon,,,,,,,,,,,,,,,,,,,,,,,,,,,,,,,,,,,,,,,,,,,,,,,,,,,,,,
297808,2022-10-04_11h38.27.497,vts_reward_expectancy,2022.2.4,Win32,62.89703755,Chrome,1536,864,,,a,1.2648,1,543,2,0,11,11,8,1,0,0,1,0,0,0,0,1,hexagon,star,,,,,,,,,,,,,,,,,,,,,,,,,,,,,,,,,,,,,,,,,,,,,,,,,,,,,,
297808,2022-10-04_11h38.27.497,vts_reward_expectancy,2022.2.4,Win32,62.89703755,Chrome,1536,864,,,a,0.917,10,553,2,1,0,12,4,1,0,1,0,0,0,0,1,0,circle,hexagon,,,,,,,,,,,,,,,,,,,,,,,,,,,,,,,,,,,,,,,,,,,,,,,,,,,,,,
297808,2022-10-04_11h38.27.497,vts_reward_expectancy,2022.2.4,Win32,62.89703755,Chrome,1536,864,,,l,0.6582,1,554,2,1,1,13,11,1,0,0,0,1,0,0,1,0,star,hexagon,,,,,,,,,,,,,,,,,,,,,,,,,,,,,,,,,,,,,,,,,,,,,,,,,,,,,,
297808,2022-10-04_11h38.27.497,vts_reward_expectancy,2022.2.4,Win32,62.89703755,Chrome,1536,864,,,l,0.7651,1,555,2,1,2,14,0,1,1,0,0,0,0,1,0,0,triangle,circle,,,,,,,,,,,,,,,,,,,,,,,,,,,,,,,,,,,,,,,,,,,,,,,,,,,,,,
297808,2022-10-04_11h38.27.497,vts_reward_expectancy,2022.2.4,Win32,62.89703755,Chrome,1536,864,,,l,0.5672,10,565,2,1,3,15,9,1,0,0,0,1,1,0,0,0,star,triangle,,,,,,,,,,,,,,,,,,,,,,,,,,,,,,,,,,,,,,,,,,,,,,,,,,,,,,
297808,2022-10-04_11h38.27.497,vts_reward_expectancy,2022.2.4,Win32,62.89703755,Chrome,1536,864,,,l,1.0569,10,575,2,1,4,16,6,1,0,0,1,0,1,0,0,0,hexagon,triangle,,,,,,,,,,,,,,,,,,,,,,,,,,,,,,,,,,,,,,,,,,,,,,,,,,,,,,
297808,2022-10-04_11h38.27.497,vts_reward_expectancy,2022.2.4,Win32,62.89703755,Chrome,1536,864,,,a,1.021,10,585,2,1,5,17,1,1,1,0,0,0,0,0,1,0,triangle,hexagon,,,,,,,,,,,,,,,,,,,,,,,,,,,,,,,,,,,,,,,,,,,,,,,,,,,,,,
297808,2022-10-04_11h38.27.497,vts_reward_expectancy,2022.2.4,Win32,62.89703755,Chrome,1536,864,,,a,0.7421,1,586,2,1,6,18,5,1,0,1,0,0,0,0,0,1,circle,star,,,,,,,,,,,,,,,,,,,,,,,,,,,,,,,,,,,,,,,,,,,,,,,,,,,,,,
297808,2022-10-04_11h38.27.497,vts_reward_expectancy,2022.2.4,Win32,62.89703755,Chrome,1536,864,,,l,1.0986,10,596,2,1,7,19,7,1,0,0,1,0,0,1,0,0,hexagon,circle,,,,,,,,,,,,,,,,,,,,,,,,,,,,,,,,,,,,,,,,,,,,,,,,,,,,,,
297808,2022-10-04_11h38.27.497,vts_reward_expectancy,2022.2.4,Win32,62.89703755,Chrome,1536,864,,,l,0.4663,1,597,2,1,8,20,10,1,0,0,0,1,0,1,0,0,star ,circle,,,,,,,,,,,,,,,,,,,,,,,,,,,,,,,,,,,,,,,,,,,,,,,,,,,,,,
297808,2022-10-04_11h38.27.497,vts_reward_expectancy,2022.2.4,Win32,62.89703755,Chrome,1536,864,,,a,0.8663,10,607,2,1,9,21,2,1,1,0,0,0,0,0,0,1,triangle,star,,,,,,,,,,,,,,,,,,,,,,,,,,,,,,,,,,,,,,,,,,,,,,,,,,,,,,
297808,2022-10-04_11h38.27.497,vts_reward_expectancy,2022.2.4,Win32,62.89703755,Chrome,1536,864,,,a,0.7362,1,608,2,1,10,22,8,1,0,0,1,0,0,0,0,1,hexagon,star,,,,,,,,,,,,,,,,,,,,,,,,,,,,,,,,,,,,,,,,,,,,,,,,,,,,,,
297808,2022-10-04_11h38.27.497,vts_reward_expectancy,2022.2.4,Win32,62.89703755,Chrome,1536,864,,,a,1.1886,10,618,2,1,11,23,3,1,0,1,0,0,1,0,0,0,circle,triangle,,,,,,,,,,,,,,,,,,,,,,,,,,,,,,,,,,,,,,,,,,,,,,,,,,,,,,
297808,2022-10-04_11h38.27.497,vts_reward_expectancy,2022.2.4,Win32,62.89703755,Chrome,1536,864,,,a,1.3667,1,619,2,2,0,24,2,1,1,0,0,0,0,0,0,1,triangle,star,,,,,,,,,,,,,,,,,,,,,,,,,,,,,,,,,,,,,,,,,,,,,,,,,,,,,,
297808,2022-10-04_11h38.27.497,vts_reward_expectancy,2022.2.4,Win32,62.89703755,Chrome,1536,864,,,a,1.1336,1,620,2,2,1,25,4,1,0,1,0,0,0,0,1,0,circle,hexagon,,,,,,,,,,,,,,,,,,,,,,,,,,,,,,,,,,,,,,,,,,,,,,,,,,,,,,
297808,2022-10-04_11h38.27.497,vts_reward_expectancy,2022.2.4,Win32,62.89703755,Chrome,1536,864,,,l,0.9273,10,630,2,2,2,26,1,1,1,0,0,0,0,0,1,0,triangle,hexagon,,,,,,,,,,,,,,,,,,,,,,,,,,,,,,,,,,,,,,,,,,,,,,,,,,,,,,
297808,2022-10-04_11h38.27.497,vts_reward_expectancy,2022.2.4,Win32,62.89703755,Chrome,1536,864,,,l,0.7755,10,640,2,2,3,27,10,1,0,0,0,1,0,1,0,0,star ,circle,,,,,,,,,,,,,,,,,,,,,,,,,,,,,,,,,,,,,,,,,,,,,,,,,,,,,,
297808,2022-10-04_11h38.27.497,vts_reward_expectancy,2022.2.4,Win32,62.89703755,Chrome,1536,864,,,l,0.574,1,641,2,2,4,28,11,1,0,0,0,1,0,0,1,0,star,hexagon,,,,,,,,,,,,,,,,,,,,,,,,,,,,,,,,,,,,,,,,,,,,,,,,,,,,,,
297808,2022-10-04_11h38.27.497,vts_reward_expectancy,2022.2.4,Win32,62.89703755,Chrome,1536,864,,,l,2.1636,1,642,2,2,5,29,0,1,1,0,0,0,0,1,0,0,triangle,circle,,,,,,,,,,,,,,,,,,,,,,,,,,,,,,,,,,,,,,,,,,,,,,,,,,,,,,
297808,2022-10-04_11h38.27.497,vts_reward_expectancy,2022.2.4,Win32,62.89703755,Chrome,1536,864,,,a,0.6446,1,643,2,2,6,30,8,1,0,0,1,0,0,0,0,1,hexagon,star,,,,,,,,,,,,,,,,,,,,,,,,,,,,,,,,,,,,,,,,,,,,,,,,,,,,,,
297808,2022-10-04_11h38.27.497,vts_reward_expectancy,2022.2.4,Win32,62.89703755,Chrome,1536,864,,,l,0.9026,10,653,2,2,7,31,6,1,0,0,1,0,1,0,0,0,hexagon,triangle,,,,,,,,,,,,,,,,,,,,,,,,,,,,,,,,,,,,,,,,,,,,,,,,,,,,,,
297808,2022-10-04_11h38.27.497,vts_reward_expectancy,2022.2.4,Win32,62.89703755,Chrome,1536,864,,,l,0.6531,10,663,2,2,8,32,7,1,0,0,1,0,0,1,0,0,hexagon,circle,,,,,,,,,,,,,,,,,,,,,,,,,,,,,,,,,,,,,,,,,,,,,,,,,,,,,,
297808,2022-10-04_11h38.27.497,vts_reward_expectancy,2022.2.4,Win32,62.89703755,Chrome,1536,864,,,a,1.684,1,664,2,2,9,33,5,1,0,1,0,0,0,0,0,1,circle,star,,,,,,,,,,,,,,,,,,,,,,,,,,,,,,,,,,,,,,,,,,,,,,,,,,,,,,
297808,2022-10-04_11h38.27.497,vts_reward_expectancy,2022.2.4,Win32,62.89703755,Chrome,1536,864,,,a,1.1229,10,674,2,2,10,34,3,1,0,1,0,0,1,0,0,0,circle,triangle,,,,,,,,,,,,,,,,,,,,,,,,,,,,,,,,,,,,,,,,,,,,,,,,,,,,,,
297808,2022-10-04_11h38.27.497,vts_reward_expectancy,2022.2.4,Win32,62.89703755,Chrome,1536,864,,,l,0.7854,1,675,2,2,11,35,9,1,0,0,0,1,1,0,0,0,star,triangle,,,,,,,,,,,,,,,,,,,,,,,,,,,,,,,,,,,,,,,,,,,,,,,,,,,,,,
297808,2022-10-04_11h38.27.497,vts_reward_expectancy,2022.2.4,Win32,62.89703755,Chrome,1536,864,,,,,,,,,,,,,,,,,,,,,,,181,B,star,1,0,f,2.6949,0,0,0,0,0,1,,,,,,,,,,,,,,,,,,,,,,,,,,,,,,,,,,,,,,,,,
297808,2022-10-04_11h38.27.497,vts_reward_expectancy,2022.2.4,Win32,62.89703755,Chrome,1536,864,,,,,,,,,,,,,,,,,,,,,,,125,D,circle,1,0,d,1.1686,0,1,0,1,0,1,,,,,,,,,,,,,,,,,,,,,,,,,,,,,,,,,,,,,,,,,
297808,2022-10-04_11h38.27.497,vts_reward_expectancy,2022.2.4,Win32,62.89703755,Chrome,1536,864,,,,,,,,,,,,,,,,,,,,,,,139,U,triangle,1,0,d,1.6938,0,2,0,2,0,1,,,,,,,,,,,,,,,,,,,,,,,,,,,,,,,,,,,,,,,,,
297808,2022-10-04_11h38.27.497,vts_reward_expectancy,2022.2.4,Win32,62.89703755,Chrome,1536,864,,,,,,,,,,,,,,,,,,,,,,,167,W,hexagon,1,0,f,1.8925,0,3,0,3,0,1,,,,,,,,,,,,,,,,,,,,,,,,,,,,,,,,,,,,,,,,,
297808,2022-10-04_11h38.27.497,vts_reward_expectancy,2022.2.4,Win32,62.89703755,Chrome,1536,864,,,,,,,,,,,,,,,,,,,,,,,160,H,star,1,0,f,1.3612,0,4,0,4,0,1,,,,,,,,,,,,,,,,,,,,,,,,,,,,,,,,,,,,,,,,,
297808,2022-10-04_11h38.27.497,vts_reward_expectancy,2022.2.4,Win32,62.89703755,Chrome,1536,864,,,,,,,,,,,,,,,,,,,,,,,146,S,circle,1,0,d,0.9319,0,5,0,5,0,1,,,,,,,,,,,,,,,,,,,,,,,,,,,,,,,,,,,,,,,,,
297808,2022-10-04_11h38.27.497,vts_reward_expectancy,2022.2.4,Win32,62.89703755,Chrome,1536,864,,,,,,,,,,,,,,,,,,,,,,,174,F,triangle,1,0,f,0.7027,0,6,0,6,0,1,,,,,,,,,,,,,,,,,,,,,,,,,,,,,,,,,,,,,,,,,
297808,2022-10-04_11h38.27.497,vts_reward_expectancy,2022.2.4,Win32,62.89703755,Chrome,1536,864,,,,,,,,,,,,,,,,,,,,,,,132,Y,hexagon,1,0,d,0.7616,0,7,0,7,0,1,,,,,,,,,,,,,,,,,,,,,,,,,,,,,,,,,,,,,,,,,
297808,2022-10-04_11h38.27.497,vts_reward_expectancy,2022.2.4,Win32,62.89703755,Chrome,1536,864,,,,,,,,,,,,,,,,,,,,,,,181,B,circle,1,0,f,0.8397,0,8,0,8,0,1,,,,,,,,,,,,,,,,,,,,,,,,,,,,,,,,,,,,,,,,,
297808,2022-10-04_11h38.27.497,vts_reward_expectancy,2022.2.4,Win32,62.89703755,Chrome,1536,864,,,,,,,,,,,,,,,,,,,,,,,125,D,hexagon,1,0,d,0.6635,0,9,0,9,0,1,,,,,,,,,,,,,,,,,,,,,,,,,,,,,,,,,,,,,,,,,
297808,2022-10-04_11h38.27.497,vts_reward_expectancy,2022.2.4,Win32,62.89703755,Chrome,1536,864,,,,,,,,,,,,,,,,,,,,,,,181,H,triangle,1,0,,,1,,,,,,j,1.0237,0,0,0,0,1,,,,,,,,,,,,,,,,,,,,,,,,,,,,,,,,,,
297808,2022-10-04_11h38.27.497,vts_reward_expectancy,2022.2.4,Win32,62.89703755,Chrome,1536,864,,,,,,,,,,,,,,,,,,,,,,,132,F,hexagon,1,0,,,1,,,,,,j,1.0786,1,0,1,0,1,,,,,,,,,,,,,,,,,,,,,,,,,,,,,,,,,,
297808,2022-10-04_11h38.27.497,vts_reward_expectancy,2022.2.4,Win32,62.89703755,Chrome,1536,864,,,,,,,,,,,,,,,,,,,,,,,139,W,star,1,0,,,1,,,,,,k,0.7014,2,0,2,0,1,,,,,,,,,,,,,,,,,,,,,,,,,,,,,,,,,,
297808,2022-10-04_11h38.27.497,vts_reward_expectancy,2022.2.4,Win32,62.89703755,Chrome,1536,864,,,,,,,,,,,,,,,,,,,,,,,125,Y,circle,1,0,,,1,,,,,,k,0.8286,3,0,3,0,1,,,,,,,,,,,,,,,,,,,,,,,,,,,,,,,,,,
297808,2022-10-04_11h38.27.497,vts_reward_expectancy,2022.2.4,Win32,62.89703755,Chrome,1536,864,,,,,,,,,,,,,,,,,,,,,,,160,S,triangle,1,0,,,1,,,,,,k,0.8998,4,0,4,0,1,,,,,,,,,,,,,,,,,,,,,,,,,,,,,,,,,,
297808,2022-10-04_11h38.27.497,vts_reward_expectancy,2022.2.4,Win32,62.89703755,Chrome,1536,864,,,,,,,,,,,,,,,,,,,,,,,146,B,hexagon,1,0,,,1,,,,,,j,1.7613,5,0,5,0,1,,,,,,,,,,,,,,,,,,,,,,,,,,,,,,,,,,
297808,2022-10-04_11h38.27.497,vts_reward_expectancy,2022.2.4,Win32,62.89703755,Chrome,1536,864,,,,,,,,,,,,,,,,,,,,,,,167,D,star,0,0,,,1,,,,,,,,6,0,6,0,1,,,,,,,,,,,,,,,,,,,,,,,,,,,,,,,,,,
297808,2022-10-04_11h38.27.497,vts_reward_expectancy,2022.2.4,Win32,62.89703755,Chrome,1536,864,,,,,,,,,,,,,,,,,,,,,,,174,U,circle,1,1,,,1,,,,,,k,1.9629,7,0,7,0,1,,,,,,,,,,,,,,,,,,,,,,,,,,,,,,,,,,
297808,2022-10-04_11h38.27.497,vts_reward_expectancy,2022.2.4,Win32,62.89703755,Chrome,1536,864,,,,,,,,,,,,,,,,,,,,,,,181,H,triangle,1,0,,,1,,,,,,j,1.0508,8,0,8,0,1,,,,,,,,,,,,,,,,,,,,,,,,,,,,,,,,,,
297808,2022-10-04_11h38.27.497,vts_reward_expectancy,2022.2.4,Win32,62.89703755,Chrome,1536,864,,,,,,,,,,,,,,,,,,,,,,,132,F,star,1,0,,,1,,,,,,j,0.9886,9,0,9,0,1,,,,,,,,,,,,,,,,,,,,,,,,,,,,,,,,,,
297808,2022-10-04_11h38.27.497,vts_reward_expectancy,2022.2.4,Win32,62.89703755,Chrome,1536,864,,,,,0,675,,,,,,,,,,,,,,,,,174,H,triangle,1,0,,,2,,,,,,,,,,,,,-1,number,NA,f,1.6997,vtsPrac,0,0,0,0,1,,,,,,,,,,,,,,,,,,,,,,,
297808,2022-10-04_11h38.27.497,vts_reward_expectancy,2022.2.4,Win32,62.89703755,Chrome,1536,864,,,,,0,675,,,,,,,,,,,,,,,,,167,S,circle,1,0,,,2,,,,,,,,,,,,,repeat,number,numRpt,f,1.0948,vtsPrac,1,0,1,0,1,,,,,,,,,,,,,,,,,,,,,,,
297808,2022-10-04_11h38.27.497,vts_reward_expectancy,2022.2.4,Win32,62.89703755,Chrome,1536,864,,,,,0,675,,,,,,,,,,,,,,,,,139,D,triangle,1,0,,,2,,,,,,,,,,,,,switch,letter,lettSwt,j,0.7998,vtsPrac,2,0,2,0,1,,,,,,,,,,,,,,,,,,,,,,,
297808,2022-10-04_11h38.27.497,vts_reward_expectancy,2022.2.4,Win32,62.89703755,Chrome,1536,864,,,,,0,675,,,,,,,,,,,,,,,,,132,B,circle,1,0,,,2,,,,,,,,,,,,,repeat,letter,lettRpt,j,0.7887,vtsPrac,3,0,3,0,1,,,,,,,,,,,,,,,,,,,,,,,
297808,2022-10-04_11h38.27.497,vts_reward_expectancy,2022.2.4,Win32,62.89703755,Chrome,1536,864,,,,,0,675,,,,,,,,,,,,,,,,,174,H,circle,1,0,,,2,,,,,,,,,,,,,switch,number,numSwt,f,0.862,vtsPrac,4,0,4,0,1,,,,,,,,,,,,,,,,,,,,,,,
297808,2022-10-04_11h38.27.497,vts_reward_expectancy,2022.2.4,Win32,62.89703755,Chrome,1536,864,,,,,0,675,,,,,,,,,,,,,,,,,167,S,hexagon,1,0,,,2,,,,,,,,,,,,,switch,letter,lettSwt,k,1.2156,vtsPrac,5,0,5,0,1,,,,,,,,,,,,,,,,,,,,,,,
297808,2022-10-04_11h38.27.497,vts_reward_expectancy,2022.2.4,Win32,62.89703755,Chrome,1536,864,,,,,0,675,,,,,,,,,,,,,,,,,139,D,star,1,0,,,2,,,,,,,,,,,,,switch,number,numSwt,d,0.9353,vtsPrac,6,0,6,0,1,,,,,,,,,,,,,,,,,,,,,,,
297808,2022-10-04_11h38.27.497,vts_reward_expectancy,2022.2.4,Win32,62.89703755,Chrome,1536,864,,,,,0,675,,,,,,,,,,,,,,,,,132,B,circle,1,0,,,2,,,,,,,,,,,,,repeat,number,numRpt,d,0.8309,vtsPrac,7,0,7,0,1,,,,,,,,,,,,,,,,,,,,,,,
297808,2022-10-04_11h38.27.497,vts_reward_expectancy,2022.2.4,Win32,62.89703755,Chrome,1536,864,,,,,0,675,,,,,,,,,,,,,,,,,125,B,triangle,1,0,,,2,,,,,,,,,,,,,switch,letter,lettSwt,j,1.4295,vtsPrac,8,0,8,0,1,,,,,,,,,,,,,,,,,,,,,,,
297808,2022-10-04_11h38.27.497,vts_reward_expectancy,2022.2.4,Win32,62.89703755,Chrome,1536,864,,,,,0,675,,,,,,,,,,,,,,,,,167,F,hexagon,1,0,,,2,,,,,,,,,,,,,repeat,letter,lettRpt,j,1.0799,vtsPrac,9,0,9,0,1,,,,,,,,,,,,,,,,,,,,,,,
297808,2022-10-04_11h38.27.497,vts_reward_expectancy,2022.2.4,Win32,62.89703755,Chrome,1536,864,,,,,0,675,,,,,,,,,,,,,,,,,174,S,triangle,1,0,,,2,,,,,,,,,,,,,switch,number,numSwt,f,0.9631,vtsPrac,10,0,10,0,1,,,,,,,,,,,,,,,,,,,,,,,
297808,2022-10-04_11h38.27.497,vts_reward_expectancy,2022.2.4,Win32,62.89703755,Chrome,1536,864,,,,,0,675,,,,,,,,,,,,,,,,,181,H,hexagon,1,0,,,2,,,,,,,,,,,,,repeat,number,numRpt,f,0.7449,vtsPrac,11,0,11,0,1,,,,,,,,,,,,,,,,,,,,,,,
297808,2022-10-04_11h38.27.497,vts_reward_expectancy,2022.2.4,Win32,62.89703755,Chrome,1536,864,,,,,0,675,,,,,,,,,,,,,,,,,146,F,hexagon,1,0,,,2,,,,,,,,,,,,,switch,letter,lettSwt,j,0.8665,vtsPrac,12,0,12,0,1,,,,,,,,,,,,,,,,,,,,,,,
297808,2022-10-04_11h38.27.497,vts_reward_expectancy,2022.2.4,Win32,62.89703755,Chrome,1536,864,,,,,0,675,,,,,,,,,,,,,,,,,132,W,triangle,1,0,,,2,,,,,,,,,,,,,switch,number,numSwt,d,1.1985,vtsPrac,13,0,13,0,1,,,,,,,,,,,,,,,,,,,,,,,
297808,2022-10-04_11h38.27.497,vts_reward_expectancy,2022.2.4,Win32,62.89703755,Chrome,1536,864,,,,,0,675,,,,,,,,,,,,,,,,,167,B,circle,1,0,,,2,,,,,,,,,,,,,switch,letter,lettSwt,j,0.9956,vtsPrac,14,0,14,0,1,,,,,,,,,,,,,,,,,,,,,,,
297808,2022-10-04_11h38.27.497,vts_reward_expectancy,2022.2.4,Win32,62.89703755,Chrome,1536,864,,,,,0,675,,,,,,,,,,,,,,,,,160,H,star,1,0,,,2,,,,,,,,,,,,,switch,number,numSwt,f,1.8025,vtsPrac,15,0,15,0,1,,,,,,,,,,,,,,,,,,,,,,,
297808,2022-10-04_11h38.27.497,vts_reward_expectancy,2022.2.4,Win32,62.89703755,Chrome,1536,864,,,,,,,,,,,,,,,,,,,,,,,,,,,,,,,,,,,,,,,,,,,,,,,,,,,,,,,,,,,,,,,,,,,,,,,,,,,,
297808,2022-10-04_11h38.27.497,vts_reward_expectancy,2022.2.4,Win32,62.89703755,Chrome,1536,864,,,,,,,,,,,,,,,,,,,,,,,,,,,,,,,,,,,,,,,,,,,,,,,,,,,,,,,,,,,,,,,,,,,,,,,,,,,,
297808,2022-10-04_11h38.27.497,vts_reward_expectancy,2022.2.4,Win32,62.89703755,Chrome,1536,864,,,,,0,675,,,,,,,,,,,,,,,,,125,F,triangle,1,0,,,,,,,,,,,,,,,,repeat,number,numRpt,d,0.8425,noRew,,,,,,0,0,0,0,0,1,,,,,,,,,,,,,,,,,
297808,2022-10-04_11h38.27.497,vts_reward_expectancy,2022.2.4,Win32,62.89703755,Chrome,1536,864,,,,,0,675,,,,,,,,,,,,,,,,,167,W,hexagon,1,0,,,,,,,,,,,,,,,,repeat,number,numRpt,f,0.9974,noRew,,,,,,0,1,0,1,0,1,,,,,,,,,,,,,,,,,
297808,2022-10-04_11h38.27.497,vts_reward_expectancy,2022.2.4,Win32,62.89703755,Chrome,1536,864,,,,,0,675,,,,,,,,,,,,,,,,,181,U,triangle,1,0,,,,,,,,,,,,,,,,switch,letter,lettSwt,k,0.9511,noRew,,,,,,0,2,0,2,0,1,,,,,,,,,,,,,,,,,
297808,2022-10-04_11h38.27.497,vts_reward_expectancy,2022.2.4,Win32,62.89703755,Chrome,1536,864,,,,,0,675,,,,,,,,,,,,,,,,,139,H,hexagon,1,0,,,,,,,,,,,,,,,,repeat,letter,lettRpt,j,1.6935,noRew,,,,,,0,3,0,3,0,1,,,,,,,,,,,,,,,,,
297808,2022-10-04_11h38.27.497,vts_reward_expectancy,2022.2.4,Win32,62.89703755,Chrome,1536,864,,,,,0,675,,,,,,,,,,,,,,,,,125,F,hexagon,1,0,,,,,,,,,,,,,,,,switch,number,numSwt,d,1.2103,noRew,,,,,,0,4,0,4,0,1,,,,,,,,,,,,,,,,,
297808,2022-10-04_11h38.27.497,vts_reward_expectancy,2022.2.4,Win32,62.89703755,Chrome,1536,864,,,,,0,675,,,,,,,,,,,,,,,,,167,W,star,1,0,,,,,,,,,,,,,,,,repeat,number,numRpt,f,1.0622,noRew,,,,,,0,5,0,5,0,1,,,,,,,,,,,,,,,,,
297808,2022-10-04_11h38.27.497,vts_reward_expectancy,2022.2.4,Win32,62.89703755,Chrome,1536,864,,,,,0,675,,,,,,,,,,,,,,,,,181,U,star,1,0,,,,,,,,,,,,,,,,switch,letter,lettSwt,k,0.6455,noRew,,,,,,0,6,0,6,0,1,,,,,,,,,,,,,,,,,
297808,2022-10-04_11h38.27.497,vts_reward_expectancy,2022.2.4,Win32,62.89703755,Chrome,1536,864,,,,,0,675,,,,,,,,,,,,,,,,,139,H,circle,1,0,,,,,,,,,,,,,,,,repeat,letter,lettRpt,j,0.9189,noRew,,,,,,0,7,0,7,0,1,,,,,,,,,,,,,,,,,
297808,2022-10-04_11h38.27.497,vts_reward_expectancy,2022.2.4,Win32,62.89703755,Chrome,1536,864,,,,,0,675,,,,,,,,,,,,,,,,,181,B,hexagon,1,0,,,,,,,,,,,,,,,,switch,number,numSwt,f,0.7459,noRew,,,,,,0,8,0,8,0,1,,,,,,,,,,,,,,,,,
297808,2022-10-04_11h38.27.497,vts_reward_expectancy,2022.2.4,Win32,62.89703755,Chrome,1536,864,,,,,0,675,,,,,,,,,,,,,,,,,167,U,triangle,1,0,,,,,,,,,,,,,,,,switch,letter,lettSwt,k,0.607,noRew,,,,,,0,9,0,9,0,1,,,,,,,,,,,,,,,,,
297808,2022-10-04_11h38.27.497,vts_reward_expectancy,2022.2.4,Win32,62.89703755,Chrome,1536,864,,,,,0,675,,,,,,,,,,,,,,,,,146,Y,triangle,1,0,,,,,,,,,,,,,,,,repeat,letter,lettRpt,k,1.4465,noRew,,,,,,0,10,0,10,0,1,,,,,,,,,,,,,,,,,
297808,2022-10-04_11h38.27.497,vts_reward_expectancy,2022.2.4,Win32,62.89703755,Chrome,1536,864,,,,,0,675,,,,,,,,,,,,,,,,,174,S,star,1,0,,,,,,,,,,,,,,,,switch,number,numSwt,f,0.9289,noRew,,,,,,0,11,0,11,0,1,,,,,,,,,,,,,,,,,
297808,2022-10-04_11h38.27.497,vts_reward_expectancy,2022.2.4,Win32,62.89703755,Chrome,1536,864,,,,,0,675,,,,,,,,,,,,,,,,,132,H,circle,1,0,,,,,,,,,,,,,,,,repeat,number,numRpt,d,0.7132,noRew,,,,,,0,12,0,12,0,1,,,,,,,,,,,,,,,,,
297808,2022-10-04_11h38.27.497,vts_reward_expectancy,2022.2.4,Win32,62.89703755,Chrome,1536,864,,,,,0,675,,,,,,,,,,,,,,,,,181,D,hexagon,0,0,,,,,,,,,,,,,,,,switch,letter,NA,k,1.8971,noRew,,,,,,0,13,0,13,0,1,,,,,,,,,,,,,,,,,
297808,2022-10-04_11h38.27.497,vts_reward_expectancy,2022.2.4,Win32,62.89703755,Chrome,1536,864,,,,,0,675,,,,,,,,,,,,,,,,,167,W,hexagon,1,1,,,,,,,,,,,,,,,,switch,number,numSwt,f,0.8617,noRew,,,,,,0,14,0,14,0,1,,,,,,,,,,,,,,,,,
297808,2022-10-04_11h38.27.497,vts_reward_expectancy,2022.2.4,Win32,62.89703755,Chrome,1536,864,,,,,0,675,,,,,,,,,,,,,,,,,139,B,triangle,1,0,,,,,,,,,,,,,,,,switch,letter,lettSwt,j,0.7139,noRew,,,,,,0,15,0,15,0,1,,,,,,,,,,,,,,,,,
297808,2022-10-04_11h38.27.497,vts_reward_expectancy,2022.2.4,Win32,62.89703755,Chrome,1536,864,,,,,0,675,,,,,,,,,,,,,,,,,167,S,triangle,1,0,,,,,,,,,,,,,,,,switch,number,numSwt,f,0.8663,noRew,,,,,,0,16,0,16,0,1,,,,,,,,,,,,,,,,,
297808,2022-10-04_11h38.27.497,vts_reward_expectancy,2022.2.4,Win32,62.89703755,Chrome,1536,864,,,,,0,675,,,,,,,,,,,,,,,,,160,F,star,1,0,,,,,,,,,,,,,,,,switch,letter,lettSwt,j,1.022,noRew,,,,,,0,17,0,17,0,1,,,,,,,,,,,,,,,,,
297808,2022-10-04_11h38.27.497,vts_reward_expectancy,2022.2.4,Win32,62.89703755,Chrome,1536,864,,,,,0,675,,,,,,,,,,,,,,,,,181,W,star,1,0,,,,,,,,,,,,,,,,switch,number,numSwt,f,1.7708,noRew,,,,,,0,18,0,18,0,1,,,,,,,,,,,,,,,,,
297808,2022-10-04_11h38.27.497,vts_reward_expectancy,2022.2.4,Win32,62.89703755,Chrome,1536,864,,,,,0,675,,,,,,,,,,,,,,,,,132,H,circle,1,0,,,,,,,,,,,,,,,,switch,letter,lettSwt,j,0.783,noRew,,,,,,0,19,0,19,0,1,,,,,,,,,,,,,,,,,
297808,2022-10-04_11h38.27.497,vts_reward_expectancy,2022.2.4,Win32,62.89703755,Chrome,1536,864,,,,,0,675,,,,,,,,,,,,,,,,,146,W,circle,1,0,,,,,,,,,,,,,,,,switch,number,numSwt,d,0.9124,noRew,,,,,,0,20,0,20,0,1,,,,,,,,,,,,,,,,,
297808,2022-10-04_11h38.27.497,vts_reward_expectancy,2022.2.4,Win32,62.89703755,Chrome,1536,864,,,,,0,675,,,,,,,,,,,,,,,,,125,F,star,1,0,,,,,,,,,,,,,,,,switch,letter,lettSwt,j,0.9947,noRew,,,,,,0,21,0,21,0,1,,,,,,,,,,,,,,,,,
297808,2022-10-04_11h38.27.497,vts_reward_expectancy,2022.2.4,Win32,62.89703755,Chrome,1536,864,,,,,0,675,,,,,,,,,,,,,,,,,139,D,hexagon,1,0,,,,,,,,,,,,,,,,switch,number,numSwt,d,1.5225,noRew,,,,,,0,22,0,22,0,1,,,,,,,,,,,,,,,,,
297808,2022-10-04_11h38.27.497,vts_reward_expectancy,2022.2.4,Win32,62.89703755,Chrome,1536,864,,,,,0,675,,,,,,,,,,,,,,,,,181,S,triangle,1,0,,,,,,,,,,,,,,,,repeat,number,numRpt,f,0.5687,noRew,,,,,,0,23,0,23,0,1,,,,,,,,,,,,,,,,,
297808,2022-10-04_11h38.27.497,vts_reward_expectancy,2022.2.4,Win32,62.89703755,Chrome,1536,864,,,,,0,675,,,,,,,,,,,,,,,,,167,W,triangle,1,0,,,,,,,,,,,,,,,,switch,letter,lettSwt,k,0.7511,noRew,,,,,,0,24,0,24,0,1,,,,,,,,,,,,,,,,,
297808,2022-10-04_11h38.27.497,vts_reward_expectancy,2022.2.4,Win32,62.89703755,Chrome,1536,864,,,,,0,675,,,,,,,,,,,,,,,,,160,H,circle,1,0,,,,,,,,,,,,,,,,repeat,letter,lettRpt,j,0.9691,noRew,,,,,,0,25,0,25,0,1,,,,,,,,,,,,,,,,,
297808,2022-10-04_11h38.27.497,vts_reward_expectancy,2022.2.4,Win32,62.89703755,Chrome,1536,864,,,,,0,675,,,,,,,,,,,,,,,,,181,U,hexagon,1,0,,,,,,,,,,,,,,,,switch,number,numSwt,f,0.9282,noRew,,,,,,0,26,0,26,0,1,,,,,,,,,,,,,,,,,
297808,2022-10-04_11h38.27.497,vts_reward_expectancy,2022.2.4,Win32,62.89703755,Chrome,1536,864,,,,,0,675,,,,,,,,,,,,,,,,,146,D,circle,1,0,,,,,,,,,,,,,,,,repeat,number,numRpt,d,1.1342,noRew,,,,,,0,27,0,27,0,1,,,,,,,,,,,,,,,,,
297808,2022-10-04_11h38.27.497,vts_reward_expectancy,2022.2.4,Win32,62.89703755,Chrome,1536,864,,,,,0,675,,,,,,,,,,,,,,,,,125,U,triangle,1,0,,,,,,,,,,,,,,,,switch,letter,lettSwt,k,1.1457,noRew,,,,,,0,28,0,28,0,1,,,,,,,,,,,,,,,,,
297808,2022-10-04_11h38.27.497,vts_reward_expectancy,2022.2.4,Win32,62.89703755,Chrome,1536,864,,,,,0,675,,,,,,,,,,,,,,,,,139,F,hexagon,1,0,,,,,,,,,,,,,,,,switch,number,numSwt,d,0.8455,noRew,,,,,,0,29,0,29,0,1,,,,,,,,,,,,,,,,,
297808,2022-10-04_11h38.27.497,vts_reward_expectancy,2022.2.4,Win32,62.89703755,Chrome,1536,864,,,,,0,675,,,,,,,,,,,,,,,,,167,D,hexagon,1,0,,,,,,,,,,,,,,,,switch,letter,lettSwt,j,0.8876,noRew,,,,,,0,30,0,30,0,1,,,,,,,,,,,,,,,,,
297808,2022-10-04_11h38.27.497,vts_reward_expectancy,2022.2.4,Win32,62.89703755,Chrome,1536,864,,,,,0,675,,,,,,,,,,,,,,,,,174,H,star,1,0,,,,,,,,,,,,,,,,switch,number,numSwt,f,0.6639,noRew,,,,,,0,31,0,31,0,1,,,,,,,,,,,,,,,,,
297808,2022-10-04_11h38.27.497,vts_reward_expectancy,2022.2.4,Win32,62.89703755,Chrome,1536,864,,,,,0,675,,,,,,,,,,,,,,,,,132,H,star,1,0,,,,,,,,,,,,,,,,repeat,number,numRpt,d,1.0998,noRew,,,,,,0,32,0,32,0,1,,,,,,,,,,,,,,,,,
297808,2022-10-04_11h38.27.497,vts_reward_expectancy,2022.2.4,Win32,62.89703755,Chrome,1536,864,,,,,0,675,,,,,,,,,,,,,,,,,139,B,hexagon,1,0,,,,,,,,,,,,,,,,switch,letter,lettSwt,j,0.9131,noRew,,,,,,0,33,0,33,0,1,,,,,,,,,,,,,,,,,
297808,2022-10-04_11h38.27.497,vts_reward_expectancy,2022.2.4,Win32,62.89703755,Chrome,1536,864,,,,,0,675,,,,,,,,,,,,,,,,,167,F,circle,1,0,,,,,,,,,,,,,,,,repeat,letter,lettRpt,j,0.7119,noRew,,,,,,0,34,0,34,0,1,,,,,,,,,,,,,,,,,
297808,2022-10-04_11h38.27.497,vts_reward_expectancy,2022.2.4,Win32,62.89703755,Chrome,1536,864,,,,,0,675,,,,,,,,,,,,,,,,,125,W,hexagon,1,0,,,,,,,,,,,,,,,,switch,number,numSwt,d,0.7129,noRew,,,,,,0,35,0,35,0,1,,,,,,,,,,,,,,,,,
297808,2022-10-04_11h38.27.497,vts_reward_expectancy,2022.2.4,Win32,62.89703755,Chrome,1536,864,,,,,0,675,,,,,,,,,,,,,,,,,146,B,hexagon,1,0,,,,,,,,,,,,,,,,repeat,number,numRpt,d,0.8824,noRew,,,,,,0,36,0,36,0,1,,,,,,,,,,,,,,,,,
297808,2022-10-04_11h38.27.497,vts_reward_expectancy,2022.2.4,Win32,62.89703755,Chrome,1536,864,,,,,0,675,,,,,,,,,,,,,,,,,139,W,star,1,0,,,,,,,,,,,,,,,,switch,letter,lettSwt,k,1.0172,noRew,,,,,,0,37,0,37,0,1,,,,,,,,,,,,,,,,,
297808,2022-10-04_11h38.27.497,vts_reward_expectancy,2022.2.4,Win32,62.89703755,Chrome,1536,864,,,,,0,675,,,,,,,,,,,,,,,,,167,Y,star,1,0,,,,,,,,,,,,,,,,repeat,letter,lettRpt,k,1.0302,noRew,,,,,,0,38,0,38,0,1,,,,,,,,,,,,,,,,,
297808,2022-10-04_11h38.27.497,vts_reward_expectancy,2022.2.4,Win32,62.89703755,Chrome,1536,864,,,,,0,675,,,,,,,,,,,,,,,,,160,F,hexagon,0,0,,,,,,,,,,,,,,,,repeat,letter,NA,k,2.186,noRew,,,,,,0,39,0,39,0,1,,,,,,,,,,,,,,,,,
297808,2022-10-04_11h38.27.497,vts_reward_expectancy,2022.2.4,Win32,62.89703755,Chrome,1536,864,,,,,0,675,,,,,,,,,,,,,,,,,160,B,hexagon,1,1,,,,,,,,,,,,,,,,switch,number,numSwt,f,0.9188,noRew,,,,,,0,40,0,40,0,1,,,,,,,,,,,,,,,,,
297808,2022-10-04_11h38.27.497,vts_reward_expectancy,2022.2.4,Win32,62.89703755,Chrome,1536,864,,,,,0,675,,,,,,,,,,,,,,,,,146,W,triangle,1,0,,,,,,,,,,,,,,,,switch,letter,lettSwt,k,0.6289,noRew,,,,,,0,41,0,41,0,1,,,,,,,,,,,,,,,,,
297808,2022-10-04_11h38.27.497,vts_reward_expectancy,2022.2.4,Win32,62.89703755,Chrome,1536,864,,,,,0,675,,,,,,,,,,,,,,,,,139,S,circle,1,0,,,,,,,,,,,,,,,,switch,number,numSwt,d,0.8542,noRew,,,,,,0,42,0,42,0,1,,,,,,,,,,,,,,,,,
297808,2022-10-04_11h38.27.497,vts_reward_expectancy,2022.2.4,Win32,62.89703755,Chrome,1536,864,,,,,0,675,,,,,,,,,,,,,,,,,132,U,triangle,1,0,,,,,,,,,,,,,,,,repeat,number,numRpt,d,0.7347,noRew,,,,,,0,43,0,43,0,1,,,,,,,,,,,,,,,,,
297808,2022-10-04_11h38.27.497,vts_reward_expectancy,2022.2.4,Win32,62.89703755,Chrome,1536,864,,,,,0,675,,,,,,,,,,,,,,,,,132,U,circle,1,0,,,,,,,,,,,,,,,,switch,letter,lettSwt,k,0.5376,noRew,,,,,,0,44,0,44,0,1,,,,,,,,,,,,,,,,,
297808,2022-10-04_11h38.27.497,vts_reward_expectancy,2022.2.4,Win32,62.89703755,Chrome,1536,864,,,,,0,675,,,,,,,,,,,,,,,,,125,W,star,1,0,,,,,,,,,,,,,,,,repeat,letter,lettRpt,k,0.7775,noRew,,,,,,0,45,0,45,0,1,,,,,,,,,,,,,,,,,
297808,2022-10-04_11h38.27.497,vts_reward_expectancy,2022.2.4,Win32,62.89703755,Chrome,1536,864,,,,,0,675,,,,,,,,,,,,,,,,,181,H,circle,1,0,,,,,,,,,,,,,,,,switch,number,numSwt,f,0.9049,noRew,,,,,,0,46,0,46,0,1,,,,,,,,,,,,,,,,,
297808,2022-10-04_11h38.27.497,vts_reward_expectancy,2022.2.4,Win32,62.89703755,Chrome,1536,864,,,,,0,675,,,,,,,,,,,,,,,,,139,B,star,1,0,,,,,,,,,,,,,,,,repeat,number,numRpt,d,0.7571,noRew,,,,,,0,47,0,47,0,1,,,,,,,,,,,,,,,,,
297808,2022-10-04_11h38.27.497,vts_reward_expectancy,2022.2.4,Win32,62.89703755,Chrome,1536,864,,,,,0,675,,,,,,,,,,,,,,,,,181,Y,hexagon,1,0,,,,,,,,,,,,,,,,switch,letter,lettSwt,k,1.6949,noRew,,,,,,0,48,0,48,0,1,,,,,,,,,,,,,,,,,
297808,2022-10-04_11h38.27.497,vts_reward_expectancy,2022.2.4,Win32,62.89703755,Chrome,1536,864,,,,,0,675,,,,,,,,,,,,,,,,,167,W,triangle,1,0,,,,,,,,,,,,,,,,switch,number,numSwt,f,0.8133,noRew,,,,,,0,49,0,49,0,1,,,,,,,,,,,,,,,,,
297808,2022-10-04_11h38.27.497,vts_reward_expectancy,2022.2.4,Win32,62.89703755,Chrome,1536,864,,,,,0,675,,,,,,,,,,,,,,,,,125,H,hexagon,1,0,,,,,,,,,,,,,,,,switch,letter,lettSwt,j,0.8663,noRew,,,,,,0,50,0,50,0,1,,,,,,,,,,,,,,,,,
297808,2022-10-04_11h38.27.497,vts_reward_expectancy,2022.2.4,Win32,62.89703755,Chrome,1536,864,,,,,0,675,,,,,,,,,,,,,,,,,139,D,star,1,0,,,,,,,,,,,,,,,,repeat,letter,lettRpt,j,0.824,noRew,,,,,,0,51,0,51,0,1,,,,,,,,,,,,,,,,,
297808,2022-10-04_11h38.27.497,vts_reward_expectancy,2022.2.4,Win32,62.89703755,Chrome,1536,864,,,,,0,675,,,,,,,,,,,,,,,,,167,W,hexagon,1,0,,,,,,,,,,,,,,,,repeat,letter,lettRpt,k,0.895,noRew,,,,,,0,52,0,52,0,1,,,,,,,,,,,,,,,,,
297808,2022-10-04_11h38.27.497,vts_reward_expectancy,2022.2.4,Win32,62.89703755,Chrome,1536,864,,,,,0,675,,,,,,,,,,,,,,,,,160,D,star,0,0,,,,,,,,,,,,,,,,switch,number,NA,d,0.8575,noRew,,,,,,0,53,0,53,0,1,,,,,,,,,,,,,,,,,
297808,2022-10-04_11h38.27.497,vts_reward_expectancy,2022.2.4,Win32,62.89703755,Chrome,1536,864,,,,,0,675,,,,,,,,,,,,,,,,,125,F,star,1,1,,,,,,,,,,,,,,,,repeat,number,numRpt,d,0.7316,noRew,,,,,,0,54,0,54,0,1,,,,,,,,,,,,,,,,,
297808,2022-10-04_11h38.27.497,vts_reward_expectancy,2022.2.4,Win32,62.89703755,Chrome,1536,864,,,,,0,675,,,,,,,,,,,,,,,,,174,B,triangle,1,0,,,,,,,,,,,,,,,,repeat,number,numRpt,f,1.2655,noRew,,,,,,0,55,0,55,0,1,,,,,,,,,,,,,,,,,
297808,2022-10-04_11h38.27.497,vts_reward_expectancy,2022.2.4,Win32,62.89703755,Chrome,1536,864,,,,,0,675,,,,,,,,,,,,,,,,,139,S,triangle,1,0,,,,,,,,,,,,,,,,switch,letter,lettSwt,k,1.3794,noRew,,,,,,0,56,0,56,0,1,,,,,,,,,,,,,,,,,
297808,2022-10-04_11h38.27.497,vts_reward_expectancy,2022.2.4,Win32,62.89703755,Chrome,1536,864,,,,,0,675,,,,,,,,,,,,,,,,,174,W,circle,1,0,,,,,,,,,,,,,,,,repeat,letter,lettRpt,k,0.7358,noRew,,,,,,0,57,0,57,0,1,,,,,,,,,,,,,,,,,
297808,2022-10-04_11h38.27.497,vts_reward_expectancy,2022.2.4,Win32,62.89703755,Chrome,1536,864,,,,,0,675,,,,,,,,,,,,,,,,,146,H,triangle,1,0,,,,,,,,,,,,,,,,switch,number,numSwt,d,1.164,noRew,,,,,,0,58,0,58,0,1,,,,,,,,,,,,,,,,,
297808,2022-10-04_11h38.27.497,vts_reward_expectancy,2022.2.4,Win32,62.89703755,Chrome,1536,864,,,,,0,675,,,,,,,,,,,,,,,,,132,U,hexagon,1,0,,,,,,,,,,,,,,,,repeat,number,numRpt,d,0.8535,noRew,,,,,,0,59,0,59,0,1,,,,,,,,,,,,,,,,,
297808,2022-10-04_11h38.27.497,vts_reward_expectancy,2022.2.4,Win32,62.89703755,Chrome,1536,864,,,,,0,675,,,,,,,,,,,,,,,,,167,S,triangle,1,0,,,,,,,,,,,,,,,,repeat,number,numRpt,f,0.829,noRew,,,,,,0,60,0,60,0,1,,,,,,,,,,,,,,,,,
297808,2022-10-04_11h38.27.497,vts_reward_expectancy,2022.2.4,Win32,62.89703755,Chrome,1536,864,,,,,0,675,,,,,,,,,,,,,,,,,139,U,circle,1,0,,,,,,,,,,,,,,,,switch,letter,lettSwt,k,0.6148,noRew,,,,,,0,61,0,61,0,1,,,,,,,,,,,,,,,,,
297808,2022-10-04_11h38.27.497,vts_reward_expectancy,2022.2.4,Win32,62.89703755,Chrome,1536,864,,,,,0,675,,,,,,,,,,,,,,,,,174,B,circle,1,0,,,,,,,,,,,,,,,,repeat,letter,lettRpt,j,0.7556,noRew,,,,,,0,62,0,62,0,1,,,,,,,,,,,,,,,,,
297808,2022-10-04_11h38.27.497,vts_reward_expectancy,2022.2.4,Win32,62.89703755,Chrome,1536,864,,,,,0,675,,,,,,,,,,,,,,,,,132,D,star,1,0,,,,,,,,,,,,,,,,switch,number,numSwt,d,0.7179,noRew,,,,,,0,63,0,63,0,1,,,,,,,,,,,,,,,,,
297808,2022-10-04_11h38.27.497,vts_reward_expectancy,2022.2.4,Win32,62.89703755,Chrome,1536,864,,,,,,,,,,,,,,,,,,,,,,,,,,,,,,,,,,,,,,,,,,,,,,,,,,,,,,,,,,,,,,,,,,,,,,,,,,,,
297808,2022-10-04_11h38.27.497,vts_reward_expectancy,2022.2.4,Win32,62.89703755,Chrome,1536,864,,,,,0,675,,,,,,,,,,,,,,,,,146,F,triangle,1,0,,,,,,,,,,,,,,,,repeat,number,numRpt,d,1.0868,Hi,,,,,,0,,,,,,space,10.7653,high,0,0,0,0,1,,,,,,,,,
297808,2022-10-04_11h38.27.497,vts_reward_expectancy,2022.2.4,Win32,62.89703755,Chrome,1536,864,,,,,1,676,,,,,,,,,,,,,,,,,132,S,hexagon,1,0,,,,,,,,,,,,,,,,repeat,number,numRpt,d,0.7635,Lo,,,,,,0,,,,,,,,high,1,0,1,0,1,,,,,,,,,
297808,2022-10-04_11h38.27.497,vts_reward_expectancy,2022.2.4,Win32,62.89703755,Chrome,1536,864,,,,,0,676,,,,,,,,,,,,,,,,,139,H,triangle,1,0,,,,,,,,,,,,,,,,switch,letter,lettSwt,j,0.9787,Hi,,,,,,0,,,,,,,,high,2,0,2,0,1,,,,,,,,,
297808,2022-10-04_11h38.27.497,vts_reward_expectancy,2022.2.4,Win32,62.89703755,Chrome,1536,864,,,,,10,686,,,,,,,,,,,,,,,,,174,D,hexagon,1,0,,,,,,,,,,,,,,,,switch,number,numSwt,f,0.638,Lo,,,,,,0,,,,,,,,high,3,0,3,0,1,,,,,,,,,
297808,2022-10-04_11h38.27.497,vts_reward_expectancy,2022.2.4,Win32,62.89703755,Chrome,1536,864,,,,,10,696,,,,,,,,,,,,,,,,,167,Y,triangle,1,0,,,,,,,,,,,,,,,,repeat,number,numRpt,f,0.6461,Hi,,,,,,0,,,,,,,,high,4,0,4,0,1,,,,,,,,,
297808,2022-10-04_11h38.27.497,vts_reward_expectancy,2022.2.4,Win32,62.89703755,Chrome,1536,864,,,,,10,706,,,,,,,,,,,,,,,,,181,B,hexagon,1,0,,,,,,,,,,,,,,,,switch,letter,lettSwt,j,0.5285,Lo,,,,,,0,,,,,,,,high,5,0,5,0,1,,,,,,,,,
297808,2022-10-04_11h38.27.497,vts_reward_expectancy,2022.2.4,Win32,62.89703755,Chrome,1536,864,,,,,1,707,,,,,,,,,,,,,,,,,160,W,hexagon,1,0,,,,,,,,,,,,,,,,repeat,letter,lettRpt,k,0.7546,Lo,,,,,,0,,,,,,,,high,6,0,6,0,1,,,,,,,,,
297808,2022-10-04_11h38.27.497,vts_reward_expectancy,2022.2.4,Win32,62.89703755,Chrome,1536,864,,,,,10,717,,,,,,,,,,,,,,,,,125,U,triangle,1,0,,,,,,,,,,,,,,,,switch,number,numSwt,d,0.5941,Hi,,,,,,0,,,,,,,,high,7,0,7,0,1,,,,,,,,,
297808,2022-10-04_11h38.27.497,vts_reward_expectancy,2022.2.4,Win32,62.89703755,Chrome,1536,864,,,,,10,727,,,,,,,,,,,,,,,,,146,F,triangle,1,0,,,,,,,,,,,,,,,,repeat,number,numRpt,d,0.5206,Hi,,,,,,0,,,,,,,,high,8,0,8,0,1,,,,,,,,,
297808,2022-10-04_11h38.27.497,vts_reward_expectancy,2022.2.4,Win32,62.89703755,Chrome,1536,864,,,,,1,728,,,,,,,,,,,,,,,,,132,S,hexagon,1,0,,,,,,,,,,,,,,,,repeat,number,numRpt,d,0.4973,Lo,,,,,,0,,,,,,,,high,9,0,9,0,1,,,,,,,,,
297808,2022-10-04_11h38.27.497,vts_reward_expectancy,2022.2.4,Win32,62.89703755,Chrome,1536,864,,,,,0,728,,,,,,,,,,,,,,,,,139,H,triangle,1,0,,,,,,,,,,,,,,,,switch,letter,lettSwt,j,0.9319,Hi,,,,,,0,,,,,,,,high,10,0,10,0,1,,,,,,,,,
297808,2022-10-04_11h38.27.497,vts_reward_expectancy,2022.2.4,Win32,62.89703755,Chrome,1536,864,,,,,1,729,,,,,,,,,,,,,,,,,174,D,hexagon,1,0,,,,,,,,,,,,,,,,repeat,letter,lettRpt,j,0.7128,Lo,,,,,,0,,,,,,,,high,11,0,11,0,1,,,,,,,,,
297808,2022-10-04_11h38.27.497,vts_reward_expectancy,2022.2.4,Win32,62.89703755,Chrome,1536,864,,,,,0,729,,,,,,,,,,,,,,,,,167,Y,triangle,1,0,,,,,,,,,,,,,,,,switch,number,numSwt,f,0.8535,Hi,,,,,,0,,,,,,,,high,12,0,12,0,1,,,,,,,,,
297808,2022-10-04_11h38.27.497,vts_reward_expectancy,2022.2.4,Win32,62.89703755,Chrome,1536,864,,,,,10,739,,,,,,,,,,,,,,,,,181,B,hexagon,1,0,,,,,,,,,,,,,,,,repeat,number,numRpt,f,0.6293,Lo,,,,,,0,,,,,,,,high,13,0,13,0,1,,,,,,,,,
297808,2022-10-04_11h38.27.497,vts_reward_expectancy,2022.2.4,Win32,62.89703755,Chrome,1536,864,,,,,1,740,,,,,,,,,,,,,,,,,160,W,hexagon,1,0,,,,,,,,,,,,,,,,switch,letter,lettSwt,k,0.5551,Lo,,,,,,0,,,,,,,,high,14,0,14,0,1,,,,,,,,,
297808,2022-10-04_11h38.27.497,vts_reward_expectancy,2022.2.4,Win32,62.89703755,Chrome,1536,864,,,,,1,741,,,,,,,,,,,,,,,,,125,U,triangle,1,0,,,,,,,,,,,,,,,,switch,number,numSwt,d,0.6825,Hi,,,,,,0,,,,,,,,high,15,0,15,0,1,,,,,,,,,
297808,2022-10-04_11h38.27.497,vts_reward_expectancy,2022.2.4,Win32,62.89703755,Chrome,1536,864,,,,,10,751,,,,,,,,,,,,,,,,,160,B,triangle,1,0,,,,,,,,,,,,,,,,repeat,number,numRpt,f,0.6795,Hi,,,,,,0,,,,,,,,high,16,0,16,0,1,,,,,,,,,
297808,2022-10-04_11h38.27.497,vts_reward_expectancy,2022.2.4,Win32,62.89703755,Chrome,1536,864,,,,,1,752,,,,,,,,,,,,,,,,,167,Y,hexagon,1,0,,,,,,,,,,,,,,,,switch,letter,lettSwt,k,0.6235,Lo,,,,,,0,,,,,,,,high,17,0,17,0,1,,,,,,,,,
297808,2022-10-04_11h38.27.497,vts_reward_expectancy,2022.2.4,Win32,62.89703755,Chrome,1536,864,,,,,1,753,,,,,,,,,,,,,,,,,125,D,hexagon,1,0,,,,,,,,,,,,,,,,switch,number,numSwt,d,0.6491,Lo,,,,,,0,,,,,,,,high,18,0,18,0,1,,,,,,,,,
297808,2022-10-04_11h38.27.497,vts_reward_expectancy,2022.2.4,Win32,62.89703755,Chrome,1536,864,,,,,1,754,,,,,,,,,,,,,,,,,181,F,triangle,1,0,,,,,,,,,,,,,,,,switch,letter,lettSwt,j,0.6808,Hi,,,,,,0,,,,,,,,high,19,0,19,0,1,,,,,,,,,
297808,2022-10-04_11h38.27.497,vts_reward_expectancy,2022.2.4,Win32,62.89703755,Chrome,1536,864,,,,,10,764,,,,,,,,,,,,,,,,,132,S,triangle,1,0,,,,,,,,,,,,,,,,switch,number,numSwt,d,0.5788,Hi,,,,,,0,,,,,,,,high,20,0,20,0,1,,,,,,,,,
297808,2022-10-04_11h38.27.497,vts_reward_expectancy,2022.2.4,Win32,62.89703755,Chrome,1536,864,,,,,0,764,,,,,,,,,,,,,,,,,174,H,hexagon,0,0,,,,,,,,,,,,,,,,repeat,number,NA,d,0.434,Hi,,,,,,0,,,,,,,,high,21,0,21,0,1,,,,,,,,,
297808,2022-10-04_11h38.27.497,vts_reward_expectancy,2022.2.4,Win32,62.89703755,Chrome,1536,864,,,,,10,774,,,,,,,,,,,,,,,,,146,W,triangle,1,1,,,,,,,,,,,,,,,,repeat,number,numRpt,d,0.6127,Hi,,,,,,0,,,,,,,,high,22,0,22,0,1,,,,,,,,,
297808,2022-10-04_11h38.27.497,vts_reward_expectancy,2022.2.4,Win32,62.89703755,Chrome,1536,864,,,,,1,775,,,,,,,,,,,,,,,,,139,U,hexagon,1,0,,,,,,,,,,,,,,,,switch,letter,lettSwt,k,0.579,Lo,,,,,,0,,,,,,,,high,23,0,23,0,1,,,,,,,,,
297808,2022-10-04_11h38.27.497,vts_reward_expectancy,2022.2.4,Win32,62.89703755,Chrome,1536,864,,,,,10,785,,,,,,,,,,,,,,,,,125,D,hexagon,1,0,,,,,,,,,,,,,,,,switch,number,numSwt,d,0.5793,Lo,,,,,,0,,,,,,,,high,24,0,24,0,1,,,,,,,,,
297808,2022-10-04_11h38.27.497,vts_reward_expectancy,2022.2.4,Win32,62.89703755,Chrome,1536,864,,,,,10,795,,,,,,,,,,,,,,,,,174,U,triangle,1,0,,,,,,,,,,,,,,,,switch,letter,lettSwt,k,0.4971,Hi,,,,,,0,,,,,,,,high,25,0,25,0,1,,,,,,,,,
297808,2022-10-04_11h38.27.497,vts_reward_expectancy,2022.2.4,Win32,62.89703755,Chrome,1536,864,,,,,0,795,,,,,,,,,,,,,,,,,160,B,hexagon,0,0,,,,,,,,,,,,,,,,switch,number,NA,d,0.4544,Hi,,,,,,0,,,,,,,,high,26,0,26,0,1,,,,,,,,,
297808,2022-10-04_11h38.27.497,vts_reward_expectancy,2022.2.4,Win32,62.89703755,Chrome,1536,864,,,,,10,805,,,,,,,,,,,,,,,,,139,F,triangle,1,1,,,,,,,,,,,,,,,,repeat,number,numRpt,d,0.7321,Hi,,,,,,0,,,,,,,,high,27,0,27,0,1,,,,,,,,,
297808,2022-10-04_11h38.27.497,vts_reward_expectancy,2022.2.4,Win32,62.89703755,Chrome,1536,864,,,,,10,815,,,,,,,,,,,,,,,,,146,Y,hexagon,1,0,,,,,,,,,,,,,,,,switch,letter,lettSwt,k,0.5472,Lo,,,,,,0,,,,,,,,high,28,0,28,0,1,,,,,,,,,
297808,2022-10-04_11h38.27.497,vts_reward_expectancy,2022.2.4,Win32,62.89703755,Chrome,1536,864,,,,,10,825,,,,,,,,,,,,,,,,,181,W,triangle,1,0,,,,,,,,,,,,,,,,repeat,letter,lettRpt,k,0.5877,Hi,,,,,,0,,,,,,,,high,29,0,29,0,1,,,,,,,,,
297808,2022-10-04_11h38.27.497,vts_reward_expectancy,2022.2.4,Win32,62.89703755,Chrome,1536,864,,,,,10,835,,,,,,,,,,,,,,,,,132,H,triangle,1,0,,,,,,,,,,,,,,,,switch,number,numSwt,d,0.6631,Hi,,,,,,0,,,,,,,,high,30,0,30,0,1,,,,,,,,,
297808,2022-10-04_11h38.27.497,vts_reward_expectancy,2022.2.4,Win32,62.89703755,Chrome,1536,864,,,,,10,845,,,,,,,,,,,,,,,,,167,S,hexagon,1,0,,,,,,,,,,,,,,,,repeat,number,numRpt,f,0.5497,Lo,,,,,,0,,,,,,,,high,31,0,31,0,1,,,,,,,,,
297808,2022-10-04_11h38.27.497,vts_reward_expectancy,2022.2.4,Win32,62.89703755,Chrome,1536,864,,,,,0,845,,,,,,,,,,,,,,,,,167,Y,circle,1,0,,,,,,,,,,,,,,,,repeat,number,numRpt,f,0.8024,Hi,,,,,,1,,,,,,space,8.5128,low,0,0,0,0,1,,,,,,,,,
297808,2022-10-04_11h38.27.497,vts_reward_expectancy,2022.2.4,Win32,62.89703755,Chrome,1536,864,,,,,10,855,,,,,,,,,,,,,,,,,146,U,star,1,0,,,,,,,,,,,,,,,,repeat,number,numRpt,d,0.7629,Lo,,,,,,1,,,,,,,,low,1,0,1,0,1,,,,,,,,,
297808,2022-10-04_11h38.27.497,vts_reward_expectancy,2022.2.4,Win32,62.89703755,Chrome,1536,864,,,,,1,856,,,,,,,,,,,,,,,,,139,B,circle,1,0,,,,,,,,,,,,,,,,switch,letter,lettSwt,j,0.5033,Hi,,,,,,1,,,,,,,,low,2,0,2,0,1,,,,,,,,,
297808,2022-10-04_11h38.27.497,vts_reward_expectancy,2022.2.4,Win32,62.89703755,Chrome,1536,864,,,,,10,866,,,,,,,,,,,,,,,,,174,W,star,1,0,,,,,,,,,,,,,,,,repeat,letter,lettRpt,k,0.4554,Lo,,,,,,1,,,,,,,,low,3,0,3,0,1,,,,,,,,,
297808,2022-10-04_11h38.27.497,vts_reward_expectancy,2022.2.4,Win32,62.89703755,Chrome,1536,864,,,,,10,876,,,,,,,,,,,,,,,,,125,H,circle,1,0,,,,,,,,,,,,,,,,switch,number,numSwt,d,0.5131,Hi,,,,,,1,,,,,,,,low,4,0,4,0,1,,,,,,,,,
297808,2022-10-04_11h38.27.497,vts_reward_expectancy,2022.2.4,Win32,62.89703755,Chrome,1536,864,,,,,1,877,,,,,,,,,,,,,,,,,160,F,star,1,0,,,,,,,,,,,,,,,,repeat,number,numRpt,f,0.7053,Lo,,,,,,1,,,,,,,,low,5,0,5,0,1,,,,,,,,,
297808,2022-10-04_11h38.27.497,vts_reward_expectancy,2022.2.4,Win32,62.89703755,Chrome,1536,864,,,,,0,877,,,,,,,,,,,,,,,,,181,D,circle,1,0,,,,,,,,,,,,,,,,switch,letter,lettSwt,j,0.7858,Hi,,,,,,1,,,,,,,,low,6,0,6,0,1,,,,,,,,,
297808,2022-10-04_11h38.27.497,vts_reward_expectancy,2022.2.4,Win32,62.89703755,Chrome,1536,864,,,,,1,878,,,,,,,,,,,,,,,,,132,S,star,1,0,,,,,,,,,,,,,,,,switch,number,numSwt,d,0.6233,Lo,,,,,,1,,,,,,,,low,7,0,7,0,1,,,,,,,,,
297808,2022-10-04_11h38.27.497,vts_reward_expectancy,2022.2.4,Win32,62.89703755,Chrome,1536,864,,,,,10,888,,,,,,,,,,,,,,,,,167,Y,circle,1,0,,,,,,,,,,,,,,,,switch,letter,lettSwt,k,0.4637,Hi,,,,,,1,,,,,,,,low,8,0,8,0,1,,,,,,,,,
297808,2022-10-04_11h38.27.497,vts_reward_expectancy,2022.2.4,Win32,62.89703755,Chrome,1536,864,,,,,1,889,,,,,,,,,,,,,,,,,146,U,star,1,0,,,,,,,,,,,,,,,,switch,number,numSwt,d,0.6655,Lo,,,,,,1,,,,,,,,low,9,0,9,0,1,,,,,,,,,
297808,2022-10-04_11h38.27.497,vts_reward_expectancy,2022.2.4,Win32,62.89703755,Chrome,1536,864,,,,,1,890,,,,,,,,,,,,,,,,,139,B,star,1,0,,,,,,,,,,,,,,,,repeat,number,numRpt,d,0.6555,Lo,,,,,,1,,,,,,,,low,10,0,10,0,1,,,,,,,,,
297808,2022-10-04_11h38.27.497,vts_reward_expectancy,2022.2.4,Win32,62.89703755,Chrome,1536,864,,,,,0,890,,,,,,,,,,,,,,,,,174,W,circle,1,0,,,,,,,,,,,,,,,,repeat,number,numRpt,f,0.7716,Hi,,,,,,1,,,,,,,,low,11,0,11,0,1,,,,,,,,,
297808,2022-10-04_11h38.27.497,vts_reward_expectancy,2022.2.4,Win32,62.89703755,Chrome,1536,864,,,,,0,890,,,,,,,,,,,,,,,,,125,H,circle,0,0,,,,,,,,,,,,,,,,switch,letter,NA,k,0.9829,Hi,,,,,,1,,,,,,,,low,12,0,12,0,1,,,,,,,,,
297808,2022-10-04_11h38.27.497,vts_reward_expectancy,2022.2.4,Win32,62.89703755,Chrome,1536,864,,,,,10,900,,,,,,,,,,,,,,,,,160,F,star,1,1,,,,,,,,,,,,,,,,switch,number,numSwt,f,1.1965,Lo,,,,,,1,,,,,,,,low,13,0,13,0,1,,,,,,,,,
297808,2022-10-04_11h38.27.497,vts_reward_expectancy,2022.2.4,Win32,62.89703755,Chrome,1536,864,,,,,1,901,,,,,,,,,,,,,,,,,181,D,star,1,0,,,,,,,,,,,,,,,,switch,letter,lettSwt,j,0.462,Lo,,,,,,1,,,,,,,,low,14,0,14,0,1,,,,,,,,,
297808,2022-10-04_11h38.27.497,vts_reward_expectancy,2022.2.4,Win32,62.89703755,Chrome,1536,864,,,,,0,901,,,,,,,,,,,,,,,,,132,S,circle,1,0,,,,,,,,,,,,,,,,repeat,letter,lettRpt,k,0.8954,Hi,,,,,,1,,,,,,,,low,15,0,15,0,1,,,,,,,,,
297808,2022-10-04_11h38.27.497,vts_reward_expectancy,2022.2.4,Win32,62.89703755,Chrome,1536,864,,,,,1,902,,,,,,,,,,,,,,,,,174,W,circle,1,0,,,,,,,,,,,,,,,,switch,number,numSwt,f,0.4292,Hi,,,,,,1,,,,,,,,low,16,0,16,0,1,,,,,,,,,
297808,2022-10-04_11h38.27.497,vts_reward_expectancy,2022.2.4,Win32,62.89703755,Chrome,1536,864,,,,,10,912,,,,,,,,,,,,,,,,,167,Y,star,1,0,,,,,,,,,,,,,,,,repeat,number,numRpt,f,0.498,Lo,,,,,,1,,,,,,,,low,17,0,17,0,1,,,,,,,,,
297808,2022-10-04_11h38.27.497,vts_reward_expectancy,2022.2.4,Win32,62.89703755,Chrome,1536,864,,,,,10,922,,,,,,,,,,,,,,,,,160,H,star,1,0,,,,,,,,,,,,,,,,switch,letter,lettSwt,j,0.7166,Lo,,,,,,1,,,,,,,,low,18,0,18,0,1,,,,,,,,,
297808,2022-10-04_11h38.27.497,vts_reward_expectancy,2022.2.4,Win32,62.89703755,Chrome,1536,864,,,,,0,922,,,,,,,,,,,,,,,,,181,U,circle,1,0,,,,,,,,,,,,,,,,repeat,letter,lettRpt,k,0.8791,Hi,,,,,,1,,,,,,,,low,19,0,19,0,1,,,,,,,,,
297808,2022-10-04_11h38.27.497,vts_reward_expectancy,2022.2.4,Win32,62.89703755,Chrome,1536,864,,,,,10,932,,,,,,,,,,,,,,,,,139,F,circle,1,0,,,,,,,,,,,,,,,,switch,number,numSwt,d,0.5809,Hi,,,,,,1,,,,,,,,low,20,0,20,0,1,,,,,,,,,
297808,2022-10-04_11h38.27.497,vts_reward_expectancy,2022.2.4,Win32,62.89703755,Chrome,1536,864,,,,,10,942,,,,,,,,,,,,,,,,,125,S,star,1,0,,,,,,,,,,,,,,,,repeat,number,numRpt,d,0.5458,Lo,,,,,,1,,,,,,,,low,21,0,21,0,1,,,,,,,,,
297808,2022-10-04_11h38.27.497,vts_reward_expectancy,2022.2.4,Win32,62.89703755,Chrome,1536,864,,,,,1,943,,,,,,,,,,,,,,,,,132,B,star,1,0,,,,,,,,,,,,,,,,repeat,number,numRpt,d,0.6063,Lo,,,,,,1,,,,,,,,low,22,0,22,0,1,,,,,,,,,
297808,2022-10-04_11h38.27.497,vts_reward_expectancy,2022.2.4,Win32,62.89703755,Chrome,1536,864,,,,,0,943,,,,,,,,,,,,,,,,,146,D,circle,1,0,,,,,,,,,,,,,,,,switch,letter,lettSwt,j,0.8451,Hi,,,,,,1,,,,,,,,low,23,0,23,0,1,,,,,,,,,
297808,2022-10-04_11h38.27.497,vts_reward_expectancy,2022.2.4,Win32,62.89703755,Chrome,1536,864,,,,,0,943,,,,,,,,,,,,,,,,,146,S,circle,1,0,,,,,,,,,,,,,,,,switch,number,numSwt,d,0.743,Hi,,,,,,1,,,,,,,,low,24,0,24,0,1,,,,,,,,,
297808,2022-10-04_11h38.27.497,vts_reward_expectancy,2022.2.4,Win32,62.89703755,Chrome,1536,864,,,,,1,944,,,,,,,,,,,,,,,,,132,F,star,1,0,,,,,,,,,,,,,,,,switch,letter,lettSwt,j,0.6898,Lo,,,,,,1,,,,,,,,low,25,0,25,0,1,,,,,,,,,
297808,2022-10-04_11h38.27.497,vts_reward_expectancy,2022.2.4,Win32,62.89703755,Chrome,1536,864,,,,,10,954,,,,,,,,,,,,,,,,,160,D,circle,1,0,,,,,,,,,,,,,,,,switch,number,numSwt,f,0.5796,Hi,,,,,,1,,,,,,,,low,26,0,26,0,1,,,,,,,,,
297808,2022-10-04_11h38.27.497,vts_reward_expectancy,2022.2.4,Win32,62.89703755,Chrome,1536,864,,,,,10,964,,,,,,,,,,,,,,,,,181,W,star,1,0,,,,,,,,,,,,,,,,repeat,number,numRpt,f,0.5029,Lo,,,,,,1,,,,,,,,low,27,0,27,0,1,,,,,,,,,
297808,2022-10-04_11h38.27.497,vts_reward_expectancy,2022.2.4,Win32,62.89703755,Chrome,1536,864,,,,,10,974,,,,,,,,,,,,,,,,,167,B,star,1,0,,,,,,,,,,,,,,,,repeat,number,numRpt,f,0.7791,Lo,,,,,,1,,,,,,,,low,28,0,28,0,1,,,,,,,,,
297808,2022-10-04_11h38.27.497,vts_reward_expectancy,2022.2.4,Win32,62.89703755,Chrome,1536,864,,,,,10,984,,,,,,,,,,,,,,,,,139,U,circle,1,0,,,,,,,,,,,,,,,,switch,letter,lettSwt,k,0.4963,Hi,,,,,,1,,,,,,,,low,29,0,29,0,1,,,,,,,,,
297808,2022-10-04_11h38.27.497,vts_reward_expectancy,2022.2.4,Win32,62.89703755,Chrome,1536,864,,,,,1,985,,,,,,,,,,,,,,,,,125,H,circle,1,0,,,,,,,,,,,,,,,,repeat,letter,lettRpt,j,0.5567,Hi,,,,,,1,,,,,,,,low,30,0,30,0,1,,,,,,,,,
297808,2022-10-04_11h38.27.497,vts_reward_expectancy,2022.2.4,Win32,62.89703755,Chrome,1536,864,,,,,1,986,,,,,,,,,,,,,,,,,174,Y,star,1,0,,,,,,,,,,,,,,,,switch,number,numSwt,f,0.7492,Lo,,,,,,1,,,,,,,,low,31,0,31,0,1,,,,,,,,,
297808,2022-10-04_11h38.27.497,vts_reward_expectancy,2022.2.4,Win32,62.89703755,Chrome,1536,864,,,,,1,987,,,,,,,,,,,,,,,,,125,H,star,1,0,,,,,,,,,,,,,,,,repeat,number,numRpt,d,0.6723,Lo,,,,,,2,,,,,,space,9.3484,low,0,0,0,0,1,,,,,,,,,
297808,2022-10-04_11h38.27.497,vts_reward_expectancy,2022.2.4,Win32,62.89703755,Chrome,1536,864,,,,,10,997,,,,,,,,,,,,,,,,,146,D,circle,1,0,,,,,,,,,,,,,,,,switch,letter,lettSwt,j,0.4955,Hi,,,,,,2,,,,,,,,low,1,0,1,0,1,,,,,,,,,
297808,2022-10-04_11h38.27.497,vts_reward_expectancy,2022.2.4,Win32,62.89703755,Chrome,1536,864,,,,,10,1007,,,,,,,,,,,,,,,,,132,F,star,1,0,,,,,,,,,,,,,,,,repeat,letter,lettRpt,j,0.5078,Lo,,,,,,2,,,,,,,,low,2,0,2,0,1,,,,,,,,,
297808,2022-10-04_11h38.27.497,vts_reward_expectancy,2022.2.4,Win32,62.89703755,Chrome,1536,864,,,,,0,1007,,,,,,,,,,,,,,,,,181,Y,circle,1,0,,,,,,,,,,,,,,,,switch,number,numSwt,f,0.5831,Hi,,,,,,2,,,,,,,,low,3,0,3,0,1,,,,,,,,,
297808,2022-10-04_11h38.27.497,vts_reward_expectancy,2022.2.4,Win32,62.89703755,Chrome,1536,864,,,,,0,1007,,,,,,,,,,,,,,,,,160,U,circle,1,0,,,,,,,,,,,,,,,,repeat,number,numRpt,f,0.7821,Hi,,,,,,2,,,,,,,,low,4,0,4,0,1,,,,,,,,,
297808,2022-10-04_11h38.27.497,vts_reward_expectancy,2022.2.4,Win32,62.89703755,Chrome,1536,864,,,,,10,1017,,,,,,,,,,,,,,,,,139,S,star,1,0,,,,,,,,,,,,,,,,switch,letter,lettSwt,k,0.771,Lo,,,,,,2,,,,,,,,low,5,0,5,0,1,,,,,,,,,
297808,2022-10-04_11h38.27.497,vts_reward_expectancy,2022.2.4,Win32,62.89703755,Chrome,1536,864,,,,,1,1018,,,,,,,,,,,,,,,,,174,B,star,1,0,,,,,,,,,,,,,,,,repeat,letter,lettRpt,j,1.1599,Lo,,,,,,2,,,,,,,,low,6,0,6,0,1,,,,,,,,,
297808,2022-10-04_11h38.27.497,vts_reward_expectancy,2022.2.4,Win32,62.89703755,Chrome,1536,864,,,,,10,1028,,,,,,,,,,,,,,,,,167,W,circle,1,0,,,,,,,,,,,,,,,,switch,number,numSwt,f,0.5181,Hi,,,,,,2,,,,,,,,low,7,0,7,0,1,,,,,,,,,
297808,2022-10-04_11h38.27.497,vts_reward_expectancy,2022.2.4,Win32,62.89703755,Chrome,1536,864,,,,,1,1029,,,,,,,,,,,,,,,,,125,H,star,1,0,,,,,,,,,,,,,,,,repeat,number,numRpt,d,0.6471,Lo,,,,,,2,,,,,,,,low,8,0,8,0,1,,,,,,,,,
297808,2022-10-04_11h38.27.497,vts_reward_expectancy,2022.2.4,Win32,62.89703755,Chrome,1536,864,,,,,0,1029,,,,,,,,,,,,,,,,,146,D,circle,1,0,,,,,,,,,,,,,,,,switch,letter,lettSwt,j,0.6687,Hi,,,,,,2,,,,,,,,low,9,0,9,0,1,,,,,,,,,
297808,2022-10-04_11h38.27.497,vts_reward_expectancy,2022.2.4,Win32,62.89703755,Chrome,1536,864,,,,,1,1030,,,,,,,,,,,,,,,,,132,F,star,1,0,,,,,,,,,,,,,,,,switch,number,numSwt,d,0.6631,Lo,,,,,,2,,,,,,,,low,10,0,10,0,1,,,,,,,,,
297808,2022-10-04_11h38.27.497,vts_reward_expectancy,2022.2.4,Win32,62.89703755,Chrome,1536,864,,,,,10,1040,,,,,,,,,,,,,,,,,181,Y,circle,1,0,,,,,,,,,,,,,,,,repeat,number,numRpt,f,0.5984,Hi,,,,,,2,,,,,,,,low,11,0,11,0,1,,,,,,,,,
297808,2022-10-04_11h38.27.497,vts_reward_expectancy,2022.2.4,Win32,62.89703755,Chrome,1536,864,,,,,0,1040,,,,,,,,,,,,,,,,,160,U,circle,1,0,,,,,,,,,,,,,,,,repeat,number,numRpt,f,0.646,Hi,,,,,,2,,,,,,,,low,12,0,12,0,1,,,,,,,,,
297808,2022-10-04_11h38.27.497,vts_reward_expectancy,2022.2.4,Win32,62.89703755,Chrome,1536,864,,,,,10,1050,,,,,,,,,,,,,,,,,139,S,star,1,0,,,,,,,,,,,,,,,,switch,letter,lettSwt,k,1.13,Lo,,,,,,2,,,,,,,,low,13,0,13,0,1,,,,,,,,,
297808,2022-10-04_11h38.27.497,vts_reward_expectancy,2022.2.4,Win32,62.89703755,Chrome,1536,864,,,,,10,1060,,,,,,,,,,,,,,,,,174,B,circle,1,0,,,,,,,,,,,,,,,,repeat,letter,lettRpt,j,0.4319,Hi,,,,,,2,,,,,,,,low,14,0,14,0,1,,,,,,,,,
297808,2022-10-04_11h38.27.497,vts_reward_expectancy,2022.2.4,Win32,62.89703755,Chrome,1536,864,,,,,1,1061,,,,,,,,,,,,,,,,,167,W,star,1,0,,,,,,,,,,,,,,,,repeat,letter,lettRpt,k,0.6067,Lo,,,,,,2,,,,,,,,low,15,0,15,0,1,,,,,,,,,
297808,2022-10-04_11h38.27.497,vts_reward_expectancy,2022.2.4,Win32,62.89703755,Chrome,1536,864,,,,,10,1071,,,,,,,,,,,,,,,,,181,W,star,1,0,,,,,,,,,,,,,,,,switch,number,numSwt,f,0.8639,Lo,,,,,,2,,,,,,,,low,16,0,16,0,1,,,,,,,,,
297808,2022-10-04_11h38.27.497,vts_reward_expectancy,2022.2.4,Win32,62.89703755,Chrome,1536,864,,,,,0,1071,,,,,,,,,,,,,,,,,132,U,circle,1,0,,,,,,,,,,,,,,,,repeat,number,numRpt,d,0.6453,Hi,,,,,,2,,,,,,,,low,17,0,17,0,1,,,,,,,,,
297808,2022-10-04_11h38.27.497,vts_reward_expectancy,2022.2.4,Win32,62.89703755,Chrome,1536,864,,,,,1,1072,,,,,,,,,,,,,,,,,167,H,star,1,0,,,,,,,,,,,,,,,,switch,letter,lettSwt,j,1.0186,Lo,,,,,,2,,,,,,,,low,18,0,18,0,1,,,,,,,,,
297808,2022-10-04_11h38.27.497,vts_reward_expectancy,2022.2.4,Win32,62.89703755,Chrome,1536,864,,,,,0,1072,,,,,,,,,,,,,,,,,146,S,circle,1,0,,,,,,,,,,,,,,,,switch,number,numSwt,d,1.2286,Hi,,,,,,2,,,,,,,,low,19,0,19,0,1,,,,,,,,,
297808,2022-10-04_11h38.27.497,vts_reward_expectancy,2022.2.4,Win32,62.89703755,Chrome,1536,864,,,,,0,1072,,,,,,,,,,,,,,,,,125,Y,circle,1,0,,,,,,,,,,,,,,,,repeat,number,numRpt,d,0.6836,Hi,,,,,,2,,,,,,,,low,20,0,20,0,1,,,,,,,,,
297808,2022-10-04_11h38.27.497,vts_reward_expectancy,2022.2.4,Win32,62.89703755,Chrome,1536,864,,,,,1,1073,,,,,,,,,,,,,,,,,160,D,star,1,0,,,,,,,,,,,,,,,,repeat,number,numRpt,f,0.8787,Lo,,,,,,2,,,,,,,,low,21,0,21,0,1,,,,,,,,,
297808,2022-10-04_11h38.27.497,vts_reward_expectancy,2022.2.4,Win32,62.89703755,Chrome,1536,864,,,,,1,1074,,,,,,,,,,,,,,,,,139,B,star,1,0,,,,,,,,,,,,,,,,switch,letter,lettSwt,j,1.0559,Lo,,,,,,2,,,,,,,,low,22,0,22,0,1,,,,,,,,,
297808,2022-10-04_11h38.27.497,vts_reward_expectancy,2022.2.4,Win32,62.89703755,Chrome,1536,864,,,,,0,1074,,,,,,,,,,,,,,,,,174,F,circle,1,0,,,,,,,,,,,,,,,,repeat,letter,lettRpt,j,1.0402,Hi,,,,,,2,,,,,,,,low,23,0,23,0,1,,,,,,,,,
297808,2022-10-04_11h38.27.497,vts_reward_expectancy,2022.2.4,Win32,62.89703755,Chrome,1536,864,,,,,0,1074,,,,,,,,,,,,,,,,,167,W,circle,1,0,,,,,,,,,,,,,,,,switch,number,numSwt,f,0.797,Hi,,,,,,2,,,,,,,,low,24,0,24,0,1,,,,,,,,,
297808,2022-10-04_11h38.27.497,vts_reward_expectancy,2022.2.4,Win32,62.89703755,Chrome,1536,864,,,,,1,1075,,,,,,,,,,,,,,,,,125,D,star,1,0,,,,,,,,,,,,,,,,switch,letter,lettSwt,j,0.7464,Lo,,,,,,2,,,,,,,,low,25,0,25,0,1,,,,,,,,,
297808,2022-10-04_11h38.27.497,vts_reward_expectancy,2022.2.4,Win32,62.89703755,Chrome,1536,864,,,,,0,1075,,,,,,,,,,,,,,,,,174,U,circle,1,0,,,,,,,,,,,,,,,,switch,number,numSwt,f,0.6499,Hi,,,,,,2,,,,,,,,low,26,0,26,0,1,,,,,,,,,
297808,2022-10-04_11h38.27.497,vts_reward_expectancy,2022.2.4,Win32,62.89703755,Chrome,1536,864,,,,,10,1085,,,,,,,,,,,,,,,,,146,H,star,1,0,,,,,,,,,,,,,,,,repeat,number,numRpt,d,0.6294,Lo,,,,,,2,,,,,,,,low,27,0,27,0,1,,,,,,,,,
297808,2022-10-04_11h38.27.497,vts_reward_expectancy,2022.2.4,Win32,62.89703755,Chrome,1536,864,,,,,0,1085,,,,,,,,,,,,,,,,,160,B,star,0,0,,,,,,,,,,,,,,,,repeat,number,NA,d,0.6109,Lo,,,,,,2,,,,,,,,low,28,0,28,0,1,,,,,,,,,
297808,2022-10-04_11h38.27.497,vts_reward_expectancy,2022.2.4,Win32,62.89703755,Chrome,1536,864,,,,,0,1085,,,,,,,,,,,,,,,,,132,S,circle,1,1,,,,,,,,,,,,,,,,repeat,number,numRpt,d,0.6218,Hi,,,,,,2,,,,,,,,low,29,0,29,0,1,,,,,,,,,
297808,2022-10-04_11h38.27.497,vts_reward_expectancy,2022.2.4,Win32,62.89703755,Chrome,1536,864,,,,,0,1085,,,,,,,,,,,,,,,,,181,F,circle,1,0,,,,,,,,,,,,,,,,switch,letter,lettSwt,j,0.5954,Hi,,,,,,2,,,,,,,,low,30,0,30,0,1,,,,,,,,,
297808,2022-10-04_11h38.27.497,vts_reward_expectancy,2022.2.4,Win32,62.89703755,Chrome,1536,864,,,,,1,1086,,,,,,,,,,,,,,,,,139,Y,star,1,0,,,,,,,,,,,,,,,,switch,number,numSwt,d,1.1294,Lo,,,,,,2,,,,,,,,low,31,0,31,0,1,,,,,,,,,
297808,2022-10-04_11h38.27.497,vts_reward_expectancy,2022.2.4,Win32,62.89703755,Chrome,1536,864,,,,,0,1086,,,,,,,,,,,,,,,,,125,D,circle,1,0,,,,,,,,,,,,,,,,switch,letter,lettSwt,j,0.7804,Hi,,,,,,3,,,,,,space,6.5997,low,0,0,0,0,1,,,,,,,,,
297808,2022-10-04_11h38.27.497,vts_reward_expectancy,2022.2.4,Win32,62.89703755,Chrome,1536,864,,,,,1,1087,,,,,,,,,,,,,,,,,146,U,star,1,0,,,,,,,,,,,,,,,,switch,number,numSwt,d,0.629,Lo,,,,,,3,,,,,,,,low,1,0,1,0,1,,,,,,,,,
297808,2022-10-04_11h38.27.497,vts_reward_expectancy,2022.2.4,Win32,62.89703755,Chrome,1536,864,,,,,1,1088,,,,,,,,,,,,,,,,,132,Y,circle,1,0,,,,,,,,,,,,,,,,repeat,number,numRpt,d,0.5957,Hi,,,,,,3,,,,,,,,low,2,0,2,0,1,,,,,,,,,
297808,2022-10-04_11h38.27.497,vts_reward_expectancy,2022.2.4,Win32,62.89703755,Chrome,1536,864,,,,,1,1089,,,,,,,,,,,,,,,,,160,H,star,1,0,,,,,,,,,,,,,,,,switch,letter,lettSwt,j,0.6873,Lo,,,,,,3,,,,,,,,low,3,0,3,0,1,,,,,,,,,
297808,2022-10-04_11h38.27.497,vts_reward_expectancy,2022.2.4,Win32,62.89703755,Chrome,1536,864,,,,,1,1090,,,,,,,,,,,,,,,,,181,F,star,1,0,,,,,,,,,,,,,,,,switch,number,numSwt,f,0.4603,Lo,,,,,,3,,,,,,,,low,4,0,4,0,1,,,,,,,,,
297808,2022-10-04_11h38.27.497,vts_reward_expectancy,2022.2.4,Win32,62.89703755,Chrome,1536,864,,,,,1,1091,,,,,,,,,,,,,,,,,139,B,circle,1,0,,,,,,,,,,,,,,,,switch,letter,lettSwt,j,0.5386,Hi,,,,,,3,,,,,,,,low,5,0,5,0,1,,,,,,,,,
297808,2022-10-04_11h38.27.497,vts_reward_expectancy,2022.2.4,Win32,62.89703755,Chrome,1536,864,,,,,10,1101,,,,,,,,,,,,,,,,,174,W,star,1,0,,,,,,,,,,,,,,,,switch,number,numSwt,f,0.6492,Lo,,,,,,3,,,,,,,,low,6,0,6,0,1,,,,,,,,,
297808,2022-10-04_11h38.27.497,vts_reward_expectancy,2022.2.4,Win32,62.89703755,Chrome,1536,864,,,,,0,1101,,,,,,,,,,,,,,,,,167,S,circle,1,0,,,,,,,,,,,,,,,,repeat,number,numRpt,f,0.6463,Hi,,,,,,3,,,,,,,,low,7,0,7,0,1,,,,,,,,,
297808,2022-10-04_11h38.27.497,vts_reward_expectancy,2022.2.4,Win32,62.89703755,Chrome,1536,864,,,,,0,1101,,,,,,,,,,,,,,,,,125,D,circle,1,0,,,,,,,,,,,,,,,,switch,letter,lettSwt,j,1.1174,Hi,,,,,,3,,,,,,,,low,8,0,8,0,1,,,,,,,,,
297808,2022-10-04_11h38.27.497,vts_reward_expectancy,2022.2.4,Win32,62.89703755,Chrome,1536,864,,,,,1,1102,,,,,,,,,,,,,,,,,146,U,star,1,0,,,,,,,,,,,,,,,,switch,number,numSwt,d,1.0455,Lo,,,,,,3,,,,,,,,low,9,0,9,0,1,,,,,,,,,
297808,2022-10-04_11h38.27.497,vts_reward_expectancy,2022.2.4,Win32,62.89703755,Chrome,1536,864,,,,,0,1102,,,,,,,,,,,,,,,,,132,Y,circle,1,0,,,,,,,,,,,,,,,,switch,letter,lettSwt,k,0.7539,Hi,,,,,,3,,,,,,,,low,10,0,10,0,1,,,,,,,,,
297808,2022-10-04_11h38.27.497,vts_reward_expectancy,2022.2.4,Win32,62.89703755,Chrome,1536,864,,,,,1,1103,,,,,,,,,,,,,,,,,160,H,star,1,0,,,,,,,,,,,,,,,,switch,number,numSwt,f,0.9632,Lo,,,,,,3,,,,,,,,low,11,0,11,0,1,,,,,,,,,
297808,2022-10-04_11h38.27.497,vts_reward_expectancy,2022.2.4,Win32,62.89703755,Chrome,1536,864,,,,,1,1104,,,,,,,,,,,,,,,,,181,F,star,1,0,,,,,,,,,,,,,,,,repeat,number,numRpt,f,0.478,Lo,,,,,,3,,,,,,,,low,12,0,12,0,1,,,,,,,,,
297808,2022-10-04_11h38.27.497,vts_reward_expectancy,2022.2.4,Win32,62.89703755,Chrome,1536,864,,,,,10,1114,,,,,,,,,,,,,,,,,139,B,circle,1,0,,,,,,,,,,,,,,,,switch,letter,lettSwt,j,0.5369,Hi,,,,,,3,,,,,,,,low,13,0,13,0,1,,,,,,,,,
297808,2022-10-04_11h38.27.497,vts_reward_expectancy,2022.2.4,Win32,62.89703755,Chrome,1536,864,,,,,0,1114,,,,,,,,,,,,,,,,,174,W,circle,1,0,,,,,,,,,,,,,,,,repeat,letter,lettRpt,k,0.7343,Hi,,,,,,3,,,,,,,,low,14,0,14,0,1,,,,,,,,,
297808,2022-10-04_11h38.27.497,vts_reward_expectancy,2022.2.4,Win32,62.89703755,Chrome,1536,864,,,,,1,1115,,,,,,,,,,,,,,,,,167,S,star,1,0,,,,,,,,,,,,,,,,switch,number,numSwt,f,0.6531,Lo,,,,,,3,,,,,,,,low,15,0,15,0,1,,,,,,,,,
297808,2022-10-04_11h38.27.497,vts_reward_expectancy,2022.2.4,Win32,62.89703755,Chrome,1536,864,,,,,1,1116,,,,,,,,,,,,,,,,,167,Y,circle,1,0,,,,,,,,,,,,,,,,switch,letter,lettSwt,k,0.5169,Hi,,,,,,3,,,,,,,,low,16,0,16,0,1,,,,,,,,,
297808,2022-10-04_11h38.27.497,vts_reward_expectancy,2022.2.4,Win32,62.89703755,Chrome,1536,864,,,,,0,1116,,,,,,,,,,,,,,,,,146,B,star,0,0,,,,,,,,,,,,,,,,switch,number,NA,f,0.8957,Hi,,,,,,3,,,,,,,,low,17,0,17,0,1,,,,,,,,,
297808,2022-10-04_11h38.27.497,vts_reward_expectancy,2022.2.4,Win32,62.89703755,Chrome,1536,864,,,,,1,1117,,,,,,,,,,,,,,,,,174,U,star,1,1,,,,,,,,,,,,,,,,repeat,number,numRpt,f,0.8214,Lo,,,,,,3,,,,,,,,low,18,0,18,0,1,,,,,,,,,
297808,2022-10-04_11h38.27.497,vts_reward_expectancy,2022.2.4,Win32,62.89703755,Chrome,1536,864,,,,,1,1118,,,,,,,,,,,,,,,,,181,D,circle,1,0,,,,,,,,,,,,,,,,switch,letter,lettSwt,j,0.5344,Hi,,,,,,3,,,,,,,,low,19,0,19,0,1,,,,,,,,,
297808,2022-10-04_11h38.27.497,vts_reward_expectancy,2022.2.4,Win32,62.89703755,Chrome,1536,864,,,,,10,1128,,,,,,,,,,,,,,,,,132,H,star,1,0,,,,,,,,,,,,,,,,switch,number,numSwt,d,0.5706,Lo,,,,,,3,,,,,,,,low,20,0,20,0,1,,,,,,,,,
297808,2022-10-04_11h38.27.497,vts_reward_expectancy,2022.2.4,Win32,62.89703755,Chrome,1536,864,,,,,1,1129,,,,,,,,,,,,,,,,,160,F,circle,1,0,,,,,,,,,,,,,,,,repeat,number,numRpt,f,0.5971,Hi,,,,,,3,,,,,,,,low,21,0,21,0,1,,,,,,,,,
297808,2022-10-04_11h38.27.497,vts_reward_expectancy,2022.2.4,Win32,62.89703755,Chrome,1536,864,,,,,10,1139,,,,,,,,,,,,,,,,,125,S,circle,1,0,,,,,,,,,,,,,,,,switch,letter,lettSwt,k,0.5631,Hi,,,,,,3,,,,,,,,low,22,0,22,0,1,,,,,,,,,
297808,2022-10-04_11h38.27.497,vts_reward_expectancy,2022.2.4,Win32,62.89703755,Chrome,1536,864,,,,,1,1140,,,,,,,,,,,,,,,,,139,W,star,1,0,,,,,,,,,,,,,,,,repeat,letter,lettRpt,k,0.639,Lo,,,,,,3,,,,,,,,low,23,0,23,0,1,,,,,,,,,
297808,2022-10-04_11h38.27.497,vts_reward_expectancy,2022.2.4,Win32,62.89703755,Chrome,1536,864,,,,,0,1140,,,,,,,,,,,,,,,,,125,Y,circle,1,0,,,,,,,,,,,,,,,,switch,number,numSwt,d,0.6871,Hi,,,,,,3,,,,,,,,low,24,0,24,0,1,,,,,,,,,
297808,2022-10-04_11h38.27.497,vts_reward_expectancy,2022.2.4,Win32,62.89703755,Chrome,1536,864,,,,,1,1141,,,,,,,,,,,,,,,,,146,F,star,1,0,,,,,,,,,,,,,,,,repeat,number,numRpt,d,0.6344,Lo,,,,,,3,,,,,,,,low,25,0,25,0,1,,,,,,,,,
297808,2022-10-04_11h38.27.497,vts_reward_expectancy,2022.2.4,Win32,62.89703755,Chrome,1536,864,,,,,10,1151,,,,,,,,,,,,,,,,,181,B,star,1,0,,,,,,,,,,,,,,,,switch,letter,lettSwt,j,0.562,Lo,,,,,,3,,,,,,,,low,26,0,26,0,1,,,,,,,,,
297808,2022-10-04_11h38.27.497,vts_reward_expectancy,2022.2.4,Win32,62.89703755,Chrome,1536,864,,,,,0,1151,,,,,,,,,,,,,,,,,139,U,circle,1,0,,,,,,,,,,,,,,,,repeat,letter,lettRpt,k,0.5706,Hi,,,,,,3,,,,,,,,low,27,0,27,0,1,,,,,,,,,
297808,2022-10-04_11h38.27.497,vts_reward_expectancy,2022.2.4,Win32,62.89703755,Chrome,1536,864,,,,,1,1152,,,,,,,,,,,,,,,,,132,D,star,1,0,,,,,,,,,,,,,,,,switch,number,numSwt,d,1.2657,Lo,,,,,,3,,,,,,,,low,28,0,28,0,1,,,,,,,,,
297808,2022-10-04_11h38.27.497,vts_reward_expectancy,2022.2.4,Win32,62.89703755,Chrome,1536,864,,,,,0,1152,,,,,,,,,,,,,,,,,174,H,circle,1,0,,,,,,,,,,,,,,,,repeat,number,numRpt,f,1.2129,Hi,,,,,,3,,,,,,,,low,29,0,29,0,1,,,,,,,,,
297808,2022-10-04_11h38.27.497,vts_reward_expectancy,2022.2.4,Win32,62.89703755,Chrome,1536,864,,,,,0,1152,,,,,,,,,,,,,,,,,160,S,circle,1,0,,,,,,,,,,,,,,,,switch,letter,lettSwt,k,0.7216,Hi,,,,,,3,,,,,,,,low,30,0,30,0,1,,,,,,,,,
297808,2022-10-04_11h38.27.497,vts_reward_expectancy,2022.2.4,Win32,62.89703755,Chrome,1536,864,,,,,1,1153,,,,,,,,,,,,,,,,,167,W,star,1,0,,,,,,,,,,,,,,,,repeat,letter,lettRpt,k,0.5801,Lo,,,,,,3,,,,,,,,low,31,0,31,0,1,,,,,,,,,
297808,2022-10-04_11h38.27.497,vts_reward_expectancy,2022.2.4,Win32,62.89703755,Chrome,1536,864,,,,,0,1153,,,,,,,,,,,,,,,,,139,S,triangle,1,0,,,,,,,,,,,,,,,,switch,number,numSwt,d,0.6478,Hi,,,,,,4,,,,,,space,1.4822,high,0,0,0,0,1,,,,,,,,,
297808,2022-10-04_11h38.27.497,vts_reward_expectancy,2022.2.4,Win32,62.89703755,Chrome,1536,864,,,,,1,1154,,,,,,,,,,,,,,,,,174,D,hexagon,1,0,,,,,,,,,,,,,,,,repeat,number,numRpt,f,0.8852,Lo,,,,,,4,,,,,,,,high,1,0,1,0,1,,,,,,,,,
297808,2022-10-04_11h38.27.497,vts_reward_expectancy,2022.2.4,Win32,62.89703755,Chrome,1536,864,,,,,0,1154,,,,,,,,,,,,,,,,,146,Y,triangle,1,0,,,,,,,,,,,,,,,,switch,letter,lettSwt,k,0.6896,Hi,,,,,,4,,,,,,,,high,2,0,2,0,1,,,,,,,,,
297808,2022-10-04_11h38.27.497,vts_reward_expectancy,2022.2.4,Win32,62.89703755,Chrome,1536,864,,,,,1,1155,,,,,,,,,,,,,,,,,160,B,hexagon,1,0,,,,,,,,,,,,,,,,switch,number,numSwt,f,0.7535,Lo,,,,,,4,,,,,,,,high,3,0,3,0,1,,,,,,,,,
297808,2022-10-04_11h38.27.497,vts_reward_expectancy,2022.2.4,Win32,62.89703755,Chrome,1536,864,,,,,0,1155,,,,,,,,,,,,,,,,,132,F,hexagon,0,0,,,,,,,,,,,,,,,,repeat,number,NA,f,0.753,Lo,,,,,,4,,,,,,,,high,4,0,4,0,1,,,,,,,,,
297808,2022-10-04_11h38.27.497,vts_reward_expectancy,2022.2.4,Win32,62.89703755,Chrome,1536,864,,,,,10,1165,,,,,,,,,,,,,,,,,167,W,triangle,1,1,,,,,,,,,,,,,,,,repeat,number,numRpt,f,0.5635,Hi,,,,,,4,,,,,,,,high,5,0,5,0,1,,,,,,,,,
297808,2022-10-04_11h38.27.497,vts_reward_expectancy,2022.2.4,Win32,62.89703755,Chrome,1536,864,,,,,10,1175,,,,,,,,,,,,,,,,,181,H,hexagon,1,0,,,,,,,,,,,,,,,,switch,letter,lettSwt,j,0.8332,Lo,,,,,,4,,,,,,,,high,6,0,6,0,1,,,,,,,,,
297808,2022-10-04_11h38.27.497,vts_reward_expectancy,2022.2.4,Win32,62.89703755,Chrome,1536,864,,,,,10,1185,,,,,,,,,,,,,,,,,125,U,triangle,1,0,,,,,,,,,,,,,,,,switch,number,numSwt,d,0.6126,Hi,,,,,,4,,,,,,,,high,7,0,7,0,1,,,,,,,,,
297808,2022-10-04_11h38.27.497,vts_reward_expectancy,2022.2.4,Win32,62.89703755,Chrome,1536,864,,,,,1,1186,,,,,,,,,,,,,,,,,139,S,hexagon,1,0,,,,,,,,,,,,,,,,switch,letter,lettSwt,k,0.5621,Lo,,,,,,4,,,,,,,,high,8,0,8,0,1,,,,,,,,,
297808,2022-10-04_11h38.27.497,vts_reward_expectancy,2022.2.4,Win32,62.89703755,Chrome,1536,864,,,,,10,1196,,,,,,,,,,,,,,,,,174,D,triangle,1,0,,,,,,,,,,,,,,,,switch,number,numSwt,f,0.5819,Hi,,,,,,4,,,,,,,,high,9,0,9,0,1,,,,,,,,,
297808,2022-10-04_11h38.27.497,vts_reward_expectancy,2022.2.4,Win32,62.89703755,Chrome,1536,864,,,,,0,1196,,,,,,,,,,,,,,,,,146,Y,triangle,1,0,,,,,,,,,,,,,,,,switch,letter,lettSwt,k,0.5707,Hi,,,,,,4,,,,,,,,high,10,0,10,0,1,,,,,,,,,
297808,2022-10-04_11h38.27.497,vts_reward_expectancy,2022.2.4,Win32,62.89703755,Chrome,1536,864,,,,,1,1197,,,,,,,,,,,,,,,,,160,B,hexagon,1,0,,,,,,,,,,,,,,,,switch,number,numSwt,f,0.797,Lo,,,,,,4,,,,,,,,high,11,0,11,0,1,,,,,,,,,
297808,2022-10-04_11h38.27.497,vts_reward_expectancy,2022.2.4,Win32,62.89703755,Chrome,1536,864,,,,,1,1198,,,,,,,,,,,,,,,,,132,F,hexagon,1,0,,,,,,,,,,,,,,,,switch,letter,lettSwt,j,0.6771,Lo,,,,,,4,,,,,,,,high,12,0,12,0,1,,,,,,,,,
297808,2022-10-04_11h38.27.497,vts_reward_expectancy,2022.2.4,Win32,62.89703755,Chrome,1536,864,,,,,0,1198,,,,,,,,,,,,,,,,,167,W,triangle,1,0,,,,,,,,,,,,,,,,repeat,letter,lettRpt,k,0.6141,Hi,,,,,,4,,,,,,,,high,13,0,13,0,1,,,,,,,,,
297808,2022-10-04_11h38.27.497,vts_reward_expectancy,2022.2.4,Win32,62.89703755,Chrome,1536,864,,,,,0,1198,,,,,,,,,,,,,,,,,181,H,triangle,1,0,,,,,,,,,,,,,,,,switch,number,numSwt,f,0.9004,Hi,,,,,,4,,,,,,,,high,14,0,14,0,1,,,,,,,,,
297808,2022-10-04_11h38.27.497,vts_reward_expectancy,2022.2.4,Win32,62.89703755,Chrome,1536,864,,,,,1,1199,,,,,,,,,,,,,,,,,125,U,hexagon,1,0,,,,,,,,,,,,,,,,switch,letter,lettSwt,k,0.7043,Lo,,,,,,4,,,,,,,,high,15,0,15,0,1,,,,,,,,,
297808,2022-10-04_11h38.27.497,vts_reward_expectancy,2022.2.4,Win32,62.89703755,Chrome,1536,864,,,,,1,1200,,,,,,,,,,,,,,,,,125,Y,hexagon,1,0,,,,,,,,,,,,,,,,switch,number,numSwt,d,0.5709,Lo,,,,,,4,,,,,,,,high,16,0,16,0,1,,,,,,,,,
297808,2022-10-04_11h38.27.497,vts_reward_expectancy,2022.2.4,Win32,62.89703755,Chrome,1536,864,,,,,10,1210,,,,,,,,,,,,,,,,,160,D,triangle,1,0,,,,,,,,,,,,,,,,repeat,number,numRpt,f,0.5044,Hi,,,,,,4,,,,,,,,high,17,0,17,0,1,,,,,,,,,
297808,2022-10-04_11h38.27.497,vts_reward_expectancy,2022.2.4,Win32,62.89703755,Chrome,1536,864,,,,,1,1211,,,,,,,,,,,,,,,,,132,B,hexagon,1,0,,,,,,,,,,,,,,,,switch,letter,lettSwt,j,0.7882,Lo,,,,,,4,,,,,,,,high,18,0,18,0,1,,,,,,,,,
297808,2022-10-04_11h38.27.497,vts_reward_expectancy,2022.2.4,Win32,62.89703755,Chrome,1536,864,,,,,0,1211,,,,,,,,,,,,,,,,,146,W,triangle,1,0,,,,,,,,,,,,,,,,switch,number,numSwt,d,0.7632,Hi,,,,,,4,,,,,,,,high,19,0,19,0,1,,,,,,,,,
297808,2022-10-04_11h38.27.497,vts_reward_expectancy,2022.2.4,Win32,62.89703755,Chrome,1536,864,,,,,0,1211,,,,,,,,,,,,,,,,,167,F,triangle,1,0,,,,,,,,,,,,,,,,repeat,number,numRpt,f,0.8181,Hi,,,,,,4,,,,,,,,high,20,0,20,0,1,,,,,,,,,
297808,2022-10-04_11h38.27.497,vts_reward_expectancy,2022.2.4,Win32,62.89703755,Chrome,1536,864,,,,,1,1212,,,,,,,,,,,,,,,,,139,H,hexagon,1,0,,,,,,,,,,,,,,,,switch,letter,lettSwt,j,0.6949,Lo,,,,,,4,,,,,,,,high,21,0,21,0,1,,,,,,,,,
297808,2022-10-04_11h38.27.497,vts_reward_expectancy,2022.2.4,Win32,62.89703755,Chrome,1536,864,,,,,0,1212,,,,,,,,,,,,,,,,,174,U,triangle,1,0,,,,,,,,,,,,,,,,switch,number,numSwt,f,0.7173,Hi,,,,,,4,,,,,,,,high,22,0,22,0,1,,,,,,,,,
297808,2022-10-04_11h38.27.497,vts_reward_expectancy,2022.2.4,Win32,62.89703755,Chrome,1536,864,,,,,1,1213,,,,,,,,,,,,,,,,,181,S,hexagon,1,0,,,,,,,,,,,,,,,,repeat,number,numRpt,f,0.8474,Lo,,,,,,4,,,,,,,,high,23,0,23,0,1,,,,,,,,,
297808,2022-10-04_11h38.27.497,vts_reward_expectancy,2022.2.4,Win32,62.89703755,Chrome,1536,864,,,,,0,1213,,,,,,,,,,,,,,,,,167,S,hexagon,0,0,,,,,,,,,,,,,,,,switch,letter,NA,j,0.9368,Lo,,,,,,4,,,,,,,,high,24,0,24,0,1,,,,,,,,,
297808,2022-10-04_11h38.27.497,vts_reward_expectancy,2022.2.4,Win32,62.89703755,Chrome,1536,864,,,,,0,1213,,,,,,,,,,,,,,,,,125,H,triangle,1,1,,,,,,,,,,,,,,,,switch,number,numSwt,d,0.7719,Hi,,,,,,4,,,,,,,,high,25,0,25,0,1,,,,,,,,,
297808,2022-10-04_11h38.27.497,vts_reward_expectancy,2022.2.4,Win32,62.89703755,Chrome,1536,864,,,,,0,1213,,,,,,,,,,,,,,,,,132,W,triangle,1,0,,,,,,,,,,,,,,,,repeat,number,numRpt,d,1.0962,Hi,,,,,,4,,,,,,,,high,26,0,26,0,1,,,,,,,,,
297808,2022-10-04_11h38.27.497,vts_reward_expectancy,2022.2.4,Win32,62.89703755,Chrome,1536,864,,,,,1,1214,,,,,,,,,,,,,,,,,181,B,hexagon,1,0,,,,,,,,,,,,,,,,switch,letter,lettSwt,j,1.2809,Lo,,,,,,4,,,,,,,,high,27,0,27,0,1,,,,,,,,,
297808,2022-10-04_11h38.27.497,vts_reward_expectancy,2022.2.4,Win32,62.89703755,Chrome,1536,864,,,,,1,1215,,,,,,,,,,,,,,,,,139,Y,hexagon,1,0,,,,,,,,,,,,,,,,repeat,letter,lettRpt,k,1.229,Lo,,,,,,4,,,,,,,,high,28,0,28,0,1,,,,,,,,,
297808,2022-10-04_11h38.27.497,vts_reward_expectancy,2022.2.4,Win32,62.89703755,Chrome,1536,864,,,,,0,1215,,,,,,,,,,,,,,,,,174,D,triangle,1,0,,,,,,,,,,,,,,,,switch,number,numSwt,f,0.7649,Hi,,,,,,4,,,,,,,,high,29,0,29,0,1,,,,,,,,,
297808,2022-10-04_11h38.27.497,vts_reward_expectancy,2022.2.4,Win32,62.89703755,Chrome,1536,864,,,,,1,1216,,,,,,,,,,,,,,,,,146,U,hexagon,1,0,,,,,,,,,,,,,,,,switch,letter,lettSwt,k,0.9803,Lo,,,,,,4,,,,,,,,high,30,0,30,0,1,,,,,,,,,
297808,2022-10-04_11h38.27.497,vts_reward_expectancy,2022.2.4,Win32,62.89703755,Chrome,1536,864,,,,,0,1216,,,,,,,,,,,,,,,,,160,F,triangle,1,0,,,,,,,,,,,,,,,,switch,number,numSwt,f,1.2458,Hi,,,,,,4,,,,,,,,high,31,0,31,0,1,,,,,,,,,
297808,2022-10-04_11h38.27.497,vts_reward_expectancy,2022.2.4,Win32,62.89703755,Chrome,1536,864,,,,,1,1217,,,,,,,,,,,,,,,,,160,B,hexagon,1,0,,,,,,,,,,,,,,,,repeat,number,numRpt,f,0.7473,Lo,,,,,,5,,,,,,space,1.5075,high,0,0,0,0,1,,,,,,,,,
297808,2022-10-04_11h38.27.497,vts_reward_expectancy,2022.2.4,Win32,62.89703755,Chrome,1536,864,,,,,10,1227,,,,,,,,,,,,,,,,,146,D,triangle,1,0,,,,,,,,,,,,,,,,repeat,number,numRpt,d,0.6033,Hi,,,,,,5,,,,,,,,high,1,0,1,0,1,,,,,,,,,
297808,2022-10-04_11h38.27.497,vts_reward_expectancy,2022.2.4,Win32,62.89703755,Chrome,1536,864,,,,,1,1228,,,,,,,,,,,,,,,,,132,W,hexagon,1,0,,,,,,,,,,,,,,,,switch,letter,lettSwt,k,0.7223,Lo,,,,,,5,,,,,,,,high,2,0,2,0,1,,,,,,,,,
297808,2022-10-04_11h38.27.497,vts_reward_expectancy,2022.2.4,Win32,62.89703755,Chrome,1536,864,,,,,0,1228,,,,,,,,,,,,,,,,,167,F,triangle,1,0,,,,,,,,,,,,,,,,repeat,letter,lettRpt,j,0.7897,Hi,,,,,,5,,,,,,,,high,3,0,3,0,1,,,,,,,,,
297808,2022-10-04_11h38.27.497,vts_reward_expectancy,2022.2.4,Win32,62.89703755,Chrome,1536,864,,,,,10,1238,,,,,,,,,,,,,,,,,181,Y,triangle,1,0,,,,,,,,,,,,,,,,switch,number,numSwt,f,0.5131,Hi,,,,,,5,,,,,,,,high,4,0,4,0,1,,,,,,,,,
297808,2022-10-04_11h38.27.497,vts_reward_expectancy,2022.2.4,Win32,62.89703755,Chrome,1536,864,,,,,10,1248,,,,,,,,,,,,,,,,,174,S,hexagon,1,0,,,,,,,,,,,,,,,,repeat,number,numRpt,f,1.2027,Lo,,,,,,5,,,,,,,,high,5,0,5,0,1,,,,,,,,,
297808,2022-10-04_11h38.27.497,vts_reward_expectancy,2022.2.4,Win32,62.89703755,Chrome,1536,864,,,,,10,1258,,,,,,,,,,,,,,,,,139,U,triangle,1,0,,,,,,,,,,,,,,,,switch,letter,lettSwt,k,0.6387,Hi,,,,,,5,,,,,,,,high,6,0,6,0,1,,,,,,,,,
297808,2022-10-04_11h38.27.497,vts_reward_expectancy,2022.2.4,Win32,62.89703755,Chrome,1536,864,,,,,1,1259,,,,,,,,,,,,,,,,,125,H,hexagon,1,0,,,,,,,,,,,,,,,,repeat,letter,lettRpt,j,0.6877,Lo,,,,,,5,,,,,,,,high,7,0,7,0,1,,,,,,,,,
297808,2022-10-04_11h38.27.497,vts_reward_expectancy,2022.2.4,Win32,62.89703755,Chrome,1536,864,,,,,1,1260,,,,,,,,,,,,,,,,,160,B,hexagon,1,0,,,,,,,,,,,,,,,,switch,number,numSwt,f,0.551,Lo,,,,,,5,,,,,,,,high,8,0,8,0,1,,,,,,,,,
297808,2022-10-04_11h38.27.497,vts_reward_expectancy,2022.2.4,Win32,62.89703755,Chrome,1536,864,,,,,10,1270,,,,,,,,,,,,,,,,,146,D,triangle,1,0,,,,,,,,,,,,,,,,repeat,number,numRpt,d,0.6675,Hi,,,,,,5,,,,,,,,high,9,0,9,0,1,,,,,,,,,
297808,2022-10-04_11h38.27.497,vts_reward_expectancy,2022.2.4,Win32,62.89703755,Chrome,1536,864,,,,,10,1280,,,,,,,,,,,,,,,,,132,W,hexagon,1,0,,,,,,,,,,,,,,,,switch,letter,lettSwt,k,0.6821,Lo,,,,,,5,,,,,,,,high,10,0,10,0,1,,,,,,,,,
297808,2022-10-04_11h38.27.497,vts_reward_expectancy,2022.2.4,Win32,62.89703755,Chrome,1536,864,,,,,10,1290,,,,,,,,,,,,,,,,,167,F,triangle,1,0,,,,,,,,,,,,,,,,switch,number,numSwt,f,0.5025,Hi,,,,,,5,,,,,,,,high,11,0,11,0,1,,,,,,,,,
297808,2022-10-04_11h38.27.497,vts_reward_expectancy,2022.2.4,Win32,62.89703755,Chrome,1536,864,,,,,10,1300,,,,,,,,,,,,,,,,,181,Y,hexagon,1,0,,,,,,,,,,,,,,,,switch,letter,lettSwt,k,0.6815,Lo,,,,,,5,,,,,,,,high,12,0,12,0,1,,,,,,,,,
297808,2022-10-04_11h38.27.497,vts_reward_expectancy,2022.2.4,Win32,62.89703755,Chrome,1536,864,,,,,10,1310,,,,,,,,,,,,,,,,,174,S,triangle,1,0,,,,,,,,,,,,,,,,switch,number,numSwt,f,0.6791,Hi,,,,,,5,,,,,,,,high,13,0,13,0,1,,,,,,,,,
297808,2022-10-04_11h38.27.497,vts_reward_expectancy,2022.2.4,Win32,62.89703755,Chrome,1536,864,,,,,1,1311,,,,,,,,,,,,,,,,,139,U,hexagon,1,0,,,,,,,,,,,,,,,,switch,letter,lettSwt,k,0.7881,Lo,,,,,,5,,,,,,,,high,14,0,14,0,1,,,,,,,,,
297808,2022-10-04_11h38.27.497,vts_reward_expectancy,2022.2.4,Win32,62.89703755,Chrome,1536,864,,,,,0,1311,,,,,,,,,,,,,,,,,125,H,triangle,1,0,,,,,,,,,,,,,,,,switch,number,numSwt,d,1.3006,Hi,,,,,,5,,,,,,,,high,15,0,15,0,1,,,,,,,,,
297808,2022-10-04_11h38.27.497,vts_reward_expectancy,2022.2.4,Win32,62.89703755,Chrome,1536,864,,,,,1,1312,,,,,,,,,,,,,,,,,132,S,hexagon,1,0,,,,,,,,,,,,,,,,repeat,number,numRpt,d,0.665,Lo,,,,,,5,,,,,,,,high,16,0,16,0,1,,,,,,,,,
297808,2022-10-04_11h38.27.497,vts_reward_expectancy,2022.2.4,Win32,62.89703755,Chrome,1536,864,,,,,10,1322,,,,,,,,,,,,,,,,,160,U,triangle,1,0,,,,,,,,,,,,,,,,switch,letter,lettSwt,k,0.581,Hi,,,,,,5,,,,,,,,high,17,0,17,0,1,,,,,,,,,
297808,2022-10-04_11h38.27.497,vts_reward_expectancy,2022.2.4,Win32,62.89703755,Chrome,1536,864,,,,,0,1322,,,,,,,,,,,,,,,,,139,F,triangle,1,0,,,,,,,,,,,,,,,,repeat,letter,lettRpt,j,0.7304,Hi,,,,,,5,,,,,,,,high,18,0,18,0,1,,,,,,,,,
297808,2022-10-04_11h38.27.497,vts_reward_expectancy,2022.2.4,Win32,62.89703755,Chrome,1536,864,,,,,1,1323,,,,,,,,,,,,,,,,,146,D,hexagon,1,0,,,,,,,,,,,,,,,,switch,number,numSwt,d,1.0795,Lo,,,,,,5,,,,,,,,high,19,0,19,0,1,,,,,,,,,
297808,2022-10-04_11h38.27.497,vts_reward_expectancy,2022.2.4,Win32,62.89703755,Chrome,1536,864,,,,,10,1333,,,,,,,,,,,,,,,,,181,Y,hexagon,1,0,,,,,,,,,,,,,,,,switch,letter,lettSwt,k,0.6024,Lo,,,,,,5,,,,,,,,high,20,0,20,0,1,,,,,,,,,
297808,2022-10-04_11h38.27.497,vts_reward_expectancy,2022.2.4,Win32,62.89703755,Chrome,1536,864,,,,,0,1333,,,,,,,,,,,,,,,,,167,H,triangle,1,0,,,,,,,,,,,,,,,,repeat,letter,lettRpt,j,0.795,Hi,,,,,,5,,,,,,,,high,21,0,21,0,1,,,,,,,,,
297808,2022-10-04_11h38.27.497,vts_reward_expectancy,2022.2.4,Win32,62.89703755,Chrome,1536,864,,,,,1,1334,,,,,,,,,,,,,,,,,174,B,hexagon,1,0,,,,,,,,,,,,,,,,switch,number,numSwt,f,0.754,Lo,,,,,,5,,,,,,,,high,22,0,22,0,1,,,,,,,,,
297808,2022-10-04_11h38.27.497,vts_reward_expectancy,2022.2.4,Win32,62.89703755,Chrome,1536,864,,,,,0,1334,,,,,,,,,,,,,,,,,125,W,triangle,1,0,,,,,,,,,,,,,,,,repeat,number,numRpt,d,0.7509,Hi,,,,,,5,,,,,,,,high,23,0,23,0,1,,,,,,,,,
297808,2022-10-04_11h38.27.497,vts_reward_expectancy,2022.2.4,Win32,62.89703755,Chrome,1536,864,,,,,0,1334,,,,,,,,,,,,,,,,,174,B,triangle,0,0,,,,,,,,,,,,,,,,repeat,number,NA,d,1.2524,Hi,,,,,,5,,,,,,,,high,24,0,24,0,1,,,,,,,,,
297808,2022-10-04_11h38.27.497,vts_reward_expectancy,2022.2.4,Win32,62.89703755,Chrome,1536,864,,,,,1,1335,,,,,,,,,,,,,,,,,167,F,hexagon,1,1,,,,,,,,,,,,,,,,switch,letter,lettSwt,j,0.6872,Lo,,,,,,5,,,,,,,,high,25,0,25,0,1,,,,,,,,,
297808,2022-10-04_11h38.27.497,vts_reward_expectancy,2022.2.4,Win32,62.89703755,Chrome,1536,864,,,,,1,1336,,,,,,,,,,,,,,,,,125,U,hexagon,1,0,,,,,,,,,,,,,,,,switch,number,numSwt,d,0.9629,Lo,,,,,,5,,,,,,,,high,26,0,26,0,1,,,,,,,,,
297808,2022-10-04_11h38.27.497,vts_reward_expectancy,2022.2.4,Win32,62.89703755,Chrome,1536,864,,,,,0,1336,,,,,,,,,,,,,,,,,132,H,triangle,1,0,,,,,,,,,,,,,,,,repeat,number,numRpt,d,1.8877,Hi,,,,,,5,,,,,,,,high,27,0,27,0,1,,,,,,,,,
297808,2022-10-04_11h38.27.497,vts_reward_expectancy,2022.2.4,Win32,62.89703755,Chrome,1536,864,,,,,1,1337,,,,,,,,,,,,,,,,,181,S,hexagon,1,0,,,,,,,,,,,,,,,,switch,letter,lettSwt,k,0.658,Lo,,,,,,5,,,,,,,,high,28,0,28,0,1,,,,,,,,,
297808,2022-10-04_11h38.27.497,vts_reward_expectancy,2022.2.4,Win32,62.89703755,Chrome,1536,864,,,,,10,1347,,,,,,,,,,,,,,,,,160,W,triangle,1,0,,,,,,,,,,,,,,,,repeat,letter,lettRpt,k,0.5881,Hi,,,,,,5,,,,,,,,high,29,0,29,0,1,,,,,,,,,
297808,2022-10-04_11h38.27.497,vts_reward_expectancy,2022.2.4,Win32,62.89703755,Chrome,1536,864,,,,,10,1357,,,,,,,,,,,,,,,,,146,Y,hexagon,1,0,,,,,,,,,,,,,,,,repeat,letter,lettRpt,k,0.6314,Lo,,,,,,5,,,,,,,,high,30,0,30,0,1,,,,,,,,,
297808,2022-10-04_11h38.27.497,vts_reward_expectancy,2022.2.4,Win32,62.89703755,Chrome,1536,864,,,,,0,1357,,,,,,,,,,,,,,,,,139,D,triangle,1,0,,,,,,,,,,,,,,,,repeat,letter,lettRpt,j,0.8792,Hi,,,,,,5,,,,,,,,high,31,0,31,0,1,,,,,,,,,
297808,2022-10-04_11h38.27.497,vts_reward_expectancy,2022.2.4,Win32,62.89703755,Chrome,1536,864,,,,,,,,,,,,,,,,,,,,,,,,,,,,,,,,,,,,,,,,,,,,,,,,,,,,,,6,,,,,,,,,,,,,,"I was asked to press the keys D and F for numbers and J and K for letters. Then shapes were show, letters and numbers flashed. I had to press the key that corresponded with the letter or number I was given.  ",2,,4,3,1,I didn't like it when it kept telling me to respond fasted because I felt like I stayed consistant with most of my response times.,1536,864
