participant,date,expName,psychopyVersion,OS,frameRate,browser,xResolution,yResolution,key_resp.keys,key_resp.rt,training_resp.keys,training_resp.rt,points_trial,points_cumul,trainBlock,training.thisRepN,training.thisTrialN,training.thisN,training.thisIndex,training.ran,LTriangleOpac,LCircleOpac,LHexagonOpac,LStarOpac,RTriangleOpac,RCircleOpac,RHexagonOpac,RStarOpac,LShape_ID,RShape_ID,curr_topStim,curr_bottStim,curr_shape,acc,E1,target_resp_prac1.keys,target_resp_prac1.rt,pracBlock,task1_prac_trials.thisRepN,task1_prac_trials.thisTrialN,task1_prac_trials.thisN,task1_prac_trials.thisIndex,task1_prac_trials.ran,target_resp_prac2.keys,target_resp_prac2.rt,task2_praac_trials.thisRepN,task2_praac_trials.thisTrialN,task2_praac_trials.thisN,task2_praac_trials.thisIndex,task2_praac_trials.ran,alt,task,condition,target_resp.keys,rewCond,vts_practice_trials.thisRepN,vts_practice_trials.thisTrialN,vts_practice_trials.thisN,vts_practice_trials.thisIndex,vts_practice_trials.ran,target_resp.rt,blockNum,trials_norew.thisRepN,trials_norew.thisTrialN,trials_norew.thisN,trials_norew.thisIndex,trials_norew.ran,key_resp_2.keys,key_resp_2.rt,rewExpect,trials_rew.thisRepN,trials_rew.thisTrialN,trials_rew.thisN,trials_rew.thisIndex,trials_rew.ran,Q1,Q2,Q2_text,Q3,Q4,Q5_text,Q5,xRes,yRes
293212,2022-09-21_22h10.46.022,vts_reward_expectancy,2022.2.4,MacIntel,60.0024001,Chrome,1280,800,,,,,,,,,,,,,,,,,,,,,,,,,,,,,,,,,,,,,,,,,,,,,,,,,,,,,,,,,,,,,,,,,,,,,,,,,,,,
293212,2022-09-21_22h10.46.022,vts_reward_expectancy,2022.2.4,MacIntel,60.0024001,Chrome,1280,800,space,0.871,,,,,,,,,,,,,,,,,,,,,,,,,,,,,,,,,,,,,,,,,,,,,,,,,,,,,,,,,,,,,,,,,,,,,,,,,,
293212,2022-09-21_22h10.46.022,vts_reward_expectancy,2022.2.4,MacIntel,60.0024001,Chrome,1280,800,,,,,,,,,,,,,,,,,,,,,,,,,,,,,,,,,,,,,,,,,,,,,,,,,,,,,,,,,,,,,,,,,,,,,,,,,,,,
293212,2022-09-21_22h10.46.022,vts_reward_expectancy,2022.2.4,MacIntel,60.0024001,Chrome,1280,800,,,l,1.0108,1,1,0,0,0,0,10,1,0,0,0,1,0,1,0,0,star ,circle,,,,,,,,,,,,,,,,,,,,,,,,,,,,,,,,,,,,,,,,,,,,,,,,,,,,,,
293212,2022-09-21_22h10.46.022,vts_reward_expectancy,2022.2.4,MacIntel,60.0024001,Chrome,1280,800,,,l,0.825,1,2,0,0,1,1,3,1,0,1,0,0,1,0,0,0,circle,triangle,,,,,,,,,,,,,,,,,,,,,,,,,,,,,,,,,,,,,,,,,,,,,,,,,,,,,,
293212,2022-09-21_22h10.46.022,vts_reward_expectancy,2022.2.4,MacIntel,60.0024001,Chrome,1280,800,,,a,0.2987,10,12,0,0,2,2,7,1,0,0,1,0,0,1,0,0,hexagon,circle,,,,,,,,,,,,,,,,,,,,,,,,,,,,,,,,,,,,,,,,,,,,,,,,,,,,,,
293212,2022-09-21_22h10.46.022,vts_reward_expectancy,2022.2.4,MacIntel,60.0024001,Chrome,1280,800,,,l,0.1593,10,22,0,0,3,3,11,1,0,0,0,1,0,0,1,0,star,hexagon,,,,,,,,,,,,,,,,,,,,,,,,,,,,,,,,,,,,,,,,,,,,,,,,,,,,,,
293212,2022-09-21_22h10.46.022,vts_reward_expectancy,2022.2.4,MacIntel,60.0024001,Chrome,1280,800,,,a,0.5023,1,23,0,0,4,4,2,1,1,0,0,0,0,0,0,1,triangle,star,,,,,,,,,,,,,,,,,,,,,,,,,,,,,,,,,,,,,,,,,,,,,,,,,,,,,,
293212,2022-09-21_22h10.46.022,vts_reward_expectancy,2022.2.4,MacIntel,60.0024001,Chrome,1280,800,,,a,0.4995,1,24,0,0,5,5,8,1,0,0,1,0,0,0,0,1,hexagon,star,,,,,,,,,,,,,,,,,,,,,,,,,,,,,,,,,,,,,,,,,,,,,,,,,,,,,,
293212,2022-09-21_22h10.46.022,vts_reward_expectancy,2022.2.4,MacIntel,60.0024001,Chrome,1280,800,,,l,0.6499,1,25,0,0,6,6,5,1,0,1,0,0,0,0,0,1,circle,star,,,,,,,,,,,,,,,,,,,,,,,,,,,,,,,,,,,,,,,,,,,,,,,,,,,,,,
293212,2022-09-21_22h10.46.022,vts_reward_expectancy,2022.2.4,MacIntel,60.0024001,Chrome,1280,800,,,a,0.8546,10,35,0,0,7,7,6,1,0,0,1,0,1,0,0,0,hexagon,triangle,,,,,,,,,,,,,,,,,,,,,,,,,,,,,,,,,,,,,,,,,,,,,,,,,,,,,,
293212,2022-09-21_22h10.46.022,vts_reward_expectancy,2022.2.4,MacIntel,60.0024001,Chrome,1280,800,,,a,4.4343,1,36,0,0,8,8,4,1,0,1,0,0,0,0,1,0,circle,hexagon,,,,,,,,,,,,,,,,,,,,,,,,,,,,,,,,,,,,,,,,,,,,,,,,,,,,,,
293212,2022-09-21_22h10.46.022,vts_reward_expectancy,2022.2.4,MacIntel,60.0024001,Chrome,1280,800,,,l,6.0509,10,46,0,0,9,9,9,1,0,0,0,1,1,0,0,0,star,triangle,,,,,,,,,,,,,,,,,,,,,,,,,,,,,,,,,,,,,,,,,,,,,,,,,,,,,,
293212,2022-09-21_22h10.46.022,vts_reward_expectancy,2022.2.4,MacIntel,60.0024001,Chrome,1280,800,,,a,7.1261,1,47,0,0,10,10,1,1,1,0,0,0,0,0,1,0,triangle,hexagon,,,,,,,,,,,,,,,,,,,,,,,,,,,,,,,,,,,,,,,,,,,,,,,,,,,,,,
293212,2022-09-21_22h10.46.022,vts_reward_expectancy,2022.2.4,MacIntel,60.0024001,Chrome,1280,800,,,l,0.6344,10,57,0,0,11,11,0,1,1,0,0,0,0,1,0,0,triangle,circle,,,,,,,,,,,,,,,,,,,,,,,,,,,,,,,,,,,,,,,,,,,,,,,,,,,,,,
293212,2022-09-21_22h10.46.022,vts_reward_expectancy,2022.2.4,MacIntel,60.0024001,Chrome,1280,800,,,a,1.2752,10,67,0,1,0,12,9,1,0,0,0,1,1,0,0,0,star,triangle,,,,,,,,,,,,,,,,,,,,,,,,,,,,,,,,,,,,,,,,,,,,,,,,,,,,,,
293212,2022-09-21_22h10.46.022,vts_reward_expectancy,2022.2.4,MacIntel,60.0024001,Chrome,1280,800,,,l,0.6567,1,68,0,1,1,13,10,1,0,0,0,1,0,1,0,0,star ,circle,,,,,,,,,,,,,,,,,,,,,,,,,,,,,,,,,,,,,,,,,,,,,,,,,,,,,,
293212,2022-09-21_22h10.46.022,vts_reward_expectancy,2022.2.4,MacIntel,60.0024001,Chrome,1280,800,,,l,0.4165,10,78,0,1,2,14,3,1,0,1,0,0,1,0,0,0,circle,triangle,,,,,,,,,,,,,,,,,,,,,,,,,,,,,,,,,,,,,,,,,,,,,,,,,,,,,,
293212,2022-09-21_22h10.46.022,vts_reward_expectancy,2022.2.4,MacIntel,60.0024001,Chrome,1280,800,,,l,0.5417,1,79,0,1,3,15,4,1,0,1,0,0,0,0,1,0,circle,hexagon,,,,,,,,,,,,,,,,,,,,,,,,,,,,,,,,,,,,,,,,,,,,,,,,,,,,,,
293212,2022-09-21_22h10.46.022,vts_reward_expectancy,2022.2.4,MacIntel,60.0024001,Chrome,1280,800,,,a,0.2221,10,89,0,1,4,16,1,1,1,0,0,0,0,0,1,0,triangle,hexagon,,,,,,,,,,,,,,,,,,,,,,,,,,,,,,,,,,,,,,,,,,,,,,,,,,,,,,
293212,2022-09-21_22h10.46.022,vts_reward_expectancy,2022.2.4,MacIntel,60.0024001,Chrome,1280,800,,,l,0.3217,1,90,0,1,5,17,11,1,0,0,0,1,0,0,1,0,star,hexagon,,,,,,,,,,,,,,,,,,,,,,,,,,,,,,,,,,,,,,,,,,,,,,,,,,,,,,
293212,2022-09-21_22h10.46.022,vts_reward_expectancy,2022.2.4,MacIntel,60.0024001,Chrome,1280,800,,,a,0.336,10,100,0,1,6,18,8,1,0,0,1,0,0,0,0,1,hexagon,star,,,,,,,,,,,,,,,,,,,,,,,,,,,,,,,,,,,,,,,,,,,,,,,,,,,,,,
293212,2022-09-21_22h10.46.022,vts_reward_expectancy,2022.2.4,MacIntel,60.0024001,Chrome,1280,800,,,a,0.5194,1,101,0,1,7,19,5,1,0,1,0,0,0,0,0,1,circle,star,,,,,,,,,,,,,,,,,,,,,,,,,,,,,,,,,,,,,,,,,,,,,,,,,,,,,,
293212,2022-09-21_22h10.46.022,vts_reward_expectancy,2022.2.4,MacIntel,60.0024001,Chrome,1280,800,,,l,0.1881,10,111,0,1,8,20,6,1,0,0,1,0,1,0,0,0,hexagon,triangle,,,,,,,,,,,,,,,,,,,,,,,,,,,,,,,,,,,,,,,,,,,,,,,,,,,,,,
293212,2022-09-21_22h10.46.022,vts_reward_expectancy,2022.2.4,MacIntel,60.0024001,Chrome,1280,800,,,l,0.3097,1,112,0,1,9,21,0,1,1,0,0,0,0,1,0,0,triangle,circle,,,,,,,,,,,,,,,,,,,,,,,,,,,,,,,,,,,,,,,,,,,,,,,,,,,,,,
293212,2022-09-21_22h10.46.022,vts_reward_expectancy,2022.2.4,MacIntel,60.0024001,Chrome,1280,800,,,a,0.3521,1,113,0,1,10,22,7,1,0,0,1,0,0,1,0,0,hexagon,circle,,,,,,,,,,,,,,,,,,,,,,,,,,,,,,,,,,,,,,,,,,,,,,,,,,,,,,
293212,2022-09-21_22h10.46.022,vts_reward_expectancy,2022.2.4,MacIntel,60.0024001,Chrome,1280,800,,,l,0.2164,10,123,0,1,11,23,2,1,1,0,0,0,0,0,0,1,triangle,star,,,,,,,,,,,,,,,,,,,,,,,,,,,,,,,,,,,,,,,,,,,,,,,,,,,,,,
293212,2022-09-21_22h10.46.022,vts_reward_expectancy,2022.2.4,MacIntel,60.0024001,Chrome,1280,800,,,l,0.3195,10,133,0,2,0,24,11,1,0,0,0,1,0,0,1,0,star,hexagon,,,,,,,,,,,,,,,,,,,,,,,,,,,,,,,,,,,,,,,,,,,,,,,,,,,,,,
293212,2022-09-21_22h10.46.022,vts_reward_expectancy,2022.2.4,MacIntel,60.0024001,Chrome,1280,800,,,l,0.319,10,143,0,2,1,25,3,1,0,1,0,0,1,0,0,0,circle,triangle,,,,,,,,,,,,,,,,,,,,,,,,,,,,,,,,,,,,,,,,,,,,,,,,,,,,,,
293212,2022-09-21_22h10.46.022,vts_reward_expectancy,2022.2.4,MacIntel,60.0024001,Chrome,1280,800,,,l,0.4054,10,153,0,2,2,26,1,1,1,0,0,0,0,0,1,0,triangle,hexagon,,,,,,,,,,,,,,,,,,,,,,,,,,,,,,,,,,,,,,,,,,,,,,,,,,,,,,
293212,2022-09-21_22h10.46.022,vts_reward_expectancy,2022.2.4,MacIntel,60.0024001,Chrome,1280,800,,,a,0.2706,10,163,0,2,3,27,6,1,0,0,1,0,1,0,0,0,hexagon,triangle,,,,,,,,,,,,,,,,,,,,,,,,,,,,,,,,,,,,,,,,,,,,,,,,,,,,,,
293212,2022-09-21_22h10.46.022,vts_reward_expectancy,2022.2.4,MacIntel,60.0024001,Chrome,1280,800,,,l,0.3594,1,164,0,2,4,28,9,1,0,0,0,1,1,0,0,0,star,triangle,,,,,,,,,,,,,,,,,,,,,,,,,,,,,,,,,,,,,,,,,,,,,,,,,,,,,,
293212,2022-09-21_22h10.46.022,vts_reward_expectancy,2022.2.4,MacIntel,60.0024001,Chrome,1280,800,,,l,0.2141,1,165,0,2,5,29,7,1,0,0,1,0,0,1,0,0,hexagon,circle,,,,,,,,,,,,,,,,,,,,,,,,,,,,,,,,,,,,,,,,,,,,,,,,,,,,,,
293212,2022-09-21_22h10.46.022,vts_reward_expectancy,2022.2.4,MacIntel,60.0024001,Chrome,1280,800,,,l,0.2422,1,166,0,2,6,30,10,1,0,0,0,1,0,1,0,0,star ,circle,,,,,,,,,,,,,,,,,,,,,,,,,,,,,,,,,,,,,,,,,,,,,,,,,,,,,,
293212,2022-09-21_22h10.46.022,vts_reward_expectancy,2022.2.4,MacIntel,60.0024001,Chrome,1280,800,,,a,0.4513,1,167,0,2,7,31,4,1,0,1,0,0,0,0,1,0,circle,hexagon,,,,,,,,,,,,,,,,,,,,,,,,,,,,,,,,,,,,,,,,,,,,,,,,,,,,,,
293212,2022-09-21_22h10.46.022,vts_reward_expectancy,2022.2.4,MacIntel,60.0024001,Chrome,1280,800,,,l,0.4019,1,168,0,2,8,32,0,1,1,0,0,0,0,1,0,0,triangle,circle,,,,,,,,,,,,,,,,,,,,,,,,,,,,,,,,,,,,,,,,,,,,,,,,,,,,,,
293212,2022-09-21_22h10.46.022,vts_reward_expectancy,2022.2.4,MacIntel,60.0024001,Chrome,1280,800,,,l,0.5361,10,178,0,2,9,33,8,1,0,0,1,0,0,0,0,1,hexagon,star,,,,,,,,,,,,,,,,,,,,,,,,,,,,,,,,,,,,,,,,,,,,,,,,,,,,,,
293212,2022-09-21_22h10.46.022,vts_reward_expectancy,2022.2.4,MacIntel,60.0024001,Chrome,1280,800,,,a,0.5178,10,188,0,2,10,34,2,1,1,0,0,0,0,0,0,1,triangle,star,,,,,,,,,,,,,,,,,,,,,,,,,,,,,,,,,,,,,,,,,,,,,,,,,,,,,,
293212,2022-09-21_22h10.46.022,vts_reward_expectancy,2022.2.4,MacIntel,60.0024001,Chrome,1280,800,,,l,0.4157,10,198,0,2,11,35,5,1,0,1,0,0,0,0,0,1,circle,star,,,,,,,,,,,,,,,,,,,,,,,,,,,,,,,,,,,,,,,,,,,,,,,,,,,,,,
293212,2022-09-21_22h10.46.022,vts_reward_expectancy,2022.2.4,MacIntel,60.0024001,Chrome,1280,800,,,a,0.4655,10,208,1,0,0,0,11,1,0,0,0,1,0,0,1,0,star,hexagon,,,,,,,,,,,,,,,,,,,,,,,,,,,,,,,,,,,,,,,,,,,,,,,,,,,,,,
293212,2022-09-21_22h10.46.022,vts_reward_expectancy,2022.2.4,MacIntel,60.0024001,Chrome,1280,800,,,a,0.4566,1,209,1,0,1,1,9,1,0,0,0,1,1,0,0,0,star,triangle,,,,,,,,,,,,,,,,,,,,,,,,,,,,,,,,,,,,,,,,,,,,,,,,,,,,,,
293212,2022-09-21_22h10.46.022,vts_reward_expectancy,2022.2.4,MacIntel,60.0024001,Chrome,1280,800,,,l,0.3678,10,219,1,0,2,2,6,1,0,0,1,0,1,0,0,0,hexagon,triangle,,,,,,,,,,,,,,,,,,,,,,,,,,,,,,,,,,,,,,,,,,,,,,,,,,,,,,
293212,2022-09-21_22h10.46.022,vts_reward_expectancy,2022.2.4,MacIntel,60.0024001,Chrome,1280,800,,,a,0.9509,10,229,1,0,3,3,2,1,1,0,0,0,0,0,0,1,triangle,star,,,,,,,,,,,,,,,,,,,,,,,,,,,,,,,,,,,,,,,,,,,,,,,,,,,,,,
293212,2022-09-21_22h10.46.022,vts_reward_expectancy,2022.2.4,MacIntel,60.0024001,Chrome,1280,800,,,a,3.2221,10,239,1,0,4,4,10,1,0,0,0,1,0,1,0,0,star ,circle,,,,,,,,,,,,,,,,,,,,,,,,,,,,,,,,,,,,,,,,,,,,,,,,,,,,,,
293212,2022-09-21_22h10.46.022,vts_reward_expectancy,2022.2.4,MacIntel,60.0024001,Chrome,1280,800,,,l,0.3353,10,249,1,0,5,5,5,1,0,1,0,0,0,0,0,1,circle,star,,,,,,,,,,,,,,,,,,,,,,,,,,,,,,,,,,,,,,,,,,,,,,,,,,,,,,
293212,2022-09-21_22h10.46.022,vts_reward_expectancy,2022.2.4,MacIntel,60.0024001,Chrome,1280,800,,,l,1.2099,1,250,1,0,6,6,1,1,1,0,0,0,0,0,1,0,triangle,hexagon,,,,,,,,,,,,,,,,,,,,,,,,,,,,,,,,,,,,,,,,,,,,,,,,,,,,,,
293212,2022-09-21_22h10.46.022,vts_reward_expectancy,2022.2.4,MacIntel,60.0024001,Chrome,1280,800,,,l,0.7841,1,251,1,0,7,7,7,1,0,0,1,0,0,1,0,0,hexagon,circle,,,,,,,,,,,,,,,,,,,,,,,,,,,,,,,,,,,,,,,,,,,,,,,,,,,,,,
293212,2022-09-21_22h10.46.022,vts_reward_expectancy,2022.2.4,MacIntel,60.0024001,Chrome,1280,800,,,a,0.6344,1,252,1,0,8,8,8,1,0,0,1,0,0,0,0,1,hexagon,star,,,,,,,,,,,,,,,,,,,,,,,,,,,,,,,,,,,,,,,,,,,,,,,,,,,,,,
293212,2022-09-21_22h10.46.022,vts_reward_expectancy,2022.2.4,MacIntel,60.0024001,Chrome,1280,800,,,l,0.3213,10,262,1,0,9,9,3,1,0,1,0,0,1,0,0,0,circle,triangle,,,,,,,,,,,,,,,,,,,,,,,,,,,,,,,,,,,,,,,,,,,,,,,,,,,,,,
293212,2022-09-21_22h10.46.022,vts_reward_expectancy,2022.2.4,MacIntel,60.0024001,Chrome,1280,800,,,a,0.7747,1,263,1,0,10,10,4,1,0,1,0,0,0,0,1,0,circle,hexagon,,,,,,,,,,,,,,,,,,,,,,,,,,,,,,,,,,,,,,,,,,,,,,,,,,,,,,
293212,2022-09-21_22h10.46.022,vts_reward_expectancy,2022.2.4,MacIntel,60.0024001,Chrome,1280,800,,,l,0.4526,1,264,1,0,11,11,0,1,1,0,0,0,0,1,0,0,triangle,circle,,,,,,,,,,,,,,,,,,,,,,,,,,,,,,,,,,,,,,,,,,,,,,,,,,,,,,
293212,2022-09-21_22h10.46.022,vts_reward_expectancy,2022.2.4,MacIntel,60.0024001,Chrome,1280,800,,,a,0.4513,1,265,1,1,0,12,9,1,0,0,0,1,1,0,0,0,star,triangle,,,,,,,,,,,,,,,,,,,,,,,,,,,,,,,,,,,,,,,,,,,,,,,,,,,,,,
293212,2022-09-21_22h10.46.022,vts_reward_expectancy,2022.2.4,MacIntel,60.0024001,Chrome,1280,800,,,a,0.3329,10,275,1,1,1,13,7,1,0,0,1,0,0,1,0,0,hexagon,circle,,,,,,,,,,,,,,,,,,,,,,,,,,,,,,,,,,,,,,,,,,,,,,,,,,,,,,
293212,2022-09-21_22h10.46.022,vts_reward_expectancy,2022.2.4,MacIntel,60.0024001,Chrome,1280,800,,,l,0.7539,10,285,1,1,2,14,2,1,1,0,0,0,0,0,0,1,triangle,star,,,,,,,,,,,,,,,,,,,,,,,,,,,,,,,,,,,,,,,,,,,,,,,,,,,,,,
293212,2022-09-21_22h10.46.022,vts_reward_expectancy,2022.2.4,MacIntel,60.0024001,Chrome,1280,800,,,l,0.4341,10,295,1,1,3,15,4,1,0,1,0,0,0,0,1,0,circle,hexagon,,,,,,,,,,,,,,,,,,,,,,,,,,,,,,,,,,,,,,,,,,,,,,,,,,,,,,
293212,2022-09-21_22h10.46.022,vts_reward_expectancy,2022.2.4,MacIntel,60.0024001,Chrome,1280,800,,,a,0.3591,10,305,1,1,4,16,0,1,1,0,0,0,0,1,0,0,triangle,circle,,,,,,,,,,,,,,,,,,,,,,,,,,,,,,,,,,,,,,,,,,,,,,,,,,,,,,
293212,2022-09-21_22h10.46.022,vts_reward_expectancy,2022.2.4,MacIntel,60.0024001,Chrome,1280,800,,,l,0.6009,10,315,1,1,5,17,5,1,0,1,0,0,0,0,0,1,circle,star,,,,,,,,,,,,,,,,,,,,,,,,,,,,,,,,,,,,,,,,,,,,,,,,,,,,,,
293212,2022-09-21_22h10.46.022,vts_reward_expectancy,2022.2.4,MacIntel,60.0024001,Chrome,1280,800,,,a,0.4227,1,316,1,1,6,18,11,1,0,0,0,1,0,0,1,0,star,hexagon,,,,,,,,,,,,,,,,,,,,,,,,,,,,,,,,,,,,,,,,,,,,,,,,,,,,,,
293212,2022-09-21_22h10.46.022,vts_reward_expectancy,2022.2.4,MacIntel,60.0024001,Chrome,1280,800,,,l,0.3696,1,317,1,1,7,19,1,1,1,0,0,0,0,0,1,0,triangle,hexagon,,,,,,,,,,,,,,,,,,,,,,,,,,,,,,,,,,,,,,,,,,,,,,,,,,,,,,
293212,2022-09-21_22h10.46.022,vts_reward_expectancy,2022.2.4,MacIntel,60.0024001,Chrome,1280,800,,,a,0.3578,1,318,1,1,8,20,3,1,0,1,0,0,1,0,0,0,circle,triangle,,,,,,,,,,,,,,,,,,,,,,,,,,,,,,,,,,,,,,,,,,,,,,,,,,,,,,
293212,2022-09-21_22h10.46.022,vts_reward_expectancy,2022.2.4,MacIntel,60.0024001,Chrome,1280,800,,,l,0.3825,10,328,1,1,9,21,8,1,0,0,1,0,0,0,0,1,hexagon,star,,,,,,,,,,,,,,,,,,,,,,,,,,,,,,,,,,,,,,,,,,,,,,,,,,,,,,
293212,2022-09-21_22h10.46.022,vts_reward_expectancy,2022.2.4,MacIntel,60.0024001,Chrome,1280,800,,,l,0.2861,10,338,1,1,10,22,10,1,0,0,0,1,0,1,0,0,star ,circle,,,,,,,,,,,,,,,,,,,,,,,,,,,,,,,,,,,,,,,,,,,,,,,,,,,,,,
293212,2022-09-21_22h10.46.022,vts_reward_expectancy,2022.2.4,MacIntel,60.0024001,Chrome,1280,800,,,l,0.3366,10,348,1,1,11,23,6,1,0,0,1,0,1,0,0,0,hexagon,triangle,,,,,,,,,,,,,,,,,,,,,,,,,,,,,,,,,,,,,,,,,,,,,,,,,,,,,,
293212,2022-09-21_22h10.46.022,vts_reward_expectancy,2022.2.4,MacIntel,60.0024001,Chrome,1280,800,,,a,4.8859,1,349,1,2,0,24,4,1,0,1,0,0,0,0,1,0,circle,hexagon,,,,,,,,,,,,,,,,,,,,,,,,,,,,,,,,,,,,,,,,,,,,,,,,,,,,,,
293212,2022-09-21_22h10.46.022,vts_reward_expectancy,2022.2.4,MacIntel,60.0024001,Chrome,1280,800,,,a,0.3991,1,350,1,2,1,25,10,1,0,0,0,1,0,1,0,0,star ,circle,,,,,,,,,,,,,,,,,,,,,,,,,,,,,,,,,,,,,,,,,,,,,,,,,,,,,,
293212,2022-09-21_22h10.46.022,vts_reward_expectancy,2022.2.4,MacIntel,60.0024001,Chrome,1280,800,,,l,0.6858,10,360,1,2,2,26,6,1,0,0,1,0,1,0,0,0,hexagon,triangle,,,,,,,,,,,,,,,,,,,,,,,,,,,,,,,,,,,,,,,,,,,,,,,,,,,,,,
293212,2022-09-21_22h10.46.022,vts_reward_expectancy,2022.2.4,MacIntel,60.0024001,Chrome,1280,800,,,l,0.4105,1,361,1,2,3,27,1,1,1,0,0,0,0,0,1,0,triangle,hexagon,,,,,,,,,,,,,,,,,,,,,,,,,,,,,,,,,,,,,,,,,,,,,,,,,,,,,,
293212,2022-09-21_22h10.46.022,vts_reward_expectancy,2022.2.4,MacIntel,60.0024001,Chrome,1280,800,,,a,0.3248,10,371,1,2,4,28,11,1,0,0,0,1,0,0,1,0,star,hexagon,,,,,,,,,,,,,,,,,,,,,,,,,,,,,,,,,,,,,,,,,,,,,,,,,,,,,,
293212,2022-09-21_22h10.46.022,vts_reward_expectancy,2022.2.4,MacIntel,60.0024001,Chrome,1280,800,,,l,0.2837,1,372,1,2,5,29,5,1,0,1,0,0,0,0,0,1,circle,star,,,,,,,,,,,,,,,,,,,,,,,,,,,,,,,,,,,,,,,,,,,,,,,,,,,,,,
293212,2022-09-21_22h10.46.022,vts_reward_expectancy,2022.2.4,MacIntel,60.0024001,Chrome,1280,800,,,a,0.3386,1,373,1,2,6,30,9,1,0,0,0,1,1,0,0,0,star,triangle,,,,,,,,,,,,,,,,,,,,,,,,,,,,,,,,,,,,,,,,,,,,,,,,,,,,,,
293212,2022-09-21_22h10.46.022,vts_reward_expectancy,2022.2.4,MacIntel,60.0024001,Chrome,1280,800,,,l,0.2999,1,374,1,2,7,31,7,1,0,0,1,0,0,1,0,0,hexagon,circle,,,,,,,,,,,,,,,,,,,,,,,,,,,,,,,,,,,,,,,,,,,,,,,,,,,,,,
293212,2022-09-21_22h10.46.022,vts_reward_expectancy,2022.2.4,MacIntel,60.0024001,Chrome,1280,800,,,a,0.2389,10,384,1,2,8,32,8,1,0,0,1,0,0,0,0,1,hexagon,star,,,,,,,,,,,,,,,,,,,,,,,,,,,,,,,,,,,,,,,,,,,,,,,,,,,,,,
293212,2022-09-21_22h10.46.022,vts_reward_expectancy,2022.2.4,MacIntel,60.0024001,Chrome,1280,800,,,l,0.3171,10,394,1,2,9,33,3,1,0,1,0,0,1,0,0,0,circle,triangle,,,,,,,,,,,,,,,,,,,,,,,,,,,,,,,,,,,,,,,,,,,,,,,,,,,,,,
293212,2022-09-21_22h10.46.022,vts_reward_expectancy,2022.2.4,MacIntel,60.0024001,Chrome,1280,800,,,l,0.3184,1,395,1,2,10,34,0,1,1,0,0,0,0,1,0,0,triangle,circle,,,,,,,,,,,,,,,,,,,,,,,,,,,,,,,,,,,,,,,,,,,,,,,,,,,,,,
293212,2022-09-21_22h10.46.022,vts_reward_expectancy,2022.2.4,MacIntel,60.0024001,Chrome,1280,800,,,a,0.3064,10,405,1,2,11,35,2,1,1,0,0,0,0,0,0,1,triangle,star,,,,,,,,,,,,,,,,,,,,,,,,,,,,,,,,,,,,,,,,,,,,,,,,,,,,,,
293212,2022-09-21_22h10.46.022,vts_reward_expectancy,2022.2.4,MacIntel,60.0024001,Chrome,1280,800,,,a,0.5672,10,415,2,0,0,0,0,1,1,0,0,0,0,1,0,0,triangle,circle,,,,,,,,,,,,,,,,,,,,,,,,,,,,,,,,,,,,,,,,,,,,,,,,,,,,,,
293212,2022-09-21_22h10.46.022,vts_reward_expectancy,2022.2.4,MacIntel,60.0024001,Chrome,1280,800,,,l,0.3869,1,416,2,0,1,1,10,1,0,0,0,1,0,1,0,0,star ,circle,,,,,,,,,,,,,,,,,,,,,,,,,,,,,,,,,,,,,,,,,,,,,,,,,,,,,,
293212,2022-09-21_22h10.46.022,vts_reward_expectancy,2022.2.4,MacIntel,60.0024001,Chrome,1280,800,,,a,0.3166,1,417,2,0,2,2,5,1,0,1,0,0,0,0,0,1,circle,star,,,,,,,,,,,,,,,,,,,,,,,,,,,,,,,,,,,,,,,,,,,,,,,,,,,,,,
293212,2022-09-21_22h10.46.022,vts_reward_expectancy,2022.2.4,MacIntel,60.0024001,Chrome,1280,800,,,l,0.2861,10,427,2,0,3,3,8,1,0,0,1,0,0,0,0,1,hexagon,star,,,,,,,,,,,,,,,,,,,,,,,,,,,,,,,,,,,,,,,,,,,,,,,,,,,,,,
293212,2022-09-21_22h10.46.022,vts_reward_expectancy,2022.2.4,MacIntel,60.0024001,Chrome,1280,800,,,l,0.4018,10,437,2,0,4,4,6,1,0,0,1,0,1,0,0,0,hexagon,triangle,,,,,,,,,,,,,,,,,,,,,,,,,,,,,,,,,,,,,,,,,,,,,,,,,,,,,,
293212,2022-09-21_22h10.46.022,vts_reward_expectancy,2022.2.4,MacIntel,60.0024001,Chrome,1280,800,,,a,0.7276,10,447,2,0,5,5,11,1,0,0,0,1,0,0,1,0,star,hexagon,,,,,,,,,,,,,,,,,,,,,,,,,,,,,,,,,,,,,,,,,,,,,,,,,,,,,,
293212,2022-09-21_22h10.46.022,vts_reward_expectancy,2022.2.4,MacIntel,60.0024001,Chrome,1280,800,,,l,0.2849,1,448,2,0,6,6,4,1,0,1,0,0,0,0,1,0,circle,hexagon,,,,,,,,,,,,,,,,,,,,,,,,,,,,,,,,,,,,,,,,,,,,,,,,,,,,,,
293212,2022-09-21_22h10.46.022,vts_reward_expectancy,2022.2.4,MacIntel,60.0024001,Chrome,1280,800,,,l,0.309,10,458,2,0,7,7,9,1,0,0,0,1,1,0,0,0,star,triangle,,,,,,,,,,,,,,,,,,,,,,,,,,,,,,,,,,,,,,,,,,,,,,,,,,,,,,
293212,2022-09-21_22h10.46.022,vts_reward_expectancy,2022.2.4,MacIntel,60.0024001,Chrome,1280,800,,,a,0.3154,10,468,2,0,8,8,1,1,1,0,0,0,0,0,1,0,triangle,hexagon,,,,,,,,,,,,,,,,,,,,,,,,,,,,,,,,,,,,,,,,,,,,,,,,,,,,,,
293212,2022-09-21_22h10.46.022,vts_reward_expectancy,2022.2.4,MacIntel,60.0024001,Chrome,1280,800,,,a,0.2671,1,469,2,0,9,9,2,1,1,0,0,0,0,0,0,1,triangle,star,,,,,,,,,,,,,,,,,,,,,,,,,,,,,,,,,,,,,,,,,,,,,,,,,,,,,,
293212,2022-09-21_22h10.46.022,vts_reward_expectancy,2022.2.4,MacIntel,60.0024001,Chrome,1280,800,,,l,0.3511,1,470,2,0,10,10,3,1,0,1,0,0,1,0,0,0,circle,triangle,,,,,,,,,,,,,,,,,,,,,,,,,,,,,,,,,,,,,,,,,,,,,,,,,,,,,,
293212,2022-09-21_22h10.46.022,vts_reward_expectancy,2022.2.4,MacIntel,60.0024001,Chrome,1280,800,,,a,0.4032,10,480,2,0,11,11,7,1,0,0,1,0,0,1,0,0,hexagon,circle,,,,,,,,,,,,,,,,,,,,,,,,,,,,,,,,,,,,,,,,,,,,,,,,,,,,,,
293212,2022-09-21_22h10.46.022,vts_reward_expectancy,2022.2.4,MacIntel,60.0024001,Chrome,1280,800,,,a,0.3546,10,490,2,1,0,12,9,1,0,0,0,1,1,0,0,0,star,triangle,,,,,,,,,,,,,,,,,,,,,,,,,,,,,,,,,,,,,,,,,,,,,,,,,,,,,,
293212,2022-09-21_22h10.46.022,vts_reward_expectancy,2022.2.4,MacIntel,60.0024001,Chrome,1280,800,,,l,1.4883,1,491,2,1,1,13,0,1,1,0,0,0,0,1,0,0,triangle,circle,,,,,,,,,,,,,,,,,,,,,,,,,,,,,,,,,,,,,,,,,,,,,,,,,,,,,,
293212,2022-09-21_22h10.46.022,vts_reward_expectancy,2022.2.4,MacIntel,60.0024001,Chrome,1280,800,,,l,0.4023,10,501,2,1,2,14,6,1,0,0,1,0,1,0,0,0,hexagon,triangle,,,,,,,,,,,,,,,,,,,,,,,,,,,,,,,,,,,,,,,,,,,,,,,,,,,,,,
293212,2022-09-21_22h10.46.022,vts_reward_expectancy,2022.2.4,MacIntel,60.0024001,Chrome,1280,800,,,a,0.5016,10,511,2,1,3,15,2,1,1,0,0,0,0,0,0,1,triangle,star,,,,,,,,,,,,,,,,,,,,,,,,,,,,,,,,,,,,,,,,,,,,,,,,,,,,,,
293212,2022-09-21_22h10.46.022,vts_reward_expectancy,2022.2.4,MacIntel,60.0024001,Chrome,1280,800,,,a,0.6518,1,512,2,1,4,16,3,1,0,1,0,0,1,0,0,0,circle,triangle,,,,,,,,,,,,,,,,,,,,,,,,,,,,,,,,,,,,,,,,,,,,,,,,,,,,,,
293212,2022-09-21_22h10.46.022,vts_reward_expectancy,2022.2.4,MacIntel,60.0024001,Chrome,1280,800,,,l,0.5263,1,513,2,1,5,17,8,1,0,0,1,0,0,0,0,1,hexagon,star,,,,,,,,,,,,,,,,,,,,,,,,,,,,,,,,,,,,,,,,,,,,,,,,,,,,,,
293212,2022-09-21_22h10.46.022,vts_reward_expectancy,2022.2.4,MacIntel,60.0024001,Chrome,1280,800,,,a,0.3043,10,523,2,1,6,18,1,1,1,0,0,0,0,0,1,0,triangle,hexagon,,,,,,,,,,,,,,,,,,,,,,,,,,,,,,,,,,,,,,,,,,,,,,,,,,,,,,
293212,2022-09-21_22h10.46.022,vts_reward_expectancy,2022.2.4,MacIntel,60.0024001,Chrome,1280,800,,,l,0.3699,1,524,2,1,7,19,4,1,0,1,0,0,0,0,1,0,circle,hexagon,,,,,,,,,,,,,,,,,,,,,,,,,,,,,,,,,,,,,,,,,,,,,,,,,,,,,,
293212,2022-09-21_22h10.46.022,vts_reward_expectancy,2022.2.4,MacIntel,60.0024001,Chrome,1280,800,,,a,0.3339,1,525,2,1,8,20,10,1,0,0,0,1,0,1,0,0,star ,circle,,,,,,,,,,,,,,,,,,,,,,,,,,,,,,,,,,,,,,,,,,,,,,,,,,,,,,
293212,2022-09-21_22h10.46.022,vts_reward_expectancy,2022.2.4,MacIntel,60.0024001,Chrome,1280,800,,,a,0.4851,10,535,2,1,9,21,11,1,0,0,0,1,0,0,1,0,star,hexagon,,,,,,,,,,,,,,,,,,,,,,,,,,,,,,,,,,,,,,,,,,,,,,,,,,,,,,
293212,2022-09-21_22h10.46.022,vts_reward_expectancy,2022.2.4,MacIntel,60.0024001,Chrome,1280,800,,,l,0.3226,1,536,2,1,10,22,7,1,0,0,1,0,0,1,0,0,hexagon,circle,,,,,,,,,,,,,,,,,,,,,,,,,,,,,,,,,,,,,,,,,,,,,,,,,,,,,,
293212,2022-09-21_22h10.46.022,vts_reward_expectancy,2022.2.4,MacIntel,60.0024001,Chrome,1280,800,,,a,0.2845,1,537,2,1,11,23,5,1,0,1,0,0,0,0,0,1,circle,star,,,,,,,,,,,,,,,,,,,,,,,,,,,,,,,,,,,,,,,,,,,,,,,,,,,,,,
293212,2022-09-21_22h10.46.022,vts_reward_expectancy,2022.2.4,MacIntel,60.0024001,Chrome,1280,800,,,l,0.3163,1,538,2,2,0,24,10,1,0,0,0,1,0,1,0,0,star ,circle,,,,,,,,,,,,,,,,,,,,,,,,,,,,,,,,,,,,,,,,,,,,,,,,,,,,,,
293212,2022-09-21_22h10.46.022,vts_reward_expectancy,2022.2.4,MacIntel,60.0024001,Chrome,1280,800,,,a,0.1766,1,539,2,2,1,25,6,1,0,0,1,0,1,0,0,0,hexagon,triangle,,,,,,,,,,,,,,,,,,,,,,,,,,,,,,,,,,,,,,,,,,,,,,,,,,,,,,
293212,2022-09-21_22h10.46.022,vts_reward_expectancy,2022.2.4,MacIntel,60.0024001,Chrome,1280,800,,,l,0.2521,1,540,2,2,2,26,4,1,0,1,0,0,0,0,1,0,circle,hexagon,,,,,,,,,,,,,,,,,,,,,,,,,,,,,,,,,,,,,,,,,,,,,,,,,,,,,,
293212,2022-09-21_22h10.46.022,vts_reward_expectancy,2022.2.4,MacIntel,60.0024001,Chrome,1280,800,,,l,0.242,10,550,2,2,3,27,9,1,0,0,0,1,1,0,0,0,star,triangle,,,,,,,,,,,,,,,,,,,,,,,,,,,,,,,,,,,,,,,,,,,,,,,,,,,,,,
293212,2022-09-21_22h10.46.022,vts_reward_expectancy,2022.2.4,MacIntel,60.0024001,Chrome,1280,800,,,l,0.4174,10,560,2,2,4,28,7,1,0,0,1,0,0,1,0,0,hexagon,circle,,,,,,,,,,,,,,,,,,,,,,,,,,,,,,,,,,,,,,,,,,,,,,,,,,,,,,
293212,2022-09-21_22h10.46.022,vts_reward_expectancy,2022.2.4,MacIntel,60.0024001,Chrome,1280,800,,,a,1.2112,1,561,2,2,5,29,3,1,0,1,0,0,1,0,0,0,circle,triangle,,,,,,,,,,,,,,,,,,,,,,,,,,,,,,,,,,,,,,,,,,,,,,,,,,,,,,
293212,2022-09-21_22h10.46.022,vts_reward_expectancy,2022.2.4,MacIntel,60.0024001,Chrome,1280,800,,,l,0.7027,1,562,2,2,6,30,0,1,1,0,0,0,0,1,0,0,triangle,circle,,,,,,,,,,,,,,,,,,,,,,,,,,,,,,,,,,,,,,,,,,,,,,,,,,,,,,
293212,2022-09-21_22h10.46.022,vts_reward_expectancy,2022.2.4,MacIntel,60.0024001,Chrome,1280,800,,,l,0.1834,1,563,2,2,7,31,11,1,0,0,0,1,0,0,1,0,star,hexagon,,,,,,,,,,,,,,,,,,,,,,,,,,,,,,,,,,,,,,,,,,,,,,,,,,,,,,
293212,2022-09-21_22h10.46.022,vts_reward_expectancy,2022.2.4,MacIntel,60.0024001,Chrome,1280,800,,,l,0.3291,1,564,2,2,8,32,8,1,0,0,1,0,0,0,0,1,hexagon,star,,,,,,,,,,,,,,,,,,,,,,,,,,,,,,,,,,,,,,,,,,,,,,,,,,,,,,
293212,2022-09-21_22h10.46.022,vts_reward_expectancy,2022.2.4,MacIntel,60.0024001,Chrome,1280,800,,,l,0.2988,1,565,2,2,9,33,5,1,0,1,0,0,0,0,0,1,circle,star,,,,,,,,,,,,,,,,,,,,,,,,,,,,,,,,,,,,,,,,,,,,,,,,,,,,,,
293212,2022-09-21_22h10.46.022,vts_reward_expectancy,2022.2.4,MacIntel,60.0024001,Chrome,1280,800,,,a,0.3503,10,575,2,2,10,34,2,1,1,0,0,0,0,0,0,1,triangle,star,,,,,,,,,,,,,,,,,,,,,,,,,,,,,,,,,,,,,,,,,,,,,,,,,,,,,,
293212,2022-09-21_22h10.46.022,vts_reward_expectancy,2022.2.4,MacIntel,60.0024001,Chrome,1280,800,,,a,0.9873,10,585,2,2,11,35,1,1,1,0,0,0,0,0,1,0,triangle,hexagon,,,,,,,,,,,,,,,,,,,,,,,,,,,,,,,,,,,,,,,,,,,,,,,,,,,,,,
293212,2022-09-21_22h10.46.022,vts_reward_expectancy,2022.2.4,MacIntel,60.0024001,Chrome,1280,800,,,,,,,,,,,,,,,,,,,,,,,139,U,star,0,0,f,2.2717,0,0,0,0,0,1,,,,,,,,,,,,,,,,,,,,,,,,,,,,,,,,,,,,,,,,,
293212,2022-09-21_22h10.46.022,vts_reward_expectancy,2022.2.4,MacIntel,60.0024001,Chrome,1280,800,,,,,,,,,,,,,,,,,,,,,,,181,Y,circle,0,1,d,1.6794,0,1,0,1,0,1,,,,,,,,,,,,,,,,,,,,,,,,,,,,,,,,,,,,,,,,,
293212,2022-09-21_22h10.46.022,vts_reward_expectancy,2022.2.4,MacIntel,60.0024001,Chrome,1280,800,,,,,,,,,,,,,,,,,,,,,,,160,S,hexagon,0,1,d,0.5489,0,2,0,2,0,1,,,,,,,,,,,,,,,,,,,,,,,,,,,,,,,,,,,,,,,,,
293212,2022-09-21_22h10.46.022,vts_reward_expectancy,2022.2.4,MacIntel,60.0024001,Chrome,1280,800,,,,,,,,,,,,,,,,,,,,,,,132,B,triangle,0,1,f,0.3937,0,3,0,3,0,1,,,,,,,,,,,,,,,,,,,,,,,,,,,,,,,,,,,,,,,,,
293212,2022-09-21_22h10.46.022,vts_reward_expectancy,2022.2.4,MacIntel,60.0024001,Chrome,1280,800,,,,,,,,,,,,,,,,,,,,,,,167,H,star,1,1,f,0.5778,0,4,0,4,0,1,,,,,,,,,,,,,,,,,,,,,,,,,,,,,,,,,,,,,,,,,
293212,2022-09-21_22h10.46.022,vts_reward_expectancy,2022.2.4,MacIntel,60.0024001,Chrome,1280,800,,,,,,,,,,,,,,,,,,,,,,,174,D,circle,1,0,f,0.9672,0,5,0,5,0,1,,,,,,,,,,,,,,,,,,,,,,,,,,,,,,,,,,,,,,,,,
293212,2022-09-21_22h10.46.022,vts_reward_expectancy,2022.2.4,MacIntel,60.0024001,Chrome,1280,800,,,,,,,,,,,,,,,,,,,,,,,146,W,hexagon,0,0,f,1.3032,0,6,0,6,0,1,,,,,,,,,,,,,,,,,,,,,,,,,,,,,,,,,,,,,,,,,
293212,2022-09-21_22h10.46.022,vts_reward_expectancy,2022.2.4,MacIntel,60.0024001,Chrome,1280,800,,,,,,,,,,,,,,,,,,,,,,,125,F,triangle,0,1,,,0,7,0,7,0,1,,,,,,,,,,,,,,,,,,,,,,,,,,,,,,,,,,,,,,,,,
293212,2022-09-21_22h10.46.022,vts_reward_expectancy,2022.2.4,MacIntel,60.0024001,Chrome,1280,800,,,,,,,,,,,,,,,,,,,,,,,139,U,triangle,1,1,d,0.7222,0,8,0,8,0,1,,,,,,,,,,,,,,,,,,,,,,,,,,,,,,,,,,,,,,,,,
293212,2022-09-21_22h10.46.022,vts_reward_expectancy,2022.2.4,MacIntel,60.0024001,Chrome,1280,800,,,,,,,,,,,,,,,,,,,,,,,181,Y,star,1,0,f,0.7016,0,9,0,9,0,1,,,,,,,,,,,,,,,,,,,,,,,,,,,,,,,,,,,,,,,,,
293212,2022-09-21_22h10.46.022,vts_reward_expectancy,2022.2.4,MacIntel,60.0024001,Chrome,1280,800,,,,,,,,,,,,,,,,,,,,,,,181,U,circle,1,0,f,0.6882,1,0,0,0,0,1,,,,,,,,,,,,,,,,,,,,,,,,,,,,,,,,,,,,,,,,,
293212,2022-09-21_22h10.46.022,vts_reward_expectancy,2022.2.4,MacIntel,60.0024001,Chrome,1280,800,,,,,,,,,,,,,,,,,,,,,,,167,W,hexagon,1,0,f,1.2196,1,1,0,1,0,1,,,,,,,,,,,,,,,,,,,,,,,,,,,,,,,,,,,,,,,,,
293212,2022-09-21_22h10.46.022,vts_reward_expectancy,2022.2.4,MacIntel,60.0024001,Chrome,1280,800,,,,,,,,,,,,,,,,,,,,,,,146,D,triangle,1,0,d,1.3813,1,2,0,2,0,1,,,,,,,,,,,,,,,,,,,,,,,,,,,,,,,,,,,,,,,,,
293212,2022-09-21_22h10.46.022,vts_reward_expectancy,2022.2.4,MacIntel,60.0024001,Chrome,1280,800,,,,,,,,,,,,,,,,,,,,,,,132,H,star,1,0,d,1.0151,1,3,0,3,0,1,,,,,,,,,,,,,,,,,,,,,,,,,,,,,,,,,,,,,,,,,
293212,2022-09-21_22h10.46.022,vts_reward_expectancy,2022.2.4,MacIntel,60.0024001,Chrome,1280,800,,,,,,,,,,,,,,,,,,,,,,,160,Y,circle,1,0,f,0.7808,1,4,0,4,0,1,,,,,,,,,,,,,,,,,,,,,,,,,,,,,,,,,,,,,,,,,
293212,2022-09-21_22h10.46.022,vts_reward_expectancy,2022.2.4,MacIntel,60.0024001,Chrome,1280,800,,,,,,,,,,,,,,,,,,,,,,,125,B,hexagon,1,0,d,0.7973,1,5,0,5,0,1,,,,,,,,,,,,,,,,,,,,,,,,,,,,,,,,,,,,,,,,,
293212,2022-09-21_22h10.46.022,vts_reward_expectancy,2022.2.4,MacIntel,60.0024001,Chrome,1280,800,,,,,,,,,,,,,,,,,,,,,,,139,F,triangle,1,0,d,0.8835,1,6,0,6,0,1,,,,,,,,,,,,,,,,,,,,,,,,,,,,,,,,,,,,,,,,,
293212,2022-09-21_22h10.46.022,vts_reward_expectancy,2022.2.4,MacIntel,60.0024001,Chrome,1280,800,,,,,,,,,,,,,,,,,,,,,,,174,S,star,1,0,f,0.9647,1,7,0,7,0,1,,,,,,,,,,,,,,,,,,,,,,,,,,,,,,,,,,,,,,,,,
293212,2022-09-21_22h10.46.022,vts_reward_expectancy,2022.2.4,MacIntel,60.0024001,Chrome,1280,800,,,,,,,,,,,,,,,,,,,,,,,181,U,hexagon,1,0,f,0.8142,1,8,0,8,0,1,,,,,,,,,,,,,,,,,,,,,,,,,,,,,,,,,,,,,,,,,
293212,2022-09-21_22h10.46.022,vts_reward_expectancy,2022.2.4,MacIntel,60.0024001,Chrome,1280,800,,,,,,,,,,,,,,,,,,,,,,,167,W,star,1,0,f,0.8304,1,9,0,9,0,1,,,,,,,,,,,,,,,,,,,,,,,,,,,,,,,,,,,,,,,,,
293212,2022-09-21_22h10.46.022,vts_reward_expectancy,2022.2.4,MacIntel,60.0024001,Chrome,1280,800,,,,,,,,,,,,,,,,,,,,,,,139,S,star,1,0,,,2,,,,,,k,1.5846,0,0,0,0,1,,,,,,,,,,,,,,,,,,,,,,,,,,,,,,,,,,
293212,2022-09-21_22h10.46.022,vts_reward_expectancy,2022.2.4,MacIntel,60.0024001,Chrome,1280,800,,,,,,,,,,,,,,,,,,,,,,,132,F,hexagon,1,0,,,2,,,,,,j,0.6958,1,0,1,0,1,,,,,,,,,,,,,,,,,,,,,,,,,,,,,,,,,,
293212,2022-09-21_22h10.46.022,vts_reward_expectancy,2022.2.4,MacIntel,60.0024001,Chrome,1280,800,,,,,,,,,,,,,,,,,,,,,,,146,Y,triangle,1,0,,,2,,,,,,k,1.6147,2,0,2,0,1,,,,,,,,,,,,,,,,,,,,,,,,,,,,,,,,,,
293212,2022-09-21_22h10.46.022,vts_reward_expectancy,2022.2.4,MacIntel,60.0024001,Chrome,1280,800,,,,,,,,,,,,,,,,,,,,,,,125,W,circle,1,0,,,2,,,,,,k,0.9194,3,0,3,0,1,,,,,,,,,,,,,,,,,,,,,,,,,,,,,,,,,,
293212,2022-09-21_22h10.46.022,vts_reward_expectancy,2022.2.4,MacIntel,60.0024001,Chrome,1280,800,,,,,,,,,,,,,,,,,,,,,,,160,B,star,1,0,,,2,,,,,,j,0.6814,4,0,4,0,1,,,,,,,,,,,,,,,,,,,,,,,,,,,,,,,,,,
293212,2022-09-21_22h10.46.022,vts_reward_expectancy,2022.2.4,MacIntel,60.0024001,Chrome,1280,800,,,,,,,,,,,,,,,,,,,,,,,181,D,hexagon,1,0,,,2,,,,,,j,1.2162,5,0,5,0,1,,,,,,,,,,,,,,,,,,,,,,,,,,,,,,,,,,
293212,2022-09-21_22h10.46.022,vts_reward_expectancy,2022.2.4,MacIntel,60.0024001,Chrome,1280,800,,,,,,,,,,,,,,,,,,,,,,,174,U,triangle,1,0,,,2,,,,,,k,1.0659,6,0,6,0,1,,,,,,,,,,,,,,,,,,,,,,,,,,,,,,,,,,
293212,2022-09-21_22h10.46.022,vts_reward_expectancy,2022.2.4,MacIntel,60.0024001,Chrome,1280,800,,,,,,,,,,,,,,,,,,,,,,,167,H,circle,1,0,,,2,,,,,,j,0.8129,7,0,7,0,1,,,,,,,,,,,,,,,,,,,,,,,,,,,,,,,,,,
293212,2022-09-21_22h10.46.022,vts_reward_expectancy,2022.2.4,MacIntel,60.0024001,Chrome,1280,800,,,,,,,,,,,,,,,,,,,,,,,139,S,circle,1,0,,,2,,,,,,k,0.8965,8,0,8,0,1,,,,,,,,,,,,,,,,,,,,,,,,,,,,,,,,,,
293212,2022-09-21_22h10.46.022,vts_reward_expectancy,2022.2.4,MacIntel,60.0024001,Chrome,1280,800,,,,,,,,,,,,,,,,,,,,,,,132,F,triangle,1,0,,,2,,,,,,j,0.914,9,0,9,0,1,,,,,,,,,,,,,,,,,,,,,,,,,,,,,,,,,,
293212,2022-09-21_22h10.46.022,vts_reward_expectancy,2022.2.4,MacIntel,60.0024001,Chrome,1280,800,,,,,0,585,,,,,,,,,,,,,,,,,146,F,star,-1,0,,,3,,,,,,,,,,,,,-1,no_choice,NA,,vtsPrac,0,0,0,0,1,,,,,,,,,,,,,,,,,,,,,,,,
293212,2022-09-21_22h10.46.022,vts_reward_expectancy,2022.2.4,MacIntel,60.0024001,Chrome,1280,800,,,,,0,585,,,,,,,,,,,,,,,,,160,D,circle,1,0,,,3,,,,,,,,,,,,,switch,letter,lettSwt,j,vtsPrac,1,0,1,0,1,0.7052,,,,,,,,,,,,,,,,,,,,,,,
293212,2022-09-21_22h10.46.022,vts_reward_expectancy,2022.2.4,MacIntel,60.0024001,Chrome,1280,800,,,,,0,585,,,,,,,,,,,,,,,,,167,B,star,0,0,,,3,,,,,,,,,,,,,switch,number,NA,d,vtsPrac,2,0,2,0,1,1.4304,,,,,,,,,,,,,,,,,,,,,,,
293212,2022-09-21_22h10.46.022,vts_reward_expectancy,2022.2.4,MacIntel,60.0024001,Chrome,1280,800,,,,,0,585,,,,,,,,,,,,,,,,,174,S,circle,1,1,,,3,,,,,,,,,,,,,switch,letter,lettSwt,k,vtsPrac,3,0,3,0,1,2.0472,,,,,,,,,,,,,,,,,,,,,,,
293212,2022-09-21_22h10.46.022,vts_reward_expectancy,2022.2.4,MacIntel,60.0024001,Chrome,1280,800,,,,,0,585,,,,,,,,,,,,,,,,,146,F,hexagon,1,0,,,3,,,,,,,,,,,,,switch,number,numSwt,d,vtsPrac,4,0,4,0,1,0.1013,,,,,,,,,,,,,,,,,,,,,,,
293212,2022-09-21_22h10.46.022,vts_reward_expectancy,2022.2.4,MacIntel,60.0024001,Chrome,1280,800,,,,,0,585,,,,,,,,,,,,,,,,,160,D,star,0,0,,,3,,,,,,,,,,,,,repeat,number,NA,d,vtsPrac,5,0,5,0,1,1.1871,,,,,,,,,,,,,,,,,,,,,,,
293212,2022-09-21_22h10.46.022,vts_reward_expectancy,2022.2.4,MacIntel,60.0024001,Chrome,1280,800,,,,,0,585,,,,,,,,,,,,,,,,,167,B,hexagon,1,1,,,3,,,,,,,,,,,,,switch,letter,lettSwt,j,vtsPrac,6,0,6,0,1,2.1202,,,,,,,,,,,,,,,,,,,,,,,
293212,2022-09-21_22h10.46.022,vts_reward_expectancy,2022.2.4,MacIntel,60.0024001,Chrome,1280,800,,,,,0,585,,,,,,,,,,,,,,,,,174,S,star,1,0,,,3,,,,,,,,,,,,,switch,number,numSwt,f,vtsPrac,7,0,7,0,1,1.0528,,,,,,,,,,,,,,,,,,,,,,,
293212,2022-09-21_22h10.46.022,vts_reward_expectancy,2022.2.4,MacIntel,60.0024001,Chrome,1280,800,,,,,0,585,,,,,,,,,,,,,,,,,125,F,star,1,0,,,3,,,,,,,,,,,,,repeat,number,numRpt,d,vtsPrac,8,0,8,0,1,1.3844,,,,,,,,,,,,,,,,,,,,,,,
293212,2022-09-21_22h10.46.022,vts_reward_expectancy,2022.2.4,MacIntel,60.0024001,Chrome,1280,800,,,,,0,585,,,,,,,,,,,,,,,,,132,Y,circle,1,0,,,3,,,,,,,,,,,,,switch,letter,lettSwt,k,vtsPrac,9,0,9,0,1,0.8987,,,,,,,,,,,,,,,,,,,,,,,
293212,2022-09-21_22h10.46.022,vts_reward_expectancy,2022.2.4,MacIntel,60.0024001,Chrome,1280,800,,,,,0,585,,,,,,,,,,,,,,,,,146,D,triangle,1,0,,,3,,,,,,,,,,,,,repeat,letter,lettRpt,j,vtsPrac,10,0,10,0,1,2.2286,,,,,,,,,,,,,,,,,,,,,,,
293212,2022-09-21_22h10.46.022,vts_reward_expectancy,2022.2.4,MacIntel,60.0024001,Chrome,1280,800,,,,,0,585,,,,,,,,,,,,,,,,,139,B,star,1,0,,,3,,,,,,,,,,,,,switch,number,numSwt,d,vtsPrac,11,0,11,0,1,1.4128,,,,,,,,,,,,,,,,,,,,,,,
293212,2022-09-21_22h10.46.022,vts_reward_expectancy,2022.2.4,MacIntel,60.0024001,Chrome,1280,800,,,,,0,585,,,,,,,,,,,,,,,,,160,D,star,1,0,,,3,,,,,,,,,,,,,switch,letter,lettSwt,j,vtsPrac,12,0,12,0,1,1.4316,,,,,,,,,,,,,,,,,,,,,,,
293212,2022-09-21_22h10.46.022,vts_reward_expectancy,2022.2.4,MacIntel,60.0024001,Chrome,1280,800,,,,,0,585,,,,,,,,,,,,,,,,,181,H,hexagon,1,0,,,3,,,,,,,,,,,,,switch,number,numSwt,f,vtsPrac,13,0,13,0,1,1.1843,,,,,,,,,,,,,,,,,,,,,,,
293212,2022-09-21_22h10.46.022,vts_reward_expectancy,2022.2.4,MacIntel,60.0024001,Chrome,1280,800,,,,,0,585,,,,,,,,,,,,,,,,,125,F,circle,1,0,,,3,,,,,,,,,,,,,repeat,number,numRpt,d,vtsPrac,14,0,14,0,1,1.1817,,,,,,,,,,,,,,,,,,,,,,,
293212,2022-09-21_22h10.46.022,vts_reward_expectancy,2022.2.4,MacIntel,60.0024001,Chrome,1280,800,,,,,0,585,,,,,,,,,,,,,,,,,139,S,triangle,1,0,,,3,,,,,,,,,,,,,switch,letter,lettSwt,k,vtsPrac,15,0,15,0,1,0.706,,,,,,,,,,,,,,,,,,,,,,,
293212,2022-09-21_22h10.46.022,vts_reward_expectancy,2022.2.4,MacIntel,60.0024001,Chrome,1280,800,,,,,,,,,,,,,,,,,,,,,,,,,,,,,,,,,,,,,,,,,,,,,,,,,,,,,,,,,,,,,,,,,,,,,,,,,,,,
293212,2022-09-21_22h10.46.022,vts_reward_expectancy,2022.2.4,MacIntel,60.0024001,Chrome,1280,800,,,,,,,,,,,,,,,,,,,,,,,,,,,,,,,,,,,,,,,,,,,,,,,,,,,,,,,,,,,,,,,,,,,,,,,,,,,,
293212,2022-09-21_22h10.46.022,vts_reward_expectancy,2022.2.4,MacIntel,60.0024001,Chrome,1280,800,,,,,0,585,,,,,,,,,,,,,,,,,146,U,triangle,0,0,,,,,,,,,,,,,,,,switch,number,NA,f,noRew,,,,,,1.9465,0,0,0,0,0,1,,,,,,,,,,,,,,,,,
293212,2022-09-21_22h10.46.022,vts_reward_expectancy,2022.2.4,MacIntel,60.0024001,Chrome,1280,800,,,,,0,585,,,,,,,,,,,,,,,,,167,H,circle,0,1,,,,,,,,,,,,,,,,switch,letter,NA,k,noRew,,,,,,2.8152,0,1,0,1,0,1,,,,,,,,,,,,,,,,,
293212,2022-09-21_22h10.46.022,vts_reward_expectancy,2022.2.4,MacIntel,60.0024001,Chrome,1280,800,,,,,0,585,,,,,,,,,,,,,,,,,125,D,triangle,1,1,,,,,,,,,,,,,,,,repeat,letter,lettRpt,j,noRew,,,,,,1.6956,0,2,0,2,0,1,,,,,,,,,,,,,,,,,
293212,2022-09-21_22h10.46.022,vts_reward_expectancy,2022.2.4,MacIntel,60.0024001,Chrome,1280,800,,,,,0,585,,,,,,,,,,,,,,,,,174,W,circle,1,0,,,,,,,,,,,,,,,,repeat,letter,lettRpt,k,noRew,,,,,,1.0973,0,3,0,3,0,1,,,,,,,,,,,,,,,,,
293212,2022-09-21_22h10.46.022,vts_reward_expectancy,2022.2.4,MacIntel,60.0024001,Chrome,1280,800,,,,,0,585,,,,,,,,,,,,,,,,,146,U,hexagon,1,0,,,,,,,,,,,,,,,,switch,number,numSwt,d,noRew,,,,,,1.4318,0,4,0,4,0,1,,,,,,,,,,,,,,,,,
293212,2022-09-21_22h10.46.022,vts_reward_expectancy,2022.2.4,MacIntel,60.0024001,Chrome,1280,800,,,,,0,585,,,,,,,,,,,,,,,,,167,H,triangle,1,0,,,,,,,,,,,,,,,,repeat,number,numRpt,f,noRew,,,,,,1.9849,0,5,0,5,0,1,,,,,,,,,,,,,,,,,
293212,2022-09-21_22h10.46.022,vts_reward_expectancy,2022.2.4,MacIntel,60.0024001,Chrome,1280,800,,,,,0,585,,,,,,,,,,,,,,,,,125,D,triangle,0,0,,,,,,,,,,,,,,,,repeat,number,NA,f,noRew,,,,,,1.5308,0,6,0,6,0,1,,,,,,,,,,,,,,,,,
293212,2022-09-21_22h10.46.022,vts_reward_expectancy,2022.2.4,MacIntel,60.0024001,Chrome,1280,800,,,,,0,585,,,,,,,,,,,,,,,,,174,W,circle,1,1,,,,,,,,,,,,,,,,switch,letter,lettSwt,k,noRew,,,,,,0.8471,0,7,0,7,0,1,,,,,,,,,,,,,,,,,
293212,2022-09-21_22h10.46.022,vts_reward_expectancy,2022.2.4,MacIntel,60.0024001,Chrome,1280,800,,,,,0,585,,,,,,,,,,,,,,,,,139,B,circle,1,0,,,,,,,,,,,,,,,,repeat,letter,lettRpt,j,noRew,,,,,,1.5135,0,8,0,8,0,1,,,,,,,,,,,,,,,,,
293212,2022-09-21_22h10.46.022,vts_reward_expectancy,2022.2.4,MacIntel,60.0024001,Chrome,1280,800,,,,,0,585,,,,,,,,,,,,,,,,,167,F,triangle,0,0,,,,,,,,,,,,,,,,switch,number,NA,d,noRew,,,,,,0.8649,0,9,0,9,0,1,,,,,,,,,,,,,,,,,
293212,2022-09-21_22h10.46.022,vts_reward_expectancy,2022.2.4,MacIntel,60.0024001,Chrome,1280,800,,,,,0,585,,,,,,,,,,,,,,,,,160,W,star,1,1,,,,,,,,,,,,,,,,repeat,number,numRpt,f,noRew,,,,,,1.2288,0,10,0,10,0,1,,,,,,,,,,,,,,,,,
293212,2022-09-21_22h10.46.022,vts_reward_expectancy,2022.2.4,MacIntel,60.0024001,Chrome,1280,800,,,,,0,585,,,,,,,,,,,,,,,,,174,S,circle,1,0,,,,,,,,,,,,,,,,switch,letter,lettSwt,k,noRew,,,,,,2.105,0,11,0,11,0,1,,,,,,,,,,,,,,,,,
293212,2022-09-21_22h10.46.022,vts_reward_expectancy,2022.2.4,MacIntel,60.0024001,Chrome,1280,800,,,,,0,585,,,,,,,,,,,,,,,,,174,F,hexagon,1,0,,,,,,,,,,,,,,,,switch,number,numSwt,f,noRew,,,,,,1.0214,0,12,0,12,0,1,,,,,,,,,,,,,,,,,
293212,2022-09-21_22h10.46.022,vts_reward_expectancy,2022.2.4,MacIntel,60.0024001,Chrome,1280,800,,,,,0,585,,,,,,,,,,,,,,,,,139,D,circle,1,0,,,,,,,,,,,,,,,,repeat,number,numRpt,d,noRew,,,,,,0.4772,0,13,0,13,0,1,,,,,,,,,,,,,,,,,
293212,2022-09-21_22h10.46.022,vts_reward_expectancy,2022.2.4,MacIntel,60.0024001,Chrome,1280,800,,,,,0,585,,,,,,,,,,,,,,,,,125,H,circle,0,0,,,,,,,,,,,,,,,,switch,letter,NA,k,noRew,,,,,,0.7449,0,14,0,14,0,1,,,,,,,,,,,,,,,,,
293212,2022-09-21_22h10.46.022,vts_reward_expectancy,2022.2.4,MacIntel,60.0024001,Chrome,1280,800,,,,,0,585,,,,,,,,,,,,,,,,,146,U,triangle,0,1,,,,,,,,,,,,,,,,switch,number,NA,f,noRew,,,,,,1.2839,0,15,0,15,0,1,,,,,,,,,,,,,,,,,
293212,2022-09-21_22h10.46.022,vts_reward_expectancy,2022.2.4,MacIntel,60.0024001,Chrome,1280,800,,,,,0,585,,,,,,,,,,,,,,,,,181,S,hexagon,0,1,,,,,,,,,,,,,,,,repeat,number,NA,d,noRew,,,,,,2.8146,0,16,0,16,0,1,,,,,,,,,,,,,,,,,
293212,2022-09-21_22h10.46.022,vts_reward_expectancy,2022.2.4,MacIntel,60.0024001,Chrome,1280,800,,,,,0,585,,,,,,,,,,,,,,,,,167,U,triangle,0,1,,,,,,,,,,,,,,,,repeat,number,NA,d,noRew,,,,,,0.1372,0,17,0,17,0,1,,,,,,,,,,,,,,,,,
293212,2022-09-21_22h10.46.022,vts_reward_expectancy,2022.2.4,MacIntel,60.0024001,Chrome,1280,800,,,,,0,585,,,,,,,,,,,,,,,,,125,B,triangle,1,1,,,,,,,,,,,,,,,,switch,letter,lettSwt,j,noRew,,,,,,0.6847,0,18,0,18,0,1,,,,,,,,,,,,,,,,,
293212,2022-09-21_22h10.46.022,vts_reward_expectancy,2022.2.4,MacIntel,60.0024001,Chrome,1280,800,,,,,0,585,,,,,,,,,,,,,,,,,174,D,circle,1,0,,,,,,,,,,,,,,,,switch,number,numSwt,f,noRew,,,,,,1.1187,0,19,0,19,0,1,,,,,,,,,,,,,,,,,
293212,2022-09-21_22h10.46.022,vts_reward_expectancy,2022.2.4,MacIntel,60.0024001,Chrome,1280,800,,,,,0,585,,,,,,,,,,,,,,,,,125,S,star,1,0,,,,,,,,,,,,,,,,repeat,number,numRpt,d,noRew,,,,,,1.2968,0,20,0,20,0,1,,,,,,,,,,,,,,,,,
293212,2022-09-21_22h10.46.022,vts_reward_expectancy,2022.2.4,MacIntel,60.0024001,Chrome,1280,800,,,,,0,585,,,,,,,,,,,,,,,,,181,U,hexagon,1,0,,,,,,,,,,,,,,,,switch,letter,lettSwt,k,noRew,,,,,,1.3452,0,21,0,21,0,1,,,,,,,,,,,,,,,,,
293212,2022-09-21_22h10.46.022,vts_reward_expectancy,2022.2.4,MacIntel,60.0024001,Chrome,1280,800,,,,,0,585,,,,,,,,,,,,,,,,,174,H,hexagon,0,0,,,,,,,,,,,,,,,,switch,number,NA,d,noRew,,,,,,1.6954,0,22,0,22,0,1,,,,,,,,,,,,,,,,,
293212,2022-09-21_22h10.46.022,vts_reward_expectancy,2022.2.4,MacIntel,60.0024001,Chrome,1280,800,,,,,0,585,,,,,,,,,,,,,,,,,167,D,circle,1,1,,,,,,,,,,,,,,,,switch,letter,lettSwt,j,noRew,,,,,,2.6707,0,23,0,23,0,1,,,,,,,,,,,,,,,,,
293212,2022-09-21_22h10.46.022,vts_reward_expectancy,2022.2.4,MacIntel,60.0024001,Chrome,1280,800,,,,,0,585,,,,,,,,,,,,,,,,,174,D,hexagon,1,0,,,,,,,,,,,,,,,,switch,number,numSwt,f,noRew,,,,,,1.3496,0,24,0,24,0,1,,,,,,,,,,,,,,,,,
293212,2022-09-21_22h10.46.022,vts_reward_expectancy,2022.2.4,MacIntel,60.0024001,Chrome,1280,800,,,,,0,585,,,,,,,,,,,,,,,,,181,Y,star,1,0,,,,,,,,,,,,,,,,repeat,number,numRpt,f,noRew,,,,,,0.7128,0,25,0,25,0,1,,,,,,,,,,,,,,,,,
293212,2022-09-21_22h10.46.022,vts_reward_expectancy,2022.2.4,MacIntel,60.0024001,Chrome,1280,800,,,,,0,585,,,,,,,,,,,,,,,,,146,B,star,1,0,,,,,,,,,,,,,,,,switch,letter,lettSwt,j,noRew,,,,,,0.9124,0,26,0,26,0,1,,,,,,,,,,,,,,,,,
293212,2022-09-21_22h10.46.022,vts_reward_expectancy,2022.2.4,MacIntel,60.0024001,Chrome,1280,800,,,,,0,585,,,,,,,,,,,,,,,,,139,U,circle,1,0,,,,,,,,,,,,,,,,switch,number,numSwt,d,noRew,,,,,,0.9801,0,27,0,27,0,1,,,,,,,,,,,,,,,,,
293212,2022-09-21_22h10.46.022,vts_reward_expectancy,2022.2.4,MacIntel,60.0024001,Chrome,1280,800,,,,,0,585,,,,,,,,,,,,,,,,,146,W,circle,1,0,,,,,,,,,,,,,,,,switch,letter,lettSwt,k,noRew,,,,,,0.8824,0,28,0,28,0,1,,,,,,,,,,,,,,,,,
293212,2022-09-21_22h10.46.022,vts_reward_expectancy,2022.2.4,MacIntel,60.0024001,Chrome,1280,800,,,,,0,585,,,,,,,,,,,,,,,,,167,S,triangle,1,0,,,,,,,,,,,,,,,,switch,number,numSwt,f,noRew,,,,,,1.2481,0,29,0,29,0,1,,,,,,,,,,,,,,,,,
293212,2022-09-21_22h10.46.022,vts_reward_expectancy,2022.2.4,MacIntel,60.0024001,Chrome,1280,800,,,,,0,585,,,,,,,,,,,,,,,,,160,H,star,1,0,,,,,,,,,,,,,,,,switch,letter,lettSwt,j,noRew,,,,,,1.111,0,30,0,30,0,1,,,,,,,,,,,,,,,,,
293212,2022-09-21_22h10.46.022,vts_reward_expectancy,2022.2.4,MacIntel,60.0024001,Chrome,1280,800,,,,,0,585,,,,,,,,,,,,,,,,,181,F,circle,1,0,,,,,,,,,,,,,,,,switch,number,numSwt,f,noRew,,,,,,1.3824,0,31,0,31,0,1,,,,,,,,,,,,,,,,,
293212,2022-09-21_22h10.46.022,vts_reward_expectancy,2022.2.4,MacIntel,60.0024001,Chrome,1280,800,,,,,0,585,,,,,,,,,,,,,,,,,146,U,star,1,0,,,,,,,,,,,,,,,,repeat,number,numRpt,d,noRew,,,,,,1.4179,0,32,0,32,0,1,,,,,,,,,,,,,,,,,
293212,2022-09-21_22h10.46.022,vts_reward_expectancy,2022.2.4,MacIntel,60.0024001,Chrome,1280,800,,,,,0,585,,,,,,,,,,,,,,,,,174,W,hexagon,1,0,,,,,,,,,,,,,,,,repeat,number,numRpt,f,noRew,,,,,,1.5457,0,33,0,33,0,1,,,,,,,,,,,,,,,,,
293212,2022-09-21_22h10.46.022,vts_reward_expectancy,2022.2.4,MacIntel,60.0024001,Chrome,1280,800,,,,,0,585,,,,,,,,,,,,,,,,,139,B,triangle,1,0,,,,,,,,,,,,,,,,switch,letter,lettSwt,j,noRew,,,,,,1.4816,0,34,0,34,0,1,,,,,,,,,,,,,,,,,
293212,2022-09-21_22h10.46.022,vts_reward_expectancy,2022.2.4,MacIntel,60.0024001,Chrome,1280,800,,,,,0,585,,,,,,,,,,,,,,,,,160,S,hexagon,1,0,,,,,,,,,,,,,,,,switch,number,numSwt,f,noRew,,,,,,1.496,0,35,0,35,0,1,,,,,,,,,,,,,,,,,
293212,2022-09-21_22h10.46.022,vts_reward_expectancy,2022.2.4,MacIntel,60.0024001,Chrome,1280,800,,,,,0,585,,,,,,,,,,,,,,,,,146,B,hexagon,1,0,,,,,,,,,,,,,,,,switch,letter,lettSwt,j,noRew,,,,,,1.478,0,36,0,36,0,1,,,,,,,,,,,,,,,,,
293212,2022-09-21_22h10.46.022,vts_reward_expectancy,2022.2.4,MacIntel,60.0024001,Chrome,1280,800,,,,,0,585,,,,,,,,,,,,,,,,,181,U,circle,1,0,,,,,,,,,,,,,,,,switch,number,numSwt,f,noRew,,,,,,1.6351,0,37,0,37,0,1,,,,,,,,,,,,,,,,,
293212,2022-09-21_22h10.46.022,vts_reward_expectancy,2022.2.4,MacIntel,60.0024001,Chrome,1280,800,,,,,0,585,,,,,,,,,,,,,,,,,132,F,triangle,1,0,,,,,,,,,,,,,,,,repeat,number,numRpt,d,noRew,,,,,,0.9732,0,38,0,38,0,1,,,,,,,,,,,,,,,,,
293212,2022-09-21_22h10.46.022,vts_reward_expectancy,2022.2.4,MacIntel,60.0024001,Chrome,1280,800,,,,,0,585,,,,,,,,,,,,,,,,,167,W,star,1,0,,,,,,,,,,,,,,,,switch,letter,lettSwt,k,noRew,,,,,,0.6436,0,39,0,39,0,1,,,,,,,,,,,,,,,,,
293212,2022-09-21_22h10.46.022,vts_reward_expectancy,2022.2.4,MacIntel,60.0024001,Chrome,1280,800,,,,,0,585,,,,,,,,,,,,,,,,,167,D,hexagon,1,0,,,,,,,,,,,,,,,,repeat,letter,lettRpt,j,noRew,,,,,,1.3395,0,40,0,40,0,1,,,,,,,,,,,,,,,,,
293212,2022-09-21_22h10.46.022,vts_reward_expectancy,2022.2.4,MacIntel,60.0024001,Chrome,1280,800,,,,,0,585,,,,,,,,,,,,,,,,,146,U,star,1,0,,,,,,,,,,,,,,,,switch,number,numSwt,d,noRew,,,,,,2.0722,0,41,0,41,0,1,,,,,,,,,,,,,,,,,
293212,2022-09-21_22h10.46.022,vts_reward_expectancy,2022.2.4,MacIntel,60.0024001,Chrome,1280,800,,,,,0,585,,,,,,,,,,,,,,,,,174,B,star,1,0,,,,,,,,,,,,,,,,switch,letter,lettSwt,j,noRew,,,,,,1.6142,0,42,0,42,0,1,,,,,,,,,,,,,,,,,
293212,2022-09-21_22h10.46.022,vts_reward_expectancy,2022.2.4,MacIntel,60.0024001,Chrome,1280,800,,,,,0,585,,,,,,,,,,,,,,,,,160,H,triangle,1,0,,,,,,,,,,,,,,,,switch,number,numSwt,f,noRew,,,,,,0.8648,0,43,0,43,0,1,,,,,,,,,,,,,,,,,
293212,2022-09-21_22h10.46.022,vts_reward_expectancy,2022.2.4,MacIntel,60.0024001,Chrome,1280,800,,,,,0,585,,,,,,,,,,,,,,,,,139,W,hexagon,-1,0,,,,,,,,,,,,,,,,switch,no_choice,NA,,noRew,,,,,,,0,44,0,44,0,1,,,,,,,,,,,,,,,,,
293212,2022-09-21_22h10.46.022,vts_reward_expectancy,2022.2.4,MacIntel,60.0024001,Chrome,1280,800,,,,,0,585,,,,,,,,,,,,,,,,,160,H,triangle,0,0,,,,,,,,,,,,,,,,switch,letter,NA,k,noRew,,,,,,0.8156,0,45,0,45,0,1,,,,,,,,,,,,,,,,,
293212,2022-09-21_22h10.46.022,vts_reward_expectancy,2022.2.4,MacIntel,60.0024001,Chrome,1280,800,,,,,0,585,,,,,,,,,,,,,,,,,132,F,hexagon,1,1,,,,,,,,,,,,,,,,repeat,letter,lettRpt,j,noRew,,,,,,1.2018,0,46,0,46,0,1,,,,,,,,,,,,,,,,,
293212,2022-09-21_22h10.46.022,vts_reward_expectancy,2022.2.4,MacIntel,60.0024001,Chrome,1280,800,,,,,0,585,,,,,,,,,,,,,,,,,174,U,star,1,0,,,,,,,,,,,,,,,,switch,number,numSwt,f,noRew,,,,,,0.6261,0,47,0,47,0,1,,,,,,,,,,,,,,,,,
293212,2022-09-21_22h10.46.022,vts_reward_expectancy,2022.2.4,MacIntel,60.0024001,Chrome,1280,800,,,,,0,585,,,,,,,,,,,,,,,,,174,U,triangle,1,0,,,,,,,,,,,,,,,,repeat,number,numRpt,f,noRew,,,,,,0.7706,0,48,0,48,0,1,,,,,,,,,,,,,,,,,
293212,2022-09-21_22h10.46.022,vts_reward_expectancy,2022.2.4,MacIntel,60.0024001,Chrome,1280,800,,,,,0,585,,,,,,,,,,,,,,,,,139,W,circle,1,0,,,,,,,,,,,,,,,,repeat,number,numRpt,d,noRew,,,,,,0.5431,0,49,0,49,0,1,,,,,,,,,,,,,,,,,
293212,2022-09-21_22h10.46.022,vts_reward_expectancy,2022.2.4,MacIntel,60.0024001,Chrome,1280,800,,,,,0,585,,,,,,,,,,,,,,,,,132,F,star,1,0,,,,,,,,,,,,,,,,switch,letter,lettSwt,j,noRew,,,,,,1.3389,0,50,0,50,0,1,,,,,,,,,,,,,,,,,
293212,2022-09-21_22h10.46.022,vts_reward_expectancy,2022.2.4,MacIntel,60.0024001,Chrome,1280,800,,,,,0,585,,,,,,,,,,,,,,,,,146,B,triangle,1,0,,,,,,,,,,,,,,,,repeat,letter,lettRpt,j,noRew,,,,,,1.2373,0,51,0,51,0,1,,,,,,,,,,,,,,,,,
293212,2022-09-21_22h10.46.022,vts_reward_expectancy,2022.2.4,MacIntel,60.0024001,Chrome,1280,800,,,,,0,585,,,,,,,,,,,,,,,,,167,D,circle,1,0,,,,,,,,,,,,,,,,repeat,letter,lettRpt,j,noRew,,,,,,0.93,0,52,0,52,0,1,,,,,,,,,,,,,,,,,
293212,2022-09-21_22h10.46.022,vts_reward_expectancy,2022.2.4,MacIntel,60.0024001,Chrome,1280,800,,,,,0,585,,,,,,,,,,,,,,,,,146,Y,hexagon,1,0,,,,,,,,,,,,,,,,switch,number,numSwt,d,noRew,,,,,,0.8313,0,53,0,53,0,1,,,,,,,,,,,,,,,,,
293212,2022-09-21_22h10.46.022,vts_reward_expectancy,2022.2.4,MacIntel,60.0024001,Chrome,1280,800,,,,,0,585,,,,,,,,,,,,,,,,,181,S,circle,1,0,,,,,,,,,,,,,,,,repeat,number,numRpt,f,noRew,,,,,,1.9982,0,54,0,54,0,1,,,,,,,,,,,,,,,,,
293212,2022-09-21_22h10.46.022,vts_reward_expectancy,2022.2.4,MacIntel,60.0024001,Chrome,1280,800,,,,,0,585,,,,,,,,,,,,,,,,,125,U,star,1,0,,,,,,,,,,,,,,,,repeat,number,numRpt,d,noRew,,,,,,1.5053,0,55,0,55,0,1,,,,,,,,,,,,,,,,,
293212,2022-09-21_22h10.46.022,vts_reward_expectancy,2022.2.4,MacIntel,60.0024001,Chrome,1280,800,,,,,0,585,,,,,,,,,,,,,,,,,125,Y,triangle,1,0,,,,,,,,,,,,,,,,repeat,number,numRpt,d,noRew,,,,,,0.9738,0,56,0,56,0,1,,,,,,,,,,,,,,,,,
293212,2022-09-21_22h10.46.022,vts_reward_expectancy,2022.2.4,MacIntel,60.0024001,Chrome,1280,800,,,,,0,585,,,,,,,,,,,,,,,,,181,F,star,1,0,,,,,,,,,,,,,,,,repeat,number,numRpt,f,noRew,,,,,,0.913,0,57,0,57,0,1,,,,,,,,,,,,,,,,,
293212,2022-09-21_22h10.46.022,vts_reward_expectancy,2022.2.4,MacIntel,60.0024001,Chrome,1280,800,,,,,0,585,,,,,,,,,,,,,,,,,174,U,star,1,0,,,,,,,,,,,,,,,,repeat,number,numRpt,f,noRew,,,,,,1.832,0,58,0,58,0,1,,,,,,,,,,,,,,,,,
293212,2022-09-21_22h10.46.022,vts_reward_expectancy,2022.2.4,MacIntel,60.0024001,Chrome,1280,800,,,,,0,585,,,,,,,,,,,,,,,,,132,B,hexagon,1,0,,,,,,,,,,,,,,,,repeat,number,numRpt,d,noRew,,,,,,1.8214,0,59,0,59,0,1,,,,,,,,,,,,,,,,,
293212,2022-09-21_22h10.46.022,vts_reward_expectancy,2022.2.4,MacIntel,60.0024001,Chrome,1280,800,,,,,0,585,,,,,,,,,,,,,,,,,132,Y,hexagon,1,0,,,,,,,,,,,,,,,,repeat,number,numRpt,d,noRew,,,,,,0.8508,0,60,0,60,0,1,,,,,,,,,,,,,,,,,
293212,2022-09-21_22h10.46.022,vts_reward_expectancy,2022.2.4,MacIntel,60.0024001,Chrome,1280,800,,,,,0,585,,,,,,,,,,,,,,,,,174,D,star,1,0,,,,,,,,,,,,,,,,repeat,number,numRpt,f,noRew,,,,,,1.0472,0,61,0,61,0,1,,,,,,,,,,,,,,,,,
293212,2022-09-21_22h10.46.022,vts_reward_expectancy,2022.2.4,MacIntel,60.0024001,Chrome,1280,800,,,,,0,585,,,,,,,,,,,,,,,,,125,H,star,1,0,,,,,,,,,,,,,,,,switch,letter,lettSwt,j,noRew,,,,,,0.8028,0,62,0,62,0,1,,,,,,,,,,,,,,,,,
293212,2022-09-21_22h10.46.022,vts_reward_expectancy,2022.2.4,MacIntel,60.0024001,Chrome,1280,800,,,,,0,585,,,,,,,,,,,,,,,,,146,W,hexagon,1,0,,,,,,,,,,,,,,,,repeat,letter,lettRpt,k,noRew,,,,,,0.9465,0,63,0,63,0,1,,,,,,,,,,,,,,,,,
293212,2022-09-21_22h10.46.022,vts_reward_expectancy,2022.2.4,MacIntel,60.0024001,Chrome,1280,800,,,,,,,,,,,,,,,,,,,,,,,,,,,,,,,,,,,,,,,,,,,,,,,,,,,,,,,,,,,,,,,,,,,,,,,,,,,,
293212,2022-09-21_22h10.46.022,vts_reward_expectancy,2022.2.4,MacIntel,60.0024001,Chrome,1280,800,,,,,0,585,,,,,,,,,,,,,,,,,174,B,star,1,0,,,,,,,,,,,,,,,,repeat,letter,lettRpt,j,Hi,,,,,,2.0528,0,,,,,,space,5.3942,low,0,0,0,0,1,,,,,,,,,
293212,2022-09-21_22h10.46.022,vts_reward_expectancy,2022.2.4,MacIntel,60.0024001,Chrome,1280,800,,,,,10,595,,,,,,,,,,,,,,,,,181,U,hexagon,1,0,,,,,,,,,,,,,,,,switch,number,numSwt,f,Lo,,,,,,0.7452,0,,,,,,,,low,1,0,1,0,1,,,,,,,,,
293212,2022-09-21_22h10.46.022,vts_reward_expectancy,2022.2.4,MacIntel,60.0024001,Chrome,1280,800,,,,,0,595,,,,,,,,,,,,,,,,,160,D,star,1,0,,,,,,,,,,,,,,,,repeat,number,numRpt,f,Hi,,,,,,1.5621,0,,,,,,,,low,2,0,2,0,1,,,,,,,,,
293212,2022-09-21_22h10.46.022,vts_reward_expectancy,2022.2.4,MacIntel,60.0024001,Chrome,1280,800,,,,,1,596,,,,,,,,,,,,,,,,,125,Y,hexagon,1,0,,,,,,,,,,,,,,,,switch,letter,lettSwt,k,Lo,,,,,,0.9868,0,,,,,,,,low,3,0,3,0,1,,,,,,,,,
293212,2022-09-21_22h10.46.022,vts_reward_expectancy,2022.2.4,MacIntel,60.0024001,Chrome,1280,800,,,,,0,596,,,,,,,,,,,,,,,,,146,W,hexagon,0,0,,,,,,,,,,,,,,,,switch,number,NA,f,Lo,,,,,,0.7475,0,,,,,,,,low,4,0,4,0,1,,,,,,,,,
293212,2022-09-21_22h10.46.022,vts_reward_expectancy,2022.2.4,MacIntel,60.0024001,Chrome,1280,800,,,,,1,597,,,,,,,,,,,,,,,,,139,H,star,1,1,,,,,,,,,,,,,,,,switch,letter,lettSwt,j,Hi,,,,,,0.8559,0,,,,,,,,low,5,0,5,0,1,,,,,,,,,
293212,2022-09-21_22h10.46.022,vts_reward_expectancy,2022.2.4,MacIntel,60.0024001,Chrome,1280,800,,,,,10,607,,,,,,,,,,,,,,,,,167,F,hexagon,1,0,,,,,,,,,,,,,,,,switch,number,numSwt,f,Lo,,,,,,0.9137,0,,,,,,,,low,6,0,6,0,1,,,,,,,,,
293212,2022-09-21_22h10.46.022,vts_reward_expectancy,2022.2.4,MacIntel,60.0024001,Chrome,1280,800,,,,,0,607,,,,,,,,,,,,,,,,,132,S,star,1,0,,,,,,,,,,,,,,,,switch,letter,lettSwt,k,Hi,,,,,,1.047,0,,,,,,,,low,7,0,7,0,1,,,,,,,,,
293212,2022-09-21_22h10.46.022,vts_reward_expectancy,2022.2.4,MacIntel,60.0024001,Chrome,1280,800,,,,,0,607,,,,,,,,,,,,,,,,,174,B,hexagon,0,0,,,,,,,,,,,,,,,,switch,number,NA,d,Hi,,,,,,0.5552,0,,,,,,,,low,8,0,8,0,1,,,,,,,,,
293212,2022-09-21_22h10.46.022,vts_reward_expectancy,2022.2.4,MacIntel,60.0024001,Chrome,1280,800,,,,,1,608,,,,,,,,,,,,,,,,,181,U,star,1,1,,,,,,,,,,,,,,,,repeat,number,numRpt,f,Hi,,,,,,0.9054,0,,,,,,,,low,9,0,9,0,1,,,,,,,,,
293212,2022-09-21_22h10.46.022,vts_reward_expectancy,2022.2.4,MacIntel,60.0024001,Chrome,1280,800,,,,,1,609,,,,,,,,,,,,,,,,,160,D,hexagon,1,0,,,,,,,,,,,,,,,,repeat,number,numRpt,f,Lo,,,,,,0.7813,0,,,,,,,,low,10,0,10,0,1,,,,,,,,,
293212,2022-09-21_22h10.46.022,vts_reward_expectancy,2022.2.4,MacIntel,60.0024001,Chrome,1280,800,,,,,0,609,,,,,,,,,,,,,,,,,125,Y,star,0,0,,,,,,,,,,,,,,,,repeat,number,NA,f,Lo,,,,,,0.7317,0,,,,,,,,low,11,0,11,0,1,,,,,,,,,
293212,2022-09-21_22h10.46.022,vts_reward_expectancy,2022.2.4,MacIntel,60.0024001,Chrome,1280,800,,,,,1,610,,,,,,,,,,,,,,,,,146,W,hexagon,1,1,,,,,,,,,,,,,,,,repeat,number,numRpt,d,Lo,,,,,,0.9282,0,,,,,,,,low,12,0,12,0,1,,,,,,,,,
293212,2022-09-21_22h10.46.022,vts_reward_expectancy,2022.2.4,MacIntel,60.0024001,Chrome,1280,800,,,,,0,610,,,,,,,,,,,,,,,,,139,H,star,1,0,,,,,,,,,,,,,,,,switch,letter,lettSwt,j,Hi,,,,,,1.0518,0,,,,,,,,low,13,0,13,0,1,,,,,,,,,
293212,2022-09-21_22h10.46.022,vts_reward_expectancy,2022.2.4,MacIntel,60.0024001,Chrome,1280,800,,,,,1,611,,,,,,,,,,,,,,,,,167,F,hexagon,1,0,,,,,,,,,,,,,,,,switch,number,numSwt,f,Lo,,,,,,0.7168,0,,,,,,,,low,14,0,14,0,1,,,,,,,,,
293212,2022-09-21_22h10.46.022,vts_reward_expectancy,2022.2.4,MacIntel,60.0024001,Chrome,1280,800,,,,,10,621,,,,,,,,,,,,,,,,,132,S,star,1,0,,,,,,,,,,,,,,,,switch,letter,lettSwt,k,Hi,,,,,,0.6112,0,,,,,,,,low,15,0,15,0,1,,,,,,,,,
293212,2022-09-21_22h10.46.022,vts_reward_expectancy,2022.2.4,MacIntel,60.0024001,Chrome,1280,800,,,,,10,631,,,,,,,,,,,,,,,,,181,Y,hexagon,1,0,,,,,,,,,,,,,,,,switch,number,numSwt,f,Lo,,,,,,0.7363,0,,,,,,,,low,16,0,16,0,1,,,,,,,,,
293212,2022-09-21_22h10.46.022,vts_reward_expectancy,2022.2.4,MacIntel,60.0024001,Chrome,1280,800,,,,,10,641,,,,,,,,,,,,,,,,,174,H,star,1,0,,,,,,,,,,,,,,,,repeat,number,numRpt,f,Hi,,,,,,0.8611,0,,,,,,,,low,17,0,17,0,1,,,,,,,,,
293212,2022-09-21_22h10.46.022,vts_reward_expectancy,2022.2.4,MacIntel,60.0024001,Chrome,1280,800,,,,,10,651,,,,,,,,,,,,,,,,,167,W,hexagon,1,0,,,,,,,,,,,,,,,,switch,letter,lettSwt,k,Lo,,,,,,0.6722,0,,,,,,,,low,18,0,18,0,1,,,,,,,,,
293212,2022-09-21_22h10.46.022,vts_reward_expectancy,2022.2.4,MacIntel,60.0024001,Chrome,1280,800,,,,,10,661,,,,,,,,,,,,,,,,,139,U,star,1,0,,,,,,,,,,,,,,,,switch,number,numSwt,d,Hi,,,,,,0.9237,0,,,,,,,,low,19,0,19,0,1,,,,,,,,,
293212,2022-09-21_22h10.46.022,vts_reward_expectancy,2022.2.4,MacIntel,60.0024001,Chrome,1280,800,,,,,10,671,,,,,,,,,,,,,,,,,125,D,hexagon,1,0,,,,,,,,,,,,,,,,switch,letter,lettSwt,j,Lo,,,,,,1.0798,0,,,,,,,,low,20,0,20,0,1,,,,,,,,,
293212,2022-09-21_22h10.46.022,vts_reward_expectancy,2022.2.4,MacIntel,60.0024001,Chrome,1280,800,,,,,1,672,,,,,,,,,,,,,,,,,160,B,star,1,0,,,,,,,,,,,,,,,,switch,number,numSwt,f,Hi,,,,,,0.8347,0,,,,,,,,low,21,0,21,0,1,,,,,,,,,
293212,2022-09-21_22h10.46.022,vts_reward_expectancy,2022.2.4,MacIntel,60.0024001,Chrome,1280,800,,,,,1,673,,,,,,,,,,,,,,,,,132,S,hexagon,1,0,,,,,,,,,,,,,,,,repeat,number,numRpt,d,Lo,,,,,,0.573,0,,,,,,,,low,22,0,22,0,1,,,,,,,,,
293212,2022-09-21_22h10.46.022,vts_reward_expectancy,2022.2.4,MacIntel,60.0024001,Chrome,1280,800,,,,,0,673,,,,,,,,,,,,,,,,,146,F,star,0,0,,,,,,,,,,,,,,,,repeat,number,NA,f,Lo,,,,,,0.9618,0,,,,,,,,low,23,0,23,0,1,,,,,,,,,
293212,2022-09-21_22h10.46.022,vts_reward_expectancy,2022.2.4,MacIntel,60.0024001,Chrome,1280,800,,,,,1,674,,,,,,,,,,,,,,,,,146,D,hexagon,1,1,,,,,,,,,,,,,,,,repeat,number,numRpt,d,Lo,,,,,,1.1184,0,,,,,,,,low,24,0,24,0,1,,,,,,,,,
293212,2022-09-21_22h10.46.022,vts_reward_expectancy,2022.2.4,MacIntel,60.0024001,Chrome,1280,800,,,,,10,684,,,,,,,,,,,,,,,,,160,U,star,1,0,,,,,,,,,,,,,,,,repeat,number,numRpt,f,Hi,,,,,,0.7126,0,,,,,,,,low,25,0,25,0,1,,,,,,,,,
293212,2022-09-21_22h10.46.022,vts_reward_expectancy,2022.2.4,MacIntel,60.0024001,Chrome,1280,800,,,,,10,694,,,,,,,,,,,,,,,,,139,S,star,1,0,,,,,,,,,,,,,,,,repeat,number,numRpt,d,Hi,,,,,,0.8853,0,,,,,,,,low,26,0,26,0,1,,,,,,,,,
293212,2022-09-21_22h10.46.022,vts_reward_expectancy,2022.2.4,MacIntel,60.0024001,Chrome,1280,800,,,,,1,695,,,,,,,,,,,,,,,,,174,W,hexagon,1,0,,,,,,,,,,,,,,,,repeat,number,numRpt,f,Lo,,,,,,1.22,0,,,,,,,,low,27,0,27,0,1,,,,,,,,,
293212,2022-09-21_22h10.46.022,vts_reward_expectancy,2022.2.4,MacIntel,60.0024001,Chrome,1280,800,,,,,0,695,,,,,,,,,,,,,,,,,125,H,star,1,0,,,,,,,,,,,,,,,,switch,letter,lettSwt,j,Hi,,,,,,1.3314,0,,,,,,,,low,28,0,28,0,1,,,,,,,,,
293212,2022-09-21_22h10.46.022,vts_reward_expectancy,2022.2.4,MacIntel,60.0024001,Chrome,1280,800,,,,,1,696,,,,,,,,,,,,,,,,,181,B,hexagon,1,0,,,,,,,,,,,,,,,,repeat,letter,lettRpt,j,Lo,,,,,,0.6714,0,,,,,,,,low,29,0,29,0,1,,,,,,,,,
293212,2022-09-21_22h10.46.022,vts_reward_expectancy,2022.2.4,MacIntel,60.0024001,Chrome,1280,800,,,,,1,697,,,,,,,,,,,,,,,,,132,F,star,1,0,,,,,,,,,,,,,,,,repeat,letter,lettRpt,j,Hi,,,,,,1.1133,0,,,,,,,,low,30,0,30,0,1,,,,,,,,,
293212,2022-09-21_22h10.46.022,vts_reward_expectancy,2022.2.4,MacIntel,60.0024001,Chrome,1280,800,,,,,1,698,,,,,,,,,,,,,,,,,167,Y,hexagon,1,0,,,,,,,,,,,,,,,,repeat,letter,lettRpt,k,Lo,,,,,,0.9044,0,,,,,,,,low,31,0,31,0,1,,,,,,,,,
293212,2022-09-21_22h10.46.022,vts_reward_expectancy,2022.2.4,MacIntel,60.0024001,Chrome,1280,800,,,,,1,699,,,,,,,,,,,,,,,,,174,D,circle,1,0,,,,,,,,,,,,,,,,switch,number,numSwt,f,Lo,,,,,,0.8654,1,,,,,,space,2.0536,high,0,0,0,0,1,,,,,,,,,
293212,2022-09-21_22h10.46.022,vts_reward_expectancy,2022.2.4,MacIntel,60.0024001,Chrome,1280,800,,,,,0,699,,,,,,,,,,,,,,,,,146,Y,triangle,1,0,,,,,,,,,,,,,,,,repeat,number,numRpt,d,Hi,,,,,,0.9247,1,,,,,,,,high,1,0,1,0,1,,,,,,,,,
293212,2022-09-21_22h10.46.022,vts_reward_expectancy,2022.2.4,MacIntel,60.0024001,Chrome,1280,800,,,,,1,700,,,,,,,,,,,,,,,,,160,U,circle,1,0,,,,,,,,,,,,,,,,switch,letter,lettSwt,k,Lo,,,,,,0.6309,1,,,,,,,,high,2,0,2,0,1,,,,,,,,,
293212,2022-09-21_22h10.46.022,vts_reward_expectancy,2022.2.4,MacIntel,60.0024001,Chrome,1280,800,,,,,0,700,,,,,,,,,,,,,,,,,181,B,triangle,1,0,,,,,,,,,,,,,,,,switch,number,numSwt,f,Hi,,,,,,0.765,1,,,,,,,,high,3,0,3,0,1,,,,,,,,,
293212,2022-09-21_22h10.46.022,vts_reward_expectancy,2022.2.4,MacIntel,60.0024001,Chrome,1280,800,,,,,1,701,,,,,,,,,,,,,,,,,167,H,circle,1,0,,,,,,,,,,,,,,,,repeat,number,numRpt,f,Lo,,,,,,1,1,,,,,,,,high,4,0,4,0,1,,,,,,,,,
293212,2022-09-21_22h10.46.022,vts_reward_expectancy,2022.2.4,MacIntel,60.0024001,Chrome,1280,800,,,,,10,711,,,,,,,,,,,,,,,,,125,W,triangle,1,0,,,,,,,,,,,,,,,,repeat,number,numRpt,d,Hi,,,,,,0.8304,1,,,,,,,,high,5,0,5,0,1,,,,,,,,,
293212,2022-09-21_22h10.46.022,vts_reward_expectancy,2022.2.4,MacIntel,60.0024001,Chrome,1280,800,,,,,1,712,,,,,,,,,,,,,,,,,139,S,circle,1,0,,,,,,,,,,,,,,,,repeat,number,numRpt,d,Lo,,,,,,0.9511,1,,,,,,,,high,6,0,6,0,1,,,,,,,,,
293212,2022-09-21_22h10.46.022,vts_reward_expectancy,2022.2.4,MacIntel,60.0024001,Chrome,1280,800,,,,,10,722,,,,,,,,,,,,,,,,,132,F,triangle,1,0,,,,,,,,,,,,,,,,repeat,number,numRpt,d,Hi,,,,,,0.7104,1,,,,,,,,high,7,0,7,0,1,,,,,,,,,
293212,2022-09-21_22h10.46.022,vts_reward_expectancy,2022.2.4,MacIntel,60.0024001,Chrome,1280,800,,,,,1,723,,,,,,,,,,,,,,,,,174,D,circle,1,0,,,,,,,,,,,,,,,,switch,letter,lettSwt,j,Lo,,,,,,1.3792,1,,,,,,,,high,8,0,8,0,1,,,,,,,,,
293212,2022-09-21_22h10.46.022,vts_reward_expectancy,2022.2.4,MacIntel,60.0024001,Chrome,1280,800,,,,,0,723,,,,,,,,,,,,,,,,,146,Y,triangle,1,0,,,,,,,,,,,,,,,,switch,number,numSwt,d,Hi,,,,,,0.7967,1,,,,,,,,high,9,0,9,0,1,,,,,,,,,
293212,2022-09-21_22h10.46.022,vts_reward_expectancy,2022.2.4,MacIntel,60.0024001,Chrome,1280,800,,,,,0,723,,,,,,,,,,,,,,,,,160,U,triangle,0,0,,,,,,,,,,,,,,,,repeat,number,NA,d,Hi,,,,,,0.2937,1,,,,,,,,high,10,0,10,0,1,,,,,,,,,
293212,2022-09-21_22h10.46.022,vts_reward_expectancy,2022.2.4,MacIntel,60.0024001,Chrome,1280,800,,,,,1,724,,,,,,,,,,,,,,,,,181,B,circle,1,1,,,,,,,,,,,,,,,,switch,letter,lettSwt,j,Lo,,,,,,0.5993,1,,,,,,,,high,11,0,11,0,1,,,,,,,,,
293212,2022-09-21_22h10.46.022,vts_reward_expectancy,2022.2.4,MacIntel,60.0024001,Chrome,1280,800,,,,,1,725,,,,,,,,,,,,,,,,,167,H,circle,1,0,,,,,,,,,,,,,,,,switch,number,numSwt,f,Lo,,,,,,0.6455,1,,,,,,,,high,12,0,12,0,1,,,,,,,,,
293212,2022-09-21_22h10.46.022,vts_reward_expectancy,2022.2.4,MacIntel,60.0024001,Chrome,1280,800,,,,,10,735,,,,,,,,,,,,,,,,,125,W,triangle,1,0,,,,,,,,,,,,,,,,switch,letter,lettSwt,k,Hi,,,,,,0.5555,1,,,,,,,,high,13,0,13,0,1,,,,,,,,,
293212,2022-09-21_22h10.46.022,vts_reward_expectancy,2022.2.4,MacIntel,60.0024001,Chrome,1280,800,,,,,0,735,,,,,,,,,,,,,,,,,139,S,triangle,1,0,,,,,,,,,,,,,,,,switch,number,numSwt,d,Hi,,,,,,0.8482,1,,,,,,,,high,14,0,14,0,1,,,,,,,,,
293212,2022-09-21_22h10.46.022,vts_reward_expectancy,2022.2.4,MacIntel,60.0024001,Chrome,1280,800,,,,,1,736,,,,,,,,,,,,,,,,,132,F,circle,1,0,,,,,,,,,,,,,,,,switch,letter,lettSwt,j,Lo,,,,,,0.847,1,,,,,,,,high,15,0,15,0,1,,,,,,,,,
293212,2022-09-21_22h10.46.022,vts_reward_expectancy,2022.2.4,MacIntel,60.0024001,Chrome,1280,800,,,,,0,736,,,,,,,,,,,,,,,,,139,U,triangle,1,0,,,,,,,,,,,,,,,,repeat,letter,lettRpt,k,Hi,,,,,,1.2944,1,,,,,,,,high,16,0,16,0,1,,,,,,,,,
293212,2022-09-21_22h10.46.022,vts_reward_expectancy,2022.2.4,MacIntel,60.0024001,Chrome,1280,800,,,,,10,746,,,,,,,,,,,,,,,,,174,F,circle,1,0,,,,,,,,,,,,,,,,repeat,letter,lettRpt,j,Lo,,,,,,0.7507,1,,,,,,,,high,17,0,17,0,1,,,,,,,,,
293212,2022-09-21_22h10.46.022,vts_reward_expectancy,2022.2.4,MacIntel,60.0024001,Chrome,1280,800,,,,,10,756,,,,,,,,,,,,,,,,,167,D,triangle,1,0,,,,,,,,,,,,,,,,repeat,letter,lettRpt,j,Hi,,,,,,0.7157,1,,,,,,,,high,18,0,18,0,1,,,,,,,,,
293212,2022-09-21_22h10.46.022,vts_reward_expectancy,2022.2.4,MacIntel,60.0024001,Chrome,1280,800,,,,,1,757,,,,,,,,,,,,,,,,,132,Y,circle,1,0,,,,,,,,,,,,,,,,switch,number,numSwt,d,Lo,,,,,,0.7209,1,,,,,,,,high,19,0,19,0,1,,,,,,,,,
293212,2022-09-21_22h10.46.022,vts_reward_expectancy,2022.2.4,MacIntel,60.0024001,Chrome,1280,800,,,,,1,758,,,,,,,,,,,,,,,,,125,B,circle,1,0,,,,,,,,,,,,,,,,switch,letter,lettSwt,j,Lo,,,,,,0.6463,1,,,,,,,,high,20,0,20,0,1,,,,,,,,,
293212,2022-09-21_22h10.46.022,vts_reward_expectancy,2022.2.4,MacIntel,60.0024001,Chrome,1280,800,,,,,0,758,,,,,,,,,,,,,,,,,160,H,triangle,1,0,,,,,,,,,,,,,,,,switch,number,numSwt,f,Hi,,,,,,0.9461,1,,,,,,,,high,21,0,21,0,1,,,,,,,,,
293212,2022-09-21_22h10.46.022,vts_reward_expectancy,2022.2.4,MacIntel,60.0024001,Chrome,1280,800,,,,,1,759,,,,,,,,,,,,,,,,,146,W,circle,1,0,,,,,,,,,,,,,,,,repeat,number,numRpt,d,Lo,,,,,,0.6629,1,,,,,,,,high,22,0,22,0,1,,,,,,,,,
293212,2022-09-21_22h10.46.022,vts_reward_expectancy,2022.2.4,MacIntel,60.0024001,Chrome,1280,800,,,,,10,769,,,,,,,,,,,,,,,,,181,S,triangle,1,0,,,,,,,,,,,,,,,,switch,letter,lettSwt,k,Hi,,,,,,0.0939,1,,,,,,,,high,23,0,23,0,1,,,,,,,,,
293212,2022-09-21_22h10.46.022,vts_reward_expectancy,2022.2.4,MacIntel,60.0024001,Chrome,1280,800,,,,,1,770,,,,,,,,,,,,,,,,,167,B,triangle,1,0,,,,,,,,,,,,,,,,repeat,letter,lettRpt,j,Hi,,,,,,0.8722,1,,,,,,,,high,24,0,24,0,1,,,,,,,,,
293212,2022-09-21_22h10.46.022,vts_reward_expectancy,2022.2.4,MacIntel,60.0024001,Chrome,1280,800,,,,,0,770,,,,,,,,,,,,,,,,,139,S,circle,0,0,,,,,,,,,,,,,,,,switch,number,NA,f,Hi,,,,,,0.6481,1,,,,,,,,high,25,0,25,0,1,,,,,,,,,
293212,2022-09-21_22h10.46.022,vts_reward_expectancy,2022.2.4,MacIntel,60.0024001,Chrome,1280,800,,,,,0,770,,,,,,,,,,,,,,,,,146,H,circle,0,1,,,,,,,,,,,,,,,,repeat,number,NA,f,Hi,,,,,,0.5312,1,,,,,,,,high,26,0,26,0,1,,,,,,,,,
293212,2022-09-21_22h10.46.022,vts_reward_expectancy,2022.2.4,MacIntel,60.0024001,Chrome,1280,800,,,,,0,770,,,,,,,,,,,,,,,,,132,F,triangle,1,1,,,,,,,,,,,,,,,,repeat,number,numRpt,d,Hi,,,,,,1.3323,1,,,,,,,,high,27,0,27,0,1,,,,,,,,,
293212,2022-09-21_22h10.46.022,vts_reward_expectancy,2022.2.4,MacIntel,60.0024001,Chrome,1280,800,,,,,1,771,,,,,,,,,,,,,,,,,125,U,circle,1,0,,,,,,,,,,,,,,,,switch,letter,lettSwt,k,Lo,,,,,,0.7651,1,,,,,,,,high,28,0,28,0,1,,,,,,,,,
293212,2022-09-21_22h10.46.022,vts_reward_expectancy,2022.2.4,MacIntel,60.0024001,Chrome,1280,800,,,,,0,771,,,,,,,,,,,,,,,,,181,Y,triangle,0,0,,,,,,,,,,,,,,,,switch,number,NA,d,Lo,,,,,,1.1364,1,,,,,,,,high,29,0,29,0,1,,,,,,,,,
293212,2022-09-21_22h10.46.022,vts_reward_expectancy,2022.2.4,MacIntel,60.0024001,Chrome,1280,800,,,,,0,771,,,,,,,,,,,,,,,,,160,W,circle,0,1,,,,,,,,,,,,,,,,switch,letter,NA,j,Lo,,,,,,0.7655,1,,,,,,,,high,30,0,30,0,1,,,,,,,,,
293212,2022-09-21_22h10.46.022,vts_reward_expectancy,2022.2.4,MacIntel,60.0024001,Chrome,1280,800,,,,,0,771,,,,,,,,,,,,,,,,,174,D,triangle,1,1,,,,,,,,,,,,,,,,repeat,letter,lettRpt,j,Hi,,,,,,1.1004,1,,,,,,,,high,31,0,31,0,1,,,,,,,,,
293212,2022-09-21_22h10.46.022,vts_reward_expectancy,2022.2.4,MacIntel,60.0024001,Chrome,1280,800,,,,,1,772,,,,,,,,,,,,,,,,,174,W,hexagon,1,0,,,,,,,,,,,,,,,,repeat,letter,lettRpt,k,Lo,,,,,,0.6951,2,,,,,,space,4.5699,low,0,0,0,0,1,,,,,,,,,
293212,2022-09-21_22h10.46.022,vts_reward_expectancy,2022.2.4,MacIntel,60.0024001,Chrome,1280,800,,,,,0,772,,,,,,,,,,,,,,,,,146,Y,star,1,0,,,,,,,,,,,,,,,,switch,number,numSwt,d,Hi,,,,,,1.5824,2,,,,,,,,low,1,0,1,0,1,,,,,,,,,
293212,2022-09-21_22h10.46.022,vts_reward_expectancy,2022.2.4,MacIntel,60.0024001,Chrome,1280,800,,,,,0,772,,,,,,,,,,,,,,,,,139,H,hexagon,0,0,,,,,,,,,,,,,,,,repeat,number,NA,f,Hi,,,,,,0.5143,2,,,,,,,,low,2,0,2,0,1,,,,,,,,,
293212,2022-09-21_22h10.46.022,vts_reward_expectancy,2022.2.4,MacIntel,60.0024001,Chrome,1280,800,,,,,0,772,,,,,,,,,,,,,,,,,167,D,star,1,1,,,,,,,,,,,,,,,,switch,letter,lettSwt,j,Hi,,,,,,0.6307,2,,,,,,,,low,3,0,3,0,1,,,,,,,,,
293212,2022-09-21_22h10.46.022,vts_reward_expectancy,2022.2.4,MacIntel,60.0024001,Chrome,1280,800,,,,,1,773,,,,,,,,,,,,,,,,,181,B,hexagon,1,0,,,,,,,,,,,,,,,,repeat,letter,lettRpt,j,Lo,,,,,,0.6135,2,,,,,,,,low,4,0,4,0,1,,,,,,,,,
293212,2022-09-21_22h10.46.022,vts_reward_expectancy,2022.2.4,MacIntel,60.0024001,Chrome,1280,800,,,,,10,783,,,,,,,,,,,,,,,,,125,U,star,1,0,,,,,,,,,,,,,,,,repeat,letter,lettRpt,k,Hi,,,,,,0.6298,2,,,,,,,,low,5,0,5,0,1,,,,,,,,,
293212,2022-09-21_22h10.46.022,vts_reward_expectancy,2022.2.4,MacIntel,60.0024001,Chrome,1280,800,,,,,1,784,,,,,,,,,,,,,,,,,160,F,hexagon,1,0,,,,,,,,,,,,,,,,repeat,letter,lettRpt,j,Lo,,,,,,0.628,2,,,,,,,,low,6,0,6,0,1,,,,,,,,,
293212,2022-09-21_22h10.46.022,vts_reward_expectancy,2022.2.4,MacIntel,60.0024001,Chrome,1280,800,,,,,0,784,,,,,,,,,,,,,,,,,132,S,star,1,0,,,,,,,,,,,,,,,,repeat,letter,lettRpt,k,Hi,,,,,,1.5059,2,,,,,,,,low,7,0,7,0,1,,,,,,,,,
293212,2022-09-21_22h10.46.022,vts_reward_expectancy,2022.2.4,MacIntel,60.0024001,Chrome,1280,800,,,,,10,794,,,,,,,,,,,,,,,,,174,W,hexagon,1,0,,,,,,,,,,,,,,,,repeat,letter,lettRpt,k,Lo,,,,,,0.5658,2,,,,,,,,low,8,0,8,0,1,,,,,,,,,
293212,2022-09-21_22h10.46.022,vts_reward_expectancy,2022.2.4,MacIntel,60.0024001,Chrome,1280,800,,,,,1,795,,,,,,,,,,,,,,,,,146,Y,star,1,0,,,,,,,,,,,,,,,,switch,number,numSwt,d,Hi,,,,,,0.6477,2,,,,,,,,low,9,0,9,0,1,,,,,,,,,
293212,2022-09-21_22h10.46.022,vts_reward_expectancy,2022.2.4,MacIntel,60.0024001,Chrome,1280,800,,,,,10,805,,,,,,,,,,,,,,,,,139,H,hexagon,1,0,,,,,,,,,,,,,,,,repeat,number,numRpt,d,Lo,,,,,,0.5451,2,,,,,,,,low,10,0,10,0,1,,,,,,,,,
293212,2022-09-21_22h10.46.022,vts_reward_expectancy,2022.2.4,MacIntel,60.0024001,Chrome,1280,800,,,,,10,815,,,,,,,,,,,,,,,,,167,D,star,1,0,,,,,,,,,,,,,,,,repeat,number,numRpt,f,Hi,,,,,,0.8044,2,,,,,,,,low,11,0,11,0,1,,,,,,,,,
293212,2022-09-21_22h10.46.022,vts_reward_expectancy,2022.2.4,MacIntel,60.0024001,Chrome,1280,800,,,,,1,816,,,,,,,,,,,,,,,,,181,B,star,1,0,,,,,,,,,,,,,,,,switch,letter,lettSwt,j,Hi,,,,,,0.5167,2,,,,,,,,low,12,0,12,0,1,,,,,,,,,
293212,2022-09-21_22h10.46.022,vts_reward_expectancy,2022.2.4,MacIntel,60.0024001,Chrome,1280,800,,,,,1,817,,,,,,,,,,,,,,,,,125,U,hexagon,1,0,,,,,,,,,,,,,,,,repeat,letter,lettRpt,k,Lo,,,,,,0.5975,2,,,,,,,,low,13,0,13,0,1,,,,,,,,,
293212,2022-09-21_22h10.46.022,vts_reward_expectancy,2022.2.4,MacIntel,60.0024001,Chrome,1280,800,,,,,1,818,,,,,,,,,,,,,,,,,160,F,hexagon,1,0,,,,,,,,,,,,,,,,repeat,letter,lettRpt,j,Lo,,,,,,1.1486,2,,,,,,,,low,14,0,14,0,1,,,,,,,,,
293212,2022-09-21_22h10.46.022,vts_reward_expectancy,2022.2.4,MacIntel,60.0024001,Chrome,1280,800,,,,,1,819,,,,,,,,,,,,,,,,,132,S,star,1,0,,,,,,,,,,,,,,,,repeat,letter,lettRpt,k,Hi,,,,,,0.5653,2,,,,,,,,low,15,0,15,0,1,,,,,,,,,
293212,2022-09-21_22h10.46.022,vts_reward_expectancy,2022.2.4,MacIntel,60.0024001,Chrome,1280,800,,,,,0,819,,,,,,,,,,,,,,,,,174,D,star,1,0,,,,,,,,,,,,,,,,repeat,letter,lettRpt,j,Hi,,,,,,0.907,2,,,,,,,,low,16,0,16,0,1,,,,,,,,,
293212,2022-09-21_22h10.46.022,vts_reward_expectancy,2022.2.4,MacIntel,60.0024001,Chrome,1280,800,,,,,0,819,,,,,,,,,,,,,,,,,132,H,hexagon,0,0,,,,,,,,,,,,,,,,repeat,letter,NA,k,Hi,,,,,,0.5642,2,,,,,,,,low,17,0,17,0,1,,,,,,,,,
293212,2022-09-21_22h10.46.022,vts_reward_expectancy,2022.2.4,MacIntel,60.0024001,Chrome,1280,800,,,,,1,820,,,,,,,,,,,,,,,,,160,U,hexagon,1,1,,,,,,,,,,,,,,,,repeat,letter,lettRpt,k,Lo,,,,,,1.3003,2,,,,,,,,low,18,0,18,0,1,,,,,,,,,
293212,2022-09-21_22h10.46.022,vts_reward_expectancy,2022.2.4,MacIntel,60.0024001,Chrome,1280,800,,,,,0,820,,,,,,,,,,,,,,,,,139,F,star,1,0,,,,,,,,,,,,,,,,repeat,letter,lettRpt,j,Hi,,,,,,1.3798,2,,,,,,,,low,19,0,19,0,1,,,,,,,,,
293212,2022-09-21_22h10.46.022,vts_reward_expectancy,2022.2.4,MacIntel,60.0024001,Chrome,1280,800,,,,,0,820,,,,,,,,,,,,,,,,,125,B,hexagon,0,0,,,,,,,,,,,,,,,,switch,number,NA,f,Hi,,,,,,0.6794,2,,,,,,,,low,20,0,20,0,1,,,,,,,,,
293212,2022-09-21_22h10.46.022,vts_reward_expectancy,2022.2.4,MacIntel,60.0024001,Chrome,1280,800,,,,,0,820,,,,,,,,,,,,,,,,,167,W,star,1,1,,,,,,,,,,,,,,,,switch,letter,lettSwt,k,Hi,,,,,,0.7523,2,,,,,,,,low,21,0,21,0,1,,,,,,,,,
293212,2022-09-21_22h10.46.022,vts_reward_expectancy,2022.2.4,MacIntel,60.0024001,Chrome,1280,800,,,,,10,830,,,,,,,,,,,,,,,,,181,S,star,1,0,,,,,,,,,,,,,,,,repeat,letter,lettRpt,k,Hi,,,,,,0.532,2,,,,,,,,low,22,0,22,0,1,,,,,,,,,
293212,2022-09-21_22h10.46.022,vts_reward_expectancy,2022.2.4,MacIntel,60.0024001,Chrome,1280,800,,,,,0,830,,,,,,,,,,,,,,,,,146,Y,hexagon,0,0,,,,,,,,,,,,,,,,repeat,letter,NA,j,Hi,,,,,,0.3721,2,,,,,,,,low,23,0,23,0,1,,,,,,,,,
293212,2022-09-21_22h10.46.022,vts_reward_expectancy,2022.2.4,MacIntel,60.0024001,Chrome,1280,800,,,,,0,830,,,,,,,,,,,,,,,,,167,H,hexagon,0,1,,,,,,,,,,,,,,,,repeat,letter,NA,k,Hi,,,,,,0.3054,2,,,,,,,,low,24,0,24,0,1,,,,,,,,,
293212,2022-09-21_22h10.46.022,vts_reward_expectancy,2022.2.4,MacIntel,60.0024001,Chrome,1280,800,,,,,10,840,,,,,,,,,,,,,,,,,139,S,star,1,1,,,,,,,,,,,,,,,,repeat,letter,lettRpt,k,Hi,,,,,,0.2657,2,,,,,,,,low,25,0,25,0,1,,,,,,,,,
293212,2022-09-21_22h10.46.022,vts_reward_expectancy,2022.2.4,MacIntel,60.0024001,Chrome,1280,800,,,,,10,850,,,,,,,,,,,,,,,,,174,Y,star,1,0,,,,,,,,,,,,,,,,repeat,letter,lettRpt,k,Hi,,,,,,0.3674,2,,,,,,,,low,26,0,26,0,1,,,,,,,,,
293212,2022-09-21_22h10.46.022,vts_reward_expectancy,2022.2.4,MacIntel,60.0024001,Chrome,1280,800,,,,,0,850,,,,,,,,,,,,,,,,,132,B,hexagon,0,0,,,,,,,,,,,,,,,,repeat,letter,NA,k,Hi,,,,,,0.3809,2,,,,,,,,low,27,0,27,0,1,,,,,,,,,
293212,2022-09-21_22h10.46.022,vts_reward_expectancy,2022.2.4,MacIntel,60.0024001,Chrome,1280,800,,,,,0,850,,,,,,,,,,,,,,,,,125,U,hexagon,0,1,,,,,,,,,,,,,,,,switch,number,NA,f,Hi,,,,,,0.2814,2,,,,,,,,low,28,0,28,0,1,,,,,,,,,
293212,2022-09-21_22h10.46.022,vts_reward_expectancy,2022.2.4,MacIntel,60.0024001,Chrome,1280,800,,,,,1,851,,,,,,,,,,,,,,,,,160,D,star,1,1,,,,,,,,,,,,,,,,switch,letter,lettSwt,j,Hi,,,,,,0.2808,2,,,,,,,,low,29,0,29,0,1,,,,,,,,,
293212,2022-09-21_22h10.46.022,vts_reward_expectancy,2022.2.4,MacIntel,60.0024001,Chrome,1280,800,,,,,1,852,,,,,,,,,,,,,,,,,181,W,hexagon,1,0,,,,,,,,,,,,,,,,repeat,letter,lettRpt,k,Lo,,,,,,0.3645,2,,,,,,,,low,30,0,30,0,1,,,,,,,,,
293212,2022-09-21_22h10.46.022,vts_reward_expectancy,2022.2.4,MacIntel,60.0024001,Chrome,1280,800,,,,,1,853,,,,,,,,,,,,,,,,,146,F,star,1,0,,,,,,,,,,,,,,,,repeat,letter,lettRpt,j,Hi,,,,,,0.3016,2,,,,,,,,low,31,0,31,0,1,,,,,,,,,
293212,2022-09-21_22h10.46.022,vts_reward_expectancy,2022.2.4,MacIntel,60.0024001,Chrome,1280,800,,,,,1,854,,,,,,,,,,,,,,,,,181,U,hexagon,1,0,,,,,,,,,,,,,,,,repeat,letter,lettRpt,k,Lo,,,,,,0.3806,3,,,,,,space,1.2401,low,0,0,0,0,1,,,,,,,,,
293212,2022-09-21_22h10.46.022,vts_reward_expectancy,2022.2.4,MacIntel,60.0024001,Chrome,1280,800,,,,,0,854,,,,,,,,,,,,,,,,,132,D,star,0,0,,,,,,,,,,,,,,,,repeat,letter,NA,k,Lo,,,,,,0.2662,3,,,,,,,,low,1,0,1,0,1,,,,,,,,,
293212,2022-09-21_22h10.46.022,vts_reward_expectancy,2022.2.4,MacIntel,60.0024001,Chrome,1280,800,,,,,0,854,,,,,,,,,,,,,,,,,139,Y,hexagon,0,1,,,,,,,,,,,,,,,,repeat,letter,NA,j,Lo,,,,,,0.3343,3,,,,,,,,low,2,0,2,0,1,,,,,,,,,
293212,2022-09-21_22h10.46.022,vts_reward_expectancy,2022.2.4,MacIntel,60.0024001,Chrome,1280,800,,,,,0,854,,,,,,,,,,,,,,,,,146,S,star,0,1,,,,,,,,,,,,,,,,repeat,letter,NA,j,Lo,,,,,,0.301,3,,,,,,,,low,3,0,3,0,1,,,,,,,,,
293212,2022-09-21_22h10.46.022,vts_reward_expectancy,2022.2.4,MacIntel,60.0024001,Chrome,1280,800,,,,,0,854,,,,,,,,,,,,,,,,,160,W,star,0,1,,,,,,,,,,,,,,,,repeat,letter,NA,j,Lo,,,,,,0.363,3,,,,,,,,low,4,0,4,0,1,,,,,,,,,
293212,2022-09-21_22h10.46.022,vts_reward_expectancy,2022.2.4,MacIntel,60.0024001,Chrome,1280,800,,,,,0,854,,,,,,,,,,,,,,,,,125,B,hexagon,0,1,,,,,,,,,,,,,,,,switch,number,NA,f,Lo,,,,,,0.3823,3,,,,,,,,low,5,0,5,0,1,,,,,,,,,
293212,2022-09-21_22h10.46.022,vts_reward_expectancy,2022.2.4,MacIntel,60.0024001,Chrome,1280,800,,,,,10,864,,,,,,,,,,,,,,,,,174,F,hexagon,1,1,,,,,,,,,,,,,,,,repeat,number,numRpt,f,Lo,,,,,,0.3518,3,,,,,,,,low,6,0,6,0,1,,,,,,,,,
293212,2022-09-21_22h10.46.022,vts_reward_expectancy,2022.2.4,MacIntel,60.0024001,Chrome,1280,800,,,,,10,874,,,,,,,,,,,,,,,,,167,H,star,1,0,,,,,,,,,,,,,,,,switch,letter,lettSwt,j,Hi,,,,,,0.4512,3,,,,,,,,low,7,0,7,0,1,,,,,,,,,
293212,2022-09-21_22h10.46.022,vts_reward_expectancy,2022.2.4,MacIntel,60.0024001,Chrome,1280,800,,,,,0,874,,,,,,,,,,,,,,,,,181,U,star,0,0,,,,,,,,,,,,,,,,switch,number,NA,d,Hi,,,,,,0.082,3,,,,,,,,low,8,0,8,0,1,,,,,,,,,
293212,2022-09-21_22h10.46.022,vts_reward_expectancy,2022.2.4,MacIntel,60.0024001,Chrome,1280,800,,,,,10,884,,,,,,,,,,,,,,,,,132,D,hexagon,1,1,,,,,,,,,,,,,,,,switch,letter,lettSwt,j,Lo,,,,,,0.3126,3,,,,,,,,low,9,0,9,0,1,,,,,,,,,
293212,2022-09-21_22h10.46.022,vts_reward_expectancy,2022.2.4,MacIntel,60.0024001,Chrome,1280,800,,,,,0,884,,,,,,,,,,,,,,,,,139,Y,hexagon,0,0,,,,,,,,,,,,,,,,switch,number,NA,f,Lo,,,,,,0.3163,3,,,,,,,,low,10,0,10,0,1,,,,,,,,,
293212,2022-09-21_22h10.46.022,vts_reward_expectancy,2022.2.4,MacIntel,60.0024001,Chrome,1280,800,,,,,0,884,,,,,,,,,,,,,,,,,146,S,star,0,1,,,,,,,,,,,,,,,,switch,letter,NA,j,Lo,,,,,,0.0359,3,,,,,,,,low,11,0,11,0,1,,,,,,,,,
293212,2022-09-21_22h10.46.022,vts_reward_expectancy,2022.2.4,MacIntel,60.0024001,Chrome,1280,800,,,,,1,885,,,,,,,,,,,,,,,,,160,W,hexagon,1,1,,,,,,,,,,,,,,,,switch,number,numSwt,f,Lo,,,,,,0.3156,3,,,,,,,,low,12,0,12,0,1,,,,,,,,,
293212,2022-09-21_22h10.46.022,vts_reward_expectancy,2022.2.4,MacIntel,60.0024001,Chrome,1280,800,,,,,1,886,,,,,,,,,,,,,,,,,125,B,star,1,0,,,,,,,,,,,,,,,,switch,letter,lettSwt,j,Hi,,,,,,0.2783,3,,,,,,,,low,13,0,13,0,1,,,,,,,,,
293212,2022-09-21_22h10.46.022,vts_reward_expectancy,2022.2.4,MacIntel,60.0024001,Chrome,1280,800,,,,,10,896,,,,,,,,,,,,,,,,,174,F,star,1,0,,,,,,,,,,,,,,,,repeat,letter,lettRpt,j,Hi,,,,,,0.3807,3,,,,,,,,low,14,0,14,0,1,,,,,,,,,
293212,2022-09-21_22h10.46.022,vts_reward_expectancy,2022.2.4,MacIntel,60.0024001,Chrome,1280,800,,,,,10,906,,,,,,,,,,,,,,,,,167,H,hexagon,1,0,,,,,,,,,,,,,,,,switch,number,numSwt,f,Lo,,,,,,0.0788,3,,,,,,,,low,15,0,15,0,1,,,,,,,,,
293212,2022-09-21_22h10.46.022,vts_reward_expectancy,2022.2.4,MacIntel,60.0024001,Chrome,1280,800,,,,,0,906,,,,,,,,,,,,,,,,,146,S,hexagon,0,0,,,,,,,,,,,,,,,,switch,letter,NA,j,Lo,,,,,,0.26,3,,,,,,,,low,16,0,16,0,1,,,,,,,,,
293212,2022-09-21_22h10.46.022,vts_reward_expectancy,2022.2.4,MacIntel,60.0024001,Chrome,1280,800,,,,,0,906,,,,,,,,,,,,,,,,,139,U,star,0,1,,,,,,,,,,,,,,,,repeat,letter,NA,j,Lo,,,,,,0.3981,3,,,,,,,,low,17,0,17,0,1,,,,,,,,,
293212,2022-09-21_22h10.46.022,vts_reward_expectancy,2022.2.4,MacIntel,60.0024001,Chrome,1280,800,,,,,0,906,,,,,,,,,,,,,,,,,174,H,star,1,1,,,,,,,,,,,,,,,,repeat,letter,lettRpt,j,Hi,,,,,,0.954,3,,,,,,,,low,18,0,18,0,1,,,,,,,,,
293212,2022-09-21_22h10.46.022,vts_reward_expectancy,2022.2.4,MacIntel,60.0024001,Chrome,1280,800,,,,,1,907,,,,,,,,,,,,,,,,,167,W,hexagon,1,0,,,,,,,,,,,,,,,,switch,number,numSwt,f,Lo,,,,,,0.0679,3,,,,,,,,low,19,0,19,0,1,,,,,,,,,
293212,2022-09-21_22h10.46.022,vts_reward_expectancy,2022.2.4,MacIntel,60.0024001,Chrome,1280,800,,,,,0,907,,,,,,,,,,,,,,,,,125,F,hexagon,0,0,,,,,,,,,,,,,,,,switch,letter,NA,k,Lo,,,,,,0.5133,3,,,,,,,,low,20,0,20,0,1,,,,,,,,,
293212,2022-09-21_22h10.46.022,vts_reward_expectancy,2022.2.4,MacIntel,60.0024001,Chrome,1280,800,,,,,0,907,,,,,,,,,,,,,,,,,181,Y,star,0,1,,,,,,,,,,,,,,,,repeat,letter,NA,j,Lo,,,,,,0.2956,3,,,,,,,,low,21,0,21,0,1,,,,,,,,,
293212,2022-09-21_22h10.46.022,vts_reward_expectancy,2022.2.4,MacIntel,60.0024001,Chrome,1280,800,,,,,10,917,,,,,,,,,,,,,,,,,132,B,star,1,1,,,,,,,,,,,,,,,,repeat,letter,lettRpt,j,Hi,,,,,,0.3337,3,,,,,,,,low,22,0,22,0,1,,,,,,,,,
293212,2022-09-21_22h10.46.022,vts_reward_expectancy,2022.2.4,MacIntel,60.0024001,Chrome,1280,800,,,,,1,918,,,,,,,,,,,,,,,,,160,D,hexagon,1,0,,,,,,,,,,,,,,,,switch,number,numSwt,f,Lo,,,,,,0.5968,3,,,,,,,,low,23,0,23,0,1,,,,,,,,,
293212,2022-09-21_22h10.46.022,vts_reward_expectancy,2022.2.4,MacIntel,60.0024001,Chrome,1280,800,,,,,0,918,,,,,,,,,,,,,,,,,125,F,star,1,0,,,,,,,,,,,,,,,,repeat,number,numRpt,d,Hi,,,,,,0.7158,3,,,,,,,,low,24,0,24,0,1,,,,,,,,,
293212,2022-09-21_22h10.46.022,vts_reward_expectancy,2022.2.4,MacIntel,60.0024001,Chrome,1280,800,,,,,0,918,,,,,,,,,,,,,,,,,146,D,hexagon,0,0,,,,,,,,,,,,,,,,repeat,number,NA,f,Hi,,,,,,0.6314,3,,,,,,,,low,25,0,25,0,1,,,,,,,,,
293212,2022-09-21_22h10.46.022,vts_reward_expectancy,2022.2.4,MacIntel,60.0024001,Chrome,1280,800,,,,,10,928,,,,,,,,,,,,,,,,,132,B,hexagon,1,1,,,,,,,,,,,,,,,,repeat,number,numRpt,d,Lo,,,,,,0.8288,3,,,,,,,,low,26,0,26,0,1,,,,,,,,,
293212,2022-09-21_22h10.46.022,vts_reward_expectancy,2022.2.4,MacIntel,60.0024001,Chrome,1280,800,,,,,0,928,,,,,,,,,,,,,,,,,181,Y,star,1,0,,,,,,,,,,,,,,,,repeat,number,numRpt,f,Hi,,,,,,0.7315,3,,,,,,,,low,27,0,27,0,1,,,,,,,,,
293212,2022-09-21_22h10.46.022,vts_reward_expectancy,2022.2.4,MacIntel,60.0024001,Chrome,1280,800,,,,,0,928,,,,,,,,,,,,,,,,,139,S,star,1,0,,,,,,,,,,,,,,,,repeat,number,numRpt,d,Hi,,,,,,0.8777,3,,,,,,,,low,28,0,28,0,1,,,,,,,,,
293212,2022-09-21_22h10.46.022,vts_reward_expectancy,2022.2.4,MacIntel,60.0024001,Chrome,1280,800,,,,,10,938,,,,,,,,,,,,,,,,,167,U,hexagon,1,0,,,,,,,,,,,,,,,,repeat,number,numRpt,f,Lo,,,,,,0.7027,3,,,,,,,,low,29,0,29,0,1,,,,,,,,,
293212,2022-09-21_22h10.46.022,vts_reward_expectancy,2022.2.4,MacIntel,60.0024001,Chrome,1280,800,,,,,1,939,,,,,,,,,,,,,,,,,174,W,hexagon,1,0,,,,,,,,,,,,,,,,repeat,number,numRpt,f,Lo,,,,,,0.7047,3,,,,,,,,low,30,0,30,0,1,,,,,,,,,
293212,2022-09-21_22h10.46.022,vts_reward_expectancy,2022.2.4,MacIntel,60.0024001,Chrome,1280,800,,,,,0,939,,,,,,,,,,,,,,,,,160,H,star,1,0,,,,,,,,,,,,,,,,repeat,number,numRpt,f,Hi,,,,,,0.7775,3,,,,,,,,low,31,0,31,0,1,,,,,,,,,
293212,2022-09-21_22h10.46.022,vts_reward_expectancy,2022.2.4,MacIntel,60.0024001,Chrome,1280,800,,,,,10,949,,,,,,,,,,,,,,,,,167,Y,circle,1,0,,,,,,,,,,,,,,,,switch,letter,lettSwt,k,Lo,,,,,,0.8432,4,,,,,,space,0.9634,high,0,0,0,0,1,,,,,,,,,
293212,2022-09-21_22h10.46.022,vts_reward_expectancy,2022.2.4,MacIntel,60.0024001,Chrome,1280,800,,,,,0,949,,,,,,,,,,,,,,,,,125,B,triangle,1,0,,,,,,,,,,,,,,,,repeat,letter,lettRpt,j,Hi,,,,,,0.3944,4,,,,,,,,high,1,0,1,0,1,,,,,,,,,
293212,2022-09-21_22h10.46.022,vts_reward_expectancy,2022.2.4,MacIntel,60.0024001,Chrome,1280,800,,,,,0,949,,,,,,,,,,,,,,,,,139,D,circle,0,0,,,,,,,,,,,,,,,,repeat,letter,NA,k,Hi,,,,,,0.7807,4,,,,,,,,high,2,0,2,0,1,,,,,,,,,
293212,2022-09-21_22h10.46.022,vts_reward_expectancy,2022.2.4,MacIntel,60.0024001,Chrome,1280,800,,,,,0,949,,,,,,,,,,,,,,,,,132,S,triangle,1,1,,,,,,,,,,,,,,,,repeat,letter,lettRpt,k,Hi,,,,,,1.305,4,,,,,,,,high,3,0,3,0,1,,,,,,,,,
293212,2022-09-21_22h10.46.022,vts_reward_expectancy,2022.2.4,MacIntel,60.0024001,Chrome,1280,800,,,,,0,949,,,,,,,,,,,,,,,,,181,U,triangle,1,0,,,,,,,,,,,,,,,,repeat,letter,lettRpt,k,Hi,,,,,,0.5873,4,,,,,,,,high,4,0,4,0,1,,,,,,,,,
293212,2022-09-21_22h10.46.022,vts_reward_expectancy,2022.2.4,MacIntel,60.0024001,Chrome,1280,800,,,,,1,950,,,,,,,,,,,,,,,,,174,F,circle,1,0,,,,,,,,,,,,,,,,repeat,letter,lettRpt,j,Lo,,,,,,0.5896,4,,,,,,,,high,5,0,5,0,1,,,,,,,,,
293212,2022-09-21_22h10.46.022,vts_reward_expectancy,2022.2.4,MacIntel,60.0024001,Chrome,1280,800,,,,,10,960,,,,,,,,,,,,,,,,,146,H,triangle,1,0,,,,,,,,,,,,,,,,repeat,letter,lettRpt,j,Hi,,,,,,0.3141,4,,,,,,,,high,6,0,6,0,1,,,,,,,,,
293212,2022-09-21_22h10.46.022,vts_reward_expectancy,2022.2.4,MacIntel,60.0024001,Chrome,1280,800,,,,,1,961,,,,,,,,,,,,,,,,,160,W,circle,1,0,,,,,,,,,,,,,,,,switch,number,numSwt,f,Lo,,,,,,0.5725,4,,,,,,,,high,7,0,7,0,1,,,,,,,,,
293212,2022-09-21_22h10.46.022,vts_reward_expectancy,2022.2.4,MacIntel,60.0024001,Chrome,1280,800,,,,,10,971,,,,,,,,,,,,,,,,,167,Y,circle,1,0,,,,,,,,,,,,,,,,repeat,number,numRpt,f,Lo,,,,,,0.5038,4,,,,,,,,high,8,0,8,0,1,,,,,,,,,
293212,2022-09-21_22h10.46.022,vts_reward_expectancy,2022.2.4,MacIntel,60.0024001,Chrome,1280,800,,,,,0,971,,,,,,,,,,,,,,,,,125,B,triangle,1,0,,,,,,,,,,,,,,,,switch,letter,lettSwt,j,Hi,,,,,,0.4168,4,,,,,,,,high,9,0,9,0,1,,,,,,,,,
293212,2022-09-21_22h10.46.022,vts_reward_expectancy,2022.2.4,MacIntel,60.0024001,Chrome,1280,800,,,,,10,981,,,,,,,,,,,,,,,,,139,D,triangle,1,0,,,,,,,,,,,,,,,,repeat,letter,lettRpt,j,Hi,,,,,,0.246,4,,,,,,,,high,10,0,10,0,1,,,,,,,,,
293212,2022-09-21_22h10.46.022,vts_reward_expectancy,2022.2.4,MacIntel,60.0024001,Chrome,1280,800,,,,,1,982,,,,,,,,,,,,,,,,,132,S,circle,1,0,,,,,,,,,,,,,,,,repeat,letter,lettRpt,k,Lo,,,,,,0.1287,4,,,,,,,,high,11,0,11,0,1,,,,,,,,,
293212,2022-09-21_22h10.46.022,vts_reward_expectancy,2022.2.4,MacIntel,60.0024001,Chrome,1280,800,,,,,0,982,,,,,,,,,,,,,,,,,181,U,circle,0,0,,,,,,,,,,,,,,,,repeat,letter,NA,j,Lo,,,,,,0.3035,4,,,,,,,,high,12,0,12,0,1,,,,,,,,,
293212,2022-09-21_22h10.46.022,vts_reward_expectancy,2022.2.4,MacIntel,60.0024001,Chrome,1280,800,,,,,10,992,,,,,,,,,,,,,,,,,174,F,triangle,1,1,,,,,,,,,,,,,,,,repeat,letter,lettRpt,j,Hi,,,,,,0.3167,4,,,,,,,,high,13,0,13,0,1,,,,,,,,,
293212,2022-09-21_22h10.46.022,vts_reward_expectancy,2022.2.4,MacIntel,60.0024001,Chrome,1280,800,,,,,1,993,,,,,,,,,,,,,,,,,146,H,circle,1,0,,,,,,,,,,,,,,,,repeat,letter,lettRpt,j,Lo,,,,,,0.4533,4,,,,,,,,high,14,0,14,0,1,,,,,,,,,
293212,2022-09-21_22h10.46.022,vts_reward_expectancy,2022.2.4,MacIntel,60.0024001,Chrome,1280,800,,,,,0,993,,,,,,,,,,,,,,,,,160,W,triangle,1,0,,,,,,,,,,,,,,,,switch,number,numSwt,f,Hi,,,,,,0.5049,4,,,,,,,,high,15,0,15,0,1,,,,,,,,,
293212,2022-09-21_22h10.46.022,vts_reward_expectancy,2022.2.4,MacIntel,60.0024001,Chrome,1280,800,,,,,10,1003,,,,,,,,,,,,,,,,,125,H,triangle,1,0,,,,,,,,,,,,,,,,switch,letter,lettSwt,j,Hi,,,,,,0.013,4,,,,,,,,high,16,0,16,0,1,,,,,,,,,
293212,2022-09-21_22h10.46.022,vts_reward_expectancy,2022.2.4,MacIntel,60.0024001,Chrome,1280,800,,,,,0,1003,,,,,,,,,,,,,,,,,139,Y,circle,0,0,,,,,,,,,,,,,,,,switch,number,NA,f,Hi,,,,,,0.3985,4,,,,,,,,high,17,0,17,0,1,,,,,,,,,
293212,2022-09-21_22h10.46.022,vts_reward_expectancy,2022.2.4,MacIntel,60.0024001,Chrome,1280,800,,,,,0,1003,,,,,,,,,,,,,,,,,146,U,circle,0,1,,,,,,,,,,,,,,,,repeat,number,NA,f,Hi,,,,,,0.0129,4,,,,,,,,high,18,0,18,0,1,,,,,,,,,
293212,2022-09-21_22h10.46.022,vts_reward_expectancy,2022.2.4,MacIntel,60.0024001,Chrome,1280,800,,,,,0,1003,,,,,,,,,,,,,,,,,132,F,triangle,0,1,,,,,,,,,,,,,,,,repeat,number,NA,f,Hi,,,,,,0.3138,4,,,,,,,,high,19,0,19,0,1,,,,,,,,,
293212,2022-09-21_22h10.46.022,vts_reward_expectancy,2022.2.4,MacIntel,60.0024001,Chrome,1280,800,,,,,0,1003,,,,,,,,,,,,,,,,,174,S,circle,0,1,,,,,,,,,,,,,,,,switch,letter,NA,j,Hi,,,,,,0.2538,4,,,,,,,,high,20,0,20,0,1,,,,,,,,,
293212,2022-09-21_22h10.46.022,vts_reward_expectancy,2022.2.4,MacIntel,60.0024001,Chrome,1280,800,,,,,0,1003,,,,,,,,,,,,,,,,,181,W,triangle,1,1,,,,,,,,,,,,,,,,repeat,letter,lettRpt,k,Hi,,,,,,0.5177,4,,,,,,,,high,21,0,21,0,1,,,,,,,,,
293212,2022-09-21_22h10.46.022,vts_reward_expectancy,2022.2.4,MacIntel,60.0024001,Chrome,1280,800,,,,,1,1004,,,,,,,,,,,,,,,,,160,D,circle,1,0,,,,,,,,,,,,,,,,repeat,letter,lettRpt,j,Lo,,,,,,0.6294,4,,,,,,,,high,22,0,22,0,1,,,,,,,,,
293212,2022-09-21_22h10.46.022,vts_reward_expectancy,2022.2.4,MacIntel,60.0024001,Chrome,1280,800,,,,,0,1004,,,,,,,,,,,,,,,,,167,B,triangle,1,0,,,,,,,,,,,,,,,,repeat,letter,lettRpt,j,Hi,,,,,,0.6315,4,,,,,,,,high,23,0,23,0,1,,,,,,,,,
293212,2022-09-21_22h10.46.022,vts_reward_expectancy,2022.2.4,MacIntel,60.0024001,Chrome,1280,800,,,,,0,1004,,,,,,,,,,,,,,,,,167,D,circle,0,0,,,,,,,,,,,,,,,,repeat,letter,NA,k,Hi,,,,,,0.5908,4,,,,,,,,high,24,0,24,0,1,,,,,,,,,
293212,2022-09-21_22h10.46.022,vts_reward_expectancy,2022.2.4,MacIntel,60.0024001,Chrome,1280,800,,,,,0,1004,,,,,,,,,,,,,,,,,160,B,triangle,1,1,,,,,,,,,,,,,,,,repeat,letter,lettRpt,j,Hi,,,,,,0.7518,4,,,,,,,,high,25,0,25,0,1,,,,,,,,,
293212,2022-09-21_22h10.46.022,vts_reward_expectancy,2022.2.4,MacIntel,60.0024001,Chrome,1280,800,,,,,1,1005,,,,,,,,,,,,,,,,,181,H,circle,1,0,,,,,,,,,,,,,,,,switch,number,numSwt,f,Lo,,,,,,0.5493,4,,,,,,,,high,26,0,26,0,1,,,,,,,,,
293212,2022-09-21_22h10.46.022,vts_reward_expectancy,2022.2.4,MacIntel,60.0024001,Chrome,1280,800,,,,,0,1005,,,,,,,,,,,,,,,,,132,W,triangle,0,0,,,,,,,,,,,,,,,,repeat,number,NA,f,Lo,,,,,,0.5307,4,,,,,,,,high,27,0,27,0,1,,,,,,,,,
293212,2022-09-21_22h10.46.022,vts_reward_expectancy,2022.2.4,MacIntel,60.0024001,Chrome,1280,800,,,,,0,1005,,,,,,,,,,,,,,,,,146,U,circle,0,1,,,,,,,,,,,,,,,,repeat,number,NA,f,Lo,,,,,,0.5257,4,,,,,,,,high,28,0,28,0,1,,,,,,,,,
293212,2022-09-21_22h10.46.022,vts_reward_expectancy,2022.2.4,MacIntel,60.0024001,Chrome,1280,800,,,,,10,1015,,,,,,,,,,,,,,,,,174,S,triangle,1,1,,,,,,,,,,,,,,,,repeat,number,numRpt,f,Hi,,,,,,0.551,4,,,,,,,,high,29,0,29,0,1,,,,,,,,,
293212,2022-09-21_22h10.46.022,vts_reward_expectancy,2022.2.4,MacIntel,60.0024001,Chrome,1280,800,,,,,1,1016,,,,,,,,,,,,,,,,,125,Y,triangle,1,0,,,,,,,,,,,,,,,,repeat,number,numRpt,d,Hi,,,,,,0.3642,4,,,,,,,,high,30,0,30,0,1,,,,,,,,,
293212,2022-09-21_22h10.46.022,vts_reward_expectancy,2022.2.4,MacIntel,60.0024001,Chrome,1280,800,,,,,10,1026,,,,,,,,,,,,,,,,,139,F,circle,1,0,,,,,,,,,,,,,,,,repeat,number,numRpt,d,Lo,,,,,,0.6554,4,,,,,,,,high,31,0,31,0,1,,,,,,,,,
293212,2022-09-21_22h10.46.022,vts_reward_expectancy,2022.2.4,MacIntel,60.0024001,Chrome,1280,800,,,,,10,1036,,,,,,,,,,,,,,,,,174,U,circle,1,0,,,,,,,,,,,,,,,,switch,letter,lettSwt,k,Lo,,,,,,0.5632,5,,,,,,space,2.2054,high,0,0,0,0,1,,,,,,,,,
293212,2022-09-21_22h10.46.022,vts_reward_expectancy,2022.2.4,MacIntel,60.0024001,Chrome,1280,800,,,,,0,1036,,,,,,,,,,,,,,,,,160,H,triangle,1,0,,,,,,,,,,,,,,,,switch,number,numSwt,f,Hi,,,,,,0.5365,5,,,,,,,,high,1,0,1,0,1,,,,,,,,,
293212,2022-09-21_22h10.46.022,vts_reward_expectancy,2022.2.4,MacIntel,60.0024001,Chrome,1280,800,,,,,0,1036,,,,,,,,,,,,,,,,,146,W,circle,0,0,,,,,,,,,,,,,,,,repeat,number,NA,f,Hi,,,,,,0.5287,5,,,,,,,,high,2,0,2,0,1,,,,,,,,,
293212,2022-09-21_22h10.46.022,vts_reward_expectancy,2022.2.4,MacIntel,60.0024001,Chrome,1280,800,,,,,0,1036,,,,,,,,,,,,,,,,,125,S,triangle,1,1,,,,,,,,,,,,,,,,switch,letter,lettSwt,k,Hi,,,,,,0.5145,5,,,,,,,,high,3,0,3,0,1,,,,,,,,,
293212,2022-09-21_22h10.46.022,vts_reward_expectancy,2022.2.4,MacIntel,60.0024001,Chrome,1280,800,,,,,10,1046,,,,,,,,,,,,,,,,,181,D,triangle,1,0,,,,,,,,,,,,,,,,switch,number,numSwt,f,Hi,,,,,,0.2956,5,,,,,,,,high,4,0,4,0,1,,,,,,,,,
293212,2022-09-21_22h10.46.022,vts_reward_expectancy,2022.2.4,MacIntel,60.0024001,Chrome,1280,800,,,,,1,1047,,,,,,,,,,,,,,,,,167,F,circle,1,0,,,,,,,,,,,,,,,,repeat,number,numRpt,f,Lo,,,,,,0.2792,5,,,,,,,,high,5,0,5,0,1,,,,,,,,,
293212,2022-09-21_22h10.46.022,vts_reward_expectancy,2022.2.4,MacIntel,60.0024001,Chrome,1280,800,,,,,0,1047,,,,,,,,,,,,,,,,,139,Y,triangle,0,0,,,,,,,,,,,,,,,,switch,letter,NA,j,Lo,,,,,,0.3057,5,,,,,,,,high,6,0,6,0,1,,,,,,,,,
293212,2022-09-21_22h10.46.022,vts_reward_expectancy,2022.2.4,MacIntel,60.0024001,Chrome,1280,800,,,,,1,1048,,,,,,,,,,,,,,,,,132,B,circle,1,1,,,,,,,,,,,,,,,,repeat,letter,lettRpt,j,Lo,,,,,,0.2798,5,,,,,,,,high,7,0,7,0,1,,,,,,,,,
293212,2022-09-21_22h10.46.022,vts_reward_expectancy,2022.2.4,MacIntel,60.0024001,Chrome,1280,800,,,,,10,1058,,,,,,,,,,,,,,,,,174,U,circle,1,0,,,,,,,,,,,,,,,,switch,number,numSwt,f,Lo,,,,,,0.3555,5,,,,,,,,high,8,0,8,0,1,,,,,,,,,
293212,2022-09-21_22h10.46.022,vts_reward_expectancy,2022.2.4,MacIntel,60.0024001,Chrome,1280,800,,,,,0,1058,,,,,,,,,,,,,,,,,160,H,triangle,0,0,,,,,,,,,,,,,,,,switch,letter,NA,k,Lo,,,,,,0.5115,5,,,,,,,,high,9,0,9,0,1,,,,,,,,,
293212,2022-09-21_22h10.46.022,vts_reward_expectancy,2022.2.4,MacIntel,60.0024001,Chrome,1280,800,,,,,0,1058,,,,,,,,,,,,,,,,,146,W,circle,0,1,,,,,,,,,,,,,,,,repeat,letter,NA,j,Lo,,,,,,0.2305,5,,,,,,,,high,10,0,10,0,1,,,,,,,,,
293212,2022-09-21_22h10.46.022,vts_reward_expectancy,2022.2.4,MacIntel,60.0024001,Chrome,1280,800,,,,,0,1058,,,,,,,,,,,,,,,,,125,S,triangle,0,1,,,,,,,,,,,,,,,,switch,number,NA,f,Lo,,,,,,0.2948,5,,,,,,,,high,11,0,11,0,1,,,,,,,,,
293212,2022-09-21_22h10.46.022,vts_reward_expectancy,2022.2.4,MacIntel,60.0024001,Chrome,1280,800,,,,,1,1059,,,,,,,,,,,,,,,,,181,D,circle,1,1,,,,,,,,,,,,,,,,switch,letter,lettSwt,j,Lo,,,,,,0.2297,5,,,,,,,,high,12,0,12,0,1,,,,,,,,,
293212,2022-09-21_22h10.46.022,vts_reward_expectancy,2022.2.4,MacIntel,60.0024001,Chrome,1280,800,,,,,0,1059,,,,,,,,,,,,,,,,,167,F,triangle,0,0,,,,,,,,,,,,,,,,switch,number,NA,d,Lo,,,,,,0.0003,5,,,,,,,,high,13,0,13,0,1,,,,,,,,,
293212,2022-09-21_22h10.46.022,vts_reward_expectancy,2022.2.4,MacIntel,60.0024001,Chrome,1280,800,,,,,0,1059,,,,,,,,,,,,,,,,,139,Y,circle,0,1,,,,,,,,,,,,,,,,repeat,number,NA,f,Lo,,,,,,0.4817,5,,,,,,,,high,14,0,14,0,1,,,,,,,,,
293212,2022-09-21_22h10.46.022,vts_reward_expectancy,2022.2.4,MacIntel,60.0024001,Chrome,1280,800,,,,,0,1059,,,,,,,,,,,,,,,,,132,B,triangle,1,1,,,,,,,,,,,,,,,,switch,letter,lettSwt,j,Hi,,,,,,0.4004,5,,,,,,,,high,15,0,15,0,1,,,,,,,,,
293212,2022-09-21_22h10.46.022,vts_reward_expectancy,2022.2.4,MacIntel,60.0024001,Chrome,1280,800,,,,,0,1059,,,,,,,,,,,,,,,,,146,S,circle,0,0,,,,,,,,,,,,,,,,repeat,letter,NA,j,Hi,,,,,,0.2487,5,,,,,,,,high,16,0,16,0,1,,,,,,,,,
293212,2022-09-21_22h10.46.022,vts_reward_expectancy,2022.2.4,MacIntel,60.0024001,Chrome,1280,800,,,,,10,1069,,,,,,,,,,,,,,,,,167,D,triangle,1,1,,,,,,,,,,,,,,,,repeat,letter,lettRpt,j,Hi,,,,,,0.3466,5,,,,,,,,high,17,0,17,0,1,,,,,,,,,
293212,2022-09-21_22h10.46.022,vts_reward_expectancy,2022.2.4,MacIntel,60.0024001,Chrome,1280,800,,,,,1,1070,,,,,,,,,,,,,,,,,139,F,circle,1,0,,,,,,,,,,,,,,,,repeat,letter,lettRpt,j,Lo,,,,,,0.482,5,,,,,,,,high,18,0,18,0,1,,,,,,,,,
293212,2022-09-21_22h10.46.022,vts_reward_expectancy,2022.2.4,MacIntel,60.0024001,Chrome,1280,800,,,,,0,1070,,,,,,,,,,,,,,,,,132,Y,triangle,1,0,,,,,,,,,,,,,,,,repeat,letter,lettRpt,k,Hi,,,,,,0.4796,5,,,,,,,,high,19,0,19,0,1,,,,,,,,,
293212,2022-09-21_22h10.46.022,vts_reward_expectancy,2022.2.4,MacIntel,60.0024001,Chrome,1280,800,,,,,0,1070,,,,,,,,,,,,,,,,,174,B,triangle,1,0,,,,,,,,,,,,,,,,repeat,letter,lettRpt,j,Hi,,,,,,0.5644,5,,,,,,,,high,20,0,20,0,1,,,,,,,,,
293212,2022-09-21_22h10.46.022,vts_reward_expectancy,2022.2.4,MacIntel,60.0024001,Chrome,1280,800,,,,,1,1071,,,,,,,,,,,,,,,,,125,W,circle,1,0,,,,,,,,,,,,,,,,repeat,letter,lettRpt,k,Lo,,,,,,0.4491,5,,,,,,,,high,21,0,21,0,1,,,,,,,,,
293212,2022-09-21_22h10.46.022,vts_reward_expectancy,2022.2.4,MacIntel,60.0024001,Chrome,1280,800,,,,,1,1072,,,,,,,,,,,,,,,,,160,H,circle,1,0,,,,,,,,,,,,,,,,repeat,letter,lettRpt,j,Lo,,,,,,0.399,5,,,,,,,,high,22,0,22,0,1,,,,,,,,,
293212,2022-09-21_22h10.46.022,vts_reward_expectancy,2022.2.4,MacIntel,60.0024001,Chrome,1280,800,,,,,0,1072,,,,,,,,,,,,,,,,,181,U,triangle,1,0,,,,,,,,,,,,,,,,repeat,letter,lettRpt,k,Hi,,,,,,0.5485,5,,,,,,,,high,23,0,23,0,1,,,,,,,,,
293212,2022-09-21_22h10.46.022,vts_reward_expectancy,2022.2.4,MacIntel,60.0024001,Chrome,1280,800,,,,,10,1082,,,,,,,,,,,,,,,,,174,W,circle,1,0,,,,,,,,,,,,,,,,switch,number,numSwt,f,Lo,,,,,,0.5454,5,,,,,,,,high,24,0,24,0,1,,,,,,,,,
293212,2022-09-21_22h10.46.022,vts_reward_expectancy,2022.2.4,MacIntel,60.0024001,Chrome,1280,800,,,,,10,1092,,,,,,,,,,,,,,,,,167,H,triangle,1,0,,,,,,,,,,,,,,,,repeat,number,numRpt,f,Hi,,,,,,0.4772,5,,,,,,,,high,25,0,25,0,1,,,,,,,,,
293212,2022-09-21_22h10.46.022,vts_reward_expectancy,2022.2.4,MacIntel,60.0024001,Chrome,1280,800,,,,,10,1102,,,,,,,,,,,,,,,,,181,F,circle,1,0,,,,,,,,,,,,,,,,repeat,number,numRpt,f,Lo,,,,,,0.4626,5,,,,,,,,high,26,0,26,0,1,,,,,,,,,
293212,2022-09-21_22h10.46.022,vts_reward_expectancy,2022.2.4,MacIntel,60.0024001,Chrome,1280,800,,,,,10,1112,,,,,,,,,,,,,,,,,139,Y,triangle,1,0,,,,,,,,,,,,,,,,repeat,number,numRpt,d,Hi,,,,,,0.4974,5,,,,,,,,high,27,0,27,0,1,,,,,,,,,
293212,2022-09-21_22h10.46.022,vts_reward_expectancy,2022.2.4,MacIntel,60.0024001,Chrome,1280,800,,,,,10,1122,,,,,,,,,,,,,,,,,160,D,triangle,1,0,,,,,,,,,,,,,,,,repeat,number,numRpt,f,Hi,,,,,,0.4545,5,,,,,,,,high,28,0,28,0,1,,,,,,,,,
293212,2022-09-21_22h10.46.022,vts_reward_expectancy,2022.2.4,MacIntel,60.0024001,Chrome,1280,800,,,,,10,1132,,,,,,,,,,,,,,,,,146,U,circle,1,0,,,,,,,,,,,,,,,,repeat,number,numRpt,d,Lo,,,,,,0.6455,5,,,,,,,,high,29,0,29,0,1,,,,,,,,,
293212,2022-09-21_22h10.46.022,vts_reward_expectancy,2022.2.4,MacIntel,60.0024001,Chrome,1280,800,,,,,1,1133,,,,,,,,,,,,,,,,,125,B,circle,1,0,,,,,,,,,,,,,,,,repeat,number,numRpt,d,Lo,,,,,,0.4981,5,,,,,,,,high,30,0,30,0,1,,,,,,,,,
293212,2022-09-21_22h10.46.022,vts_reward_expectancy,2022.2.4,MacIntel,60.0024001,Chrome,1280,800,,,,,0,1133,,,,,,,,,,,,,,,,,132,S,triangle,1,0,,,,,,,,,,,,,,,,switch,letter,lettSwt,k,Hi,,,,,,0.5467,5,,,,,,,,high,31,0,31,0,1,,,,,,,,,
293212,2022-09-21_22h10.46.022,vts_reward_expectancy,2022.2.4,MacIntel,60.0024001,Chrome,1280,800,,,,,,,,,,,,,,,,,,,,,,,,,,,,,,,,,,,,,,,,,,,,,,,,,,,,,,6,,,,,,,,,,,,,,Select higher and lower variations of letters and number,1,,5,3,,2,1280,800
