participant,date,expName,psychopyVersion,OS,frameRate,browser,xResolution,yResolution,key_resp.keys,key_resp.rt,training_resp.keys,training_resp.rt,points_trial,points_cumul,trainBlock,training.thisRepN,training.thisTrialN,training.thisN,training.thisIndex,training.ran,LTriangleOpac,LCircleOpac,LHexagonOpac,LStarOpac,RTriangleOpac,RCircleOpac,RHexagonOpac,RStarOpac,LShape_ID,RShape_ID,curr_topStim,curr_bottStim,curr_shape,acc,E1,target_resp_prac1.keys,target_resp_prac1.rt,pracBlock,task1_prac_trials.thisRepN,task1_prac_trials.thisTrialN,task1_prac_trials.thisN,task1_prac_trials.thisIndex,task1_prac_trials.ran,target_resp_prac2.keys,target_resp_prac2.rt,task2_praac_trials.thisRepN,task2_praac_trials.thisTrialN,task2_praac_trials.thisN,task2_praac_trials.thisIndex,task2_praac_trials.ran,alt,task,condition,target_resp.keys,target_resp.rt,rewCond,vts_practice_trials.thisRepN,vts_practice_trials.thisTrialN,vts_practice_trials.thisN,vts_practice_trials.thisIndex,vts_practice_trials.ran,blockNum,trials_norew.thisRepN,trials_norew.thisTrialN,trials_norew.thisN,trials_norew.thisIndex,trials_norew.ran,key_resp_2.keys,key_resp_2.rt,rewExpect,trials_rew.thisRepN,trials_rew.thisTrialN,trials_rew.thisN,trials_rew.thisIndex,trials_rew.ran,Q1,Q2,Q2_text,Q3,Q4,Q5,Q5_text,xRes,yRes
295225,2022-10-06_17h59.27.936,vts_reward_expectancy,2022.2.4,MacIntel,60.0024001,Chrome,1440,900,,,,,,,,,,,,,,,,,,,,,,,,,,,,,,,,,,,,,,,,,,,,,,,,,,,,,,,,,,,,,,,,,,,,,,,,,,,,
295225,2022-10-06_17h59.27.936,vts_reward_expectancy,2022.2.4,MacIntel,60.0024001,Chrome,1440,900,space,50.0593,,,,,,,,,,,,,,,,,,,,,,,,,,,,,,,,,,,,,,,,,,,,,,,,,,,,,,,,,,,,,,,,,,,,,,,,,,
295225,2022-10-06_17h59.27.936,vts_reward_expectancy,2022.2.4,MacIntel,60.0024001,Chrome,1440,900,,,,,,,,,,,,,,,,,,,,,,,,,,,,,,,,,,,,,,,,,,,,,,,,,,,,,,,,,,,,,,,,,,,,,,,,,,,,
295225,2022-10-06_17h59.27.936,vts_reward_expectancy,2022.2.4,MacIntel,60.0024001,Chrome,1440,900,,,l,5.0934,10,10,0,0,0,0,9,1,0,0,0,1,1,0,0,0,star,triangle,,,,,,,,,,,,,,,,,,,,,,,,,,,,,,,,,,,,,,,,,,,,,,,,,,,,,,
295225,2022-10-06_17h59.27.936,vts_reward_expectancy,2022.2.4,MacIntel,60.0024001,Chrome,1440,900,,,a,4.2307,10,20,0,0,1,1,3,1,0,1,0,0,1,0,0,0,circle,triangle,,,,,,,,,,,,,,,,,,,,,,,,,,,,,,,,,,,,,,,,,,,,,,,,,,,,,,
295225,2022-10-06_17h59.27.936,vts_reward_expectancy,2022.2.4,MacIntel,60.0024001,Chrome,1440,900,,,a,3.3426,10,30,0,0,2,2,2,1,1,0,0,0,0,0,0,1,triangle,star,,,,,,,,,,,,,,,,,,,,,,,,,,,,,,,,,,,,,,,,,,,,,,,,,,,,,,
295225,2022-10-06_17h59.27.936,vts_reward_expectancy,2022.2.4,MacIntel,60.0024001,Chrome,1440,900,,,a,1.3661,1,31,0,0,3,3,1,1,1,0,0,0,0,0,1,0,triangle,hexagon,,,,,,,,,,,,,,,,,,,,,,,,,,,,,,,,,,,,,,,,,,,,,,,,,,,,,,
295225,2022-10-06_17h59.27.936,vts_reward_expectancy,2022.2.4,MacIntel,60.0024001,Chrome,1440,900,,,a,2.4845,1,32,0,0,4,4,4,1,0,1,0,0,0,0,1,0,circle,hexagon,,,,,,,,,,,,,,,,,,,,,,,,,,,,,,,,,,,,,,,,,,,,,,,,,,,,,,
295225,2022-10-06_17h59.27.936,vts_reward_expectancy,2022.2.4,MacIntel,60.0024001,Chrome,1440,900,,,l,2.5145,10,42,0,0,5,5,10,1,0,0,0,1,0,1,0,0,star ,circle,,,,,,,,,,,,,,,,,,,,,,,,,,,,,,,,,,,,,,,,,,,,,,,,,,,,,,
295225,2022-10-06_17h59.27.936,vts_reward_expectancy,2022.2.4,MacIntel,60.0024001,Chrome,1440,900,,,a,3.7825,1,43,0,0,6,6,6,1,0,0,1,0,1,0,0,0,hexagon,triangle,,,,,,,,,,,,,,,,,,,,,,,,,,,,,,,,,,,,,,,,,,,,,,,,,,,,,,
295225,2022-10-06_17h59.27.936,vts_reward_expectancy,2022.2.4,MacIntel,60.0024001,Chrome,1440,900,,,l,2.5421,10,53,0,0,7,7,0,1,1,0,0,0,0,1,0,0,triangle,circle,,,,,,,,,,,,,,,,,,,,,,,,,,,,,,,,,,,,,,,,,,,,,,,,,,,,,,
295225,2022-10-06_17h59.27.936,vts_reward_expectancy,2022.2.4,MacIntel,60.0024001,Chrome,1440,900,,,l,1.6146,1,54,0,0,8,8,7,1,0,0,1,0,0,1,0,0,hexagon,circle,,,,,,,,,,,,,,,,,,,,,,,,,,,,,,,,,,,,,,,,,,,,,,,,,,,,,,
295225,2022-10-06_17h59.27.936,vts_reward_expectancy,2022.2.4,MacIntel,60.0024001,Chrome,1440,900,,,l,2.7171,1,55,0,0,9,9,11,1,0,0,0,1,0,0,1,0,star,hexagon,,,,,,,,,,,,,,,,,,,,,,,,,,,,,,,,,,,,,,,,,,,,,,,,,,,,,,
295225,2022-10-06_17h59.27.936,vts_reward_expectancy,2022.2.4,MacIntel,60.0024001,Chrome,1440,900,,,a,3.4568,1,56,0,0,10,10,8,1,0,0,1,0,0,0,0,1,hexagon,star,,,,,,,,,,,,,,,,,,,,,,,,,,,,,,,,,,,,,,,,,,,,,,,,,,,,,,
295225,2022-10-06_17h59.27.936,vts_reward_expectancy,2022.2.4,MacIntel,60.0024001,Chrome,1440,900,,,a,2.2827,1,57,0,0,11,11,5,1,0,1,0,0,0,0,0,1,circle,star,,,,,,,,,,,,,,,,,,,,,,,,,,,,,,,,,,,,,,,,,,,,,,,,,,,,,,
295225,2022-10-06_17h59.27.936,vts_reward_expectancy,2022.2.4,MacIntel,60.0024001,Chrome,1440,900,,,l,1.6496,10,67,0,1,0,12,9,1,0,0,0,1,1,0,0,0,star,triangle,,,,,,,,,,,,,,,,,,,,,,,,,,,,,,,,,,,,,,,,,,,,,,,,,,,,,,
295225,2022-10-06_17h59.27.936,vts_reward_expectancy,2022.2.4,MacIntel,60.0024001,Chrome,1440,900,,,a,1.4159,10,77,0,1,1,13,10,1,0,0,0,1,0,1,0,0,star ,circle,,,,,,,,,,,,,,,,,,,,,,,,,,,,,,,,,,,,,,,,,,,,,,,,,,,,,,
295225,2022-10-06_17h59.27.936,vts_reward_expectancy,2022.2.4,MacIntel,60.0024001,Chrome,1440,900,,,a,3.253,1,78,0,1,2,14,11,1,0,0,0,1,0,0,1,0,star,hexagon,,,,,,,,,,,,,,,,,,,,,,,,,,,,,,,,,,,,,,,,,,,,,,,,,,,,,,
295225,2022-10-06_17h59.27.936,vts_reward_expectancy,2022.2.4,MacIntel,60.0024001,Chrome,1440,900,,,l,2.3682,1,79,0,1,3,15,5,1,0,1,0,0,0,0,0,1,circle,star,,,,,,,,,,,,,,,,,,,,,,,,,,,,,,,,,,,,,,,,,,,,,,,,,,,,,,
295225,2022-10-06_17h59.27.936,vts_reward_expectancy,2022.2.4,MacIntel,60.0024001,Chrome,1440,900,,,a,7.0957,1,80,0,1,4,16,4,1,0,1,0,0,0,0,1,0,circle,hexagon,,,,,,,,,,,,,,,,,,,,,,,,,,,,,,,,,,,,,,,,,,,,,,,,,,,,,,
295225,2022-10-06_17h59.27.936,vts_reward_expectancy,2022.2.4,MacIntel,60.0024001,Chrome,1440,900,,,l,2.5785,10,90,0,1,5,17,0,1,1,0,0,0,0,1,0,0,triangle,circle,,,,,,,,,,,,,,,,,,,,,,,,,,,,,,,,,,,,,,,,,,,,,,,,,,,,,,
295225,2022-10-06_17h59.27.936,vts_reward_expectancy,2022.2.4,MacIntel,60.0024001,Chrome,1440,900,,,a,3.444,10,100,0,1,6,18,1,1,1,0,0,0,0,0,1,0,triangle,hexagon,,,,,,,,,,,,,,,,,,,,,,,,,,,,,,,,,,,,,,,,,,,,,,,,,,,,,,
295225,2022-10-06_17h59.27.936,vts_reward_expectancy,2022.2.4,MacIntel,60.0024001,Chrome,1440,900,,,a,4.5464,1,101,0,1,7,19,7,1,0,0,1,0,0,1,0,0,hexagon,circle,,,,,,,,,,,,,,,,,,,,,,,,,,,,,,,,,,,,,,,,,,,,,,,,,,,,,,
295225,2022-10-06_17h59.27.936,vts_reward_expectancy,2022.2.4,MacIntel,60.0024001,Chrome,1440,900,,,l,1.6669,10,111,0,1,8,20,8,1,0,0,1,0,0,0,0,1,hexagon,star,,,,,,,,,,,,,,,,,,,,,,,,,,,,,,,,,,,,,,,,,,,,,,,,,,,,,,
295225,2022-10-06_17h59.27.936,vts_reward_expectancy,2022.2.4,MacIntel,60.0024001,Chrome,1440,900,,,l,2.0699,1,112,0,1,9,21,2,1,1,0,0,0,0,0,0,1,triangle,star,,,,,,,,,,,,,,,,,,,,,,,,,,,,,,,,,,,,,,,,,,,,,,,,,,,,,,
295225,2022-10-06_17h59.27.936,vts_reward_expectancy,2022.2.4,MacIntel,60.0024001,Chrome,1440,900,,,a,1.3331,10,122,0,1,10,22,3,1,0,1,0,0,1,0,0,0,circle,triangle,,,,,,,,,,,,,,,,,,,,,,,,,,,,,,,,,,,,,,,,,,,,,,,,,,,,,,
295225,2022-10-06_17h59.27.936,vts_reward_expectancy,2022.2.4,MacIntel,60.0024001,Chrome,1440,900,,,a,2.3348,1,123,0,1,11,23,6,1,0,0,1,0,1,0,0,0,hexagon,triangle,,,,,,,,,,,,,,,,,,,,,,,,,,,,,,,,,,,,,,,,,,,,,,,,,,,,,,
295225,2022-10-06_17h59.27.936,vts_reward_expectancy,2022.2.4,MacIntel,60.0024001,Chrome,1440,900,,,l,5.0416,10,133,0,2,0,24,6,1,0,0,1,0,1,0,0,0,hexagon,triangle,,,,,,,,,,,,,,,,,,,,,,,,,,,,,,,,,,,,,,,,,,,,,,,,,,,,,,
295225,2022-10-06_17h59.27.936,vts_reward_expectancy,2022.2.4,MacIntel,60.0024001,Chrome,1440,900,,,a,0.7663,10,143,0,2,1,25,0,1,1,0,0,0,0,1,0,0,triangle,circle,,,,,,,,,,,,,,,,,,,,,,,,,,,,,,,,,,,,,,,,,,,,,,,,,,,,,,
295225,2022-10-06_17h59.27.936,vts_reward_expectancy,2022.2.4,MacIntel,60.0024001,Chrome,1440,900,,,a,2.0478,10,153,0,2,2,26,1,1,1,0,0,0,0,0,1,0,triangle,hexagon,,,,,,,,,,,,,,,,,,,,,,,,,,,,,,,,,,,,,,,,,,,,,,,,,,,,,,
295225,2022-10-06_17h59.27.936,vts_reward_expectancy,2022.2.4,MacIntel,60.0024001,Chrome,1440,900,,,a,4.9175,10,163,0,2,3,27,3,1,0,1,0,0,1,0,0,0,circle,triangle,,,,,,,,,,,,,,,,,,,,,,,,,,,,,,,,,,,,,,,,,,,,,,,,,,,,,,
295225,2022-10-06_17h59.27.936,vts_reward_expectancy,2022.2.4,MacIntel,60.0024001,Chrome,1440,900,,,l,1.736,1,164,0,2,4,28,5,1,0,1,0,0,0,0,0,1,circle,star,,,,,,,,,,,,,,,,,,,,,,,,,,,,,,,,,,,,,,,,,,,,,,,,,,,,,,
295225,2022-10-06_17h59.27.936,vts_reward_expectancy,2022.2.4,MacIntel,60.0024001,Chrome,1440,900,,,a,1.5054,1,165,0,2,5,29,7,1,0,0,1,0,0,1,0,0,hexagon,circle,,,,,,,,,,,,,,,,,,,,,,,,,,,,,,,,,,,,,,,,,,,,,,,,,,,,,,
295225,2022-10-06_17h59.27.936,vts_reward_expectancy,2022.2.4,MacIntel,60.0024001,Chrome,1440,900,,,a,1.799,1,166,0,2,6,30,4,1,0,1,0,0,0,0,1,0,circle,hexagon,,,,,,,,,,,,,,,,,,,,,,,,,,,,,,,,,,,,,,,,,,,,,,,,,,,,,,
295225,2022-10-06_17h59.27.936,vts_reward_expectancy,2022.2.4,MacIntel,60.0024001,Chrome,1440,900,,,l,8.0513,10,176,0,2,7,31,8,1,0,0,1,0,0,0,0,1,hexagon,star,,,,,,,,,,,,,,,,,,,,,,,,,,,,,,,,,,,,,,,,,,,,,,,,,,,,,,
295225,2022-10-06_17h59.27.936,vts_reward_expectancy,2022.2.4,MacIntel,60.0024001,Chrome,1440,900,,,a,3.166,10,186,0,2,8,32,11,1,0,0,0,1,0,0,1,0,star,hexagon,,,,,,,,,,,,,,,,,,,,,,,,,,,,,,,,,,,,,,,,,,,,,,,,,,,,,,
295225,2022-10-06_17h59.27.936,vts_reward_expectancy,2022.2.4,MacIntel,60.0024001,Chrome,1440,900,,,l,1.2184,1,187,0,2,9,33,9,1,0,0,0,1,1,0,0,0,star,triangle,,,,,,,,,,,,,,,,,,,,,,,,,,,,,,,,,,,,,,,,,,,,,,,,,,,,,,
295225,2022-10-06_17h59.27.936,vts_reward_expectancy,2022.2.4,MacIntel,60.0024001,Chrome,1440,900,,,a,1.5118,10,197,0,2,10,34,2,1,1,0,0,0,0,0,0,1,triangle,star,,,,,,,,,,,,,,,,,,,,,,,,,,,,,,,,,,,,,,,,,,,,,,,,,,,,,,
295225,2022-10-06_17h59.27.936,vts_reward_expectancy,2022.2.4,MacIntel,60.0024001,Chrome,1440,900,,,a,2.081,10,207,0,2,11,35,10,1,0,0,0,1,0,1,0,0,star ,circle,,,,,,,,,,,,,,,,,,,,,,,,,,,,,,,,,,,,,,,,,,,,,,,,,,,,,,
295225,2022-10-06_17h59.27.936,vts_reward_expectancy,2022.2.4,MacIntel,60.0024001,Chrome,1440,900,,,l,0.9612,10,217,1,0,0,0,9,1,0,0,0,1,1,0,0,0,star,triangle,,,,,,,,,,,,,,,,,,,,,,,,,,,,,,,,,,,,,,,,,,,,,,,,,,,,,,
295225,2022-10-06_17h59.27.936,vts_reward_expectancy,2022.2.4,MacIntel,60.0024001,Chrome,1440,900,,,l,1.8484,10,227,1,0,1,1,11,1,0,0,0,1,0,0,1,0,star,hexagon,,,,,,,,,,,,,,,,,,,,,,,,,,,,,,,,,,,,,,,,,,,,,,,,,,,,,,
295225,2022-10-06_17h59.27.936,vts_reward_expectancy,2022.2.4,MacIntel,60.0024001,Chrome,1440,900,,,a,6.3856,1,228,1,0,2,2,6,1,0,0,1,0,1,0,0,0,hexagon,triangle,,,,,,,,,,,,,,,,,,,,,,,,,,,,,,,,,,,,,,,,,,,,,,,,,,,,,,
295225,2022-10-06_17h59.27.936,vts_reward_expectancy,2022.2.4,MacIntel,60.0024001,Chrome,1440,900,,,l,8.7479,1,229,1,0,3,3,5,1,0,1,0,0,0,0,0,1,circle,star,,,,,,,,,,,,,,,,,,,,,,,,,,,,,,,,,,,,,,,,,,,,,,,,,,,,,,
295225,2022-10-06_17h59.27.936,vts_reward_expectancy,2022.2.4,MacIntel,60.0024001,Chrome,1440,900,,,a,1.2491,1,230,1,0,4,4,10,1,0,0,0,1,0,1,0,0,star ,circle,,,,,,,,,,,,,,,,,,,,,,,,,,,,,,,,,,,,,,,,,,,,,,,,,,,,,,
295225,2022-10-06_17h59.27.936,vts_reward_expectancy,2022.2.4,MacIntel,60.0024001,Chrome,1440,900,,,l,0.9478,10,240,1,0,5,5,7,1,0,0,1,0,0,1,0,0,hexagon,circle,,,,,,,,,,,,,,,,,,,,,,,,,,,,,,,,,,,,,,,,,,,,,,,,,,,,,,
295225,2022-10-06_17h59.27.936,vts_reward_expectancy,2022.2.4,MacIntel,60.0024001,Chrome,1440,900,,,a,2.8434,10,250,1,0,6,6,0,1,1,0,0,0,0,1,0,0,triangle,circle,,,,,,,,,,,,,,,,,,,,,,,,,,,,,,,,,,,,,,,,,,,,,,,,,,,,,,
295225,2022-10-06_17h59.27.936,vts_reward_expectancy,2022.2.4,MacIntel,60.0024001,Chrome,1440,900,,,a,1.0108,10,260,1,0,7,7,3,1,0,1,0,0,1,0,0,0,circle,triangle,,,,,,,,,,,,,,,,,,,,,,,,,,,,,,,,,,,,,,,,,,,,,,,,,,,,,,
295225,2022-10-06_17h59.27.936,vts_reward_expectancy,2022.2.4,MacIntel,60.0024001,Chrome,1440,900,,,a,3.0722,10,270,1,0,8,8,1,1,1,0,0,0,0,0,1,0,triangle,hexagon,,,,,,,,,,,,,,,,,,,,,,,,,,,,,,,,,,,,,,,,,,,,,,,,,,,,,,
295225,2022-10-06_17h59.27.936,vts_reward_expectancy,2022.2.4,MacIntel,60.0024001,Chrome,1440,900,,,a,4.386,1,271,1,0,9,9,8,1,0,0,1,0,0,0,0,1,hexagon,star,,,,,,,,,,,,,,,,,,,,,,,,,,,,,,,,,,,,,,,,,,,,,,,,,,,,,,
295225,2022-10-06_17h59.27.936,vts_reward_expectancy,2022.2.4,MacIntel,60.0024001,Chrome,1440,900,,,l,0.6505,1,272,1,0,10,10,2,1,1,0,0,0,0,0,0,1,triangle,star,,,,,,,,,,,,,,,,,,,,,,,,,,,,,,,,,,,,,,,,,,,,,,,,,,,,,,
295225,2022-10-06_17h59.27.936,vts_reward_expectancy,2022.2.4,MacIntel,60.0024001,Chrome,1440,900,,,a,1.1175,10,282,1,0,11,11,4,1,0,1,0,0,0,0,1,0,circle,hexagon,,,,,,,,,,,,,,,,,,,,,,,,,,,,,,,,,,,,,,,,,,,,,,,,,,,,,,
295225,2022-10-06_17h59.27.936,vts_reward_expectancy,2022.2.4,MacIntel,60.0024001,Chrome,1440,900,,,a,0.7153,10,292,1,1,0,12,10,1,0,0,0,1,0,1,0,0,star ,circle,,,,,,,,,,,,,,,,,,,,,,,,,,,,,,,,,,,,,,,,,,,,,,,,,,,,,,
295225,2022-10-06_17h59.27.936,vts_reward_expectancy,2022.2.4,MacIntel,60.0024001,Chrome,1440,900,,,l,1.0174,1,293,1,1,1,13,0,1,1,0,0,0,0,1,0,0,triangle,circle,,,,,,,,,,,,,,,,,,,,,,,,,,,,,,,,,,,,,,,,,,,,,,,,,,,,,,
295225,2022-10-06_17h59.27.936,vts_reward_expectancy,2022.2.4,MacIntel,60.0024001,Chrome,1440,900,,,l,0.9661,1,294,1,1,2,14,5,1,0,1,0,0,0,0,0,1,circle,star,,,,,,,,,,,,,,,,,,,,,,,,,,,,,,,,,,,,,,,,,,,,,,,,,,,,,,
295225,2022-10-06_17h59.27.936,vts_reward_expectancy,2022.2.4,MacIntel,60.0024001,Chrome,1440,900,,,a,1.134,10,304,1,1,3,15,3,1,0,1,0,0,1,0,0,0,circle,triangle,,,,,,,,,,,,,,,,,,,,,,,,,,,,,,,,,,,,,,,,,,,,,,,,,,,,,,
295225,2022-10-06_17h59.27.936,vts_reward_expectancy,2022.2.4,MacIntel,60.0024001,Chrome,1440,900,,,a,0.6833,10,314,1,1,4,16,7,1,0,0,1,0,0,1,0,0,hexagon,circle,,,,,,,,,,,,,,,,,,,,,,,,,,,,,,,,,,,,,,,,,,,,,,,,,,,,,,
295225,2022-10-06_17h59.27.936,vts_reward_expectancy,2022.2.4,MacIntel,60.0024001,Chrome,1440,900,,,l,0.8486,1,315,1,1,5,17,4,1,0,1,0,0,0,0,1,0,circle,hexagon,,,,,,,,,,,,,,,,,,,,,,,,,,,,,,,,,,,,,,,,,,,,,,,,,,,,,,
295225,2022-10-06_17h59.27.936,vts_reward_expectancy,2022.2.4,MacIntel,60.0024001,Chrome,1440,900,,,a,1.1003,10,325,1,1,6,18,2,1,1,0,0,0,0,0,0,1,triangle,star,,,,,,,,,,,,,,,,,,,,,,,,,,,,,,,,,,,,,,,,,,,,,,,,,,,,,,
295225,2022-10-06_17h59.27.936,vts_reward_expectancy,2022.2.4,MacIntel,60.0024001,Chrome,1440,900,,,l,0.5515,1,326,1,1,7,19,6,1,0,0,1,0,1,0,0,0,hexagon,triangle,,,,,,,,,,,,,,,,,,,,,,,,,,,,,,,,,,,,,,,,,,,,,,,,,,,,,,
295225,2022-10-06_17h59.27.936,vts_reward_expectancy,2022.2.4,MacIntel,60.0024001,Chrome,1440,900,,,l,1.034,1,327,1,1,8,20,8,1,0,0,1,0,0,0,0,1,hexagon,star,,,,,,,,,,,,,,,,,,,,,,,,,,,,,,,,,,,,,,,,,,,,,,,,,,,,,,
295225,2022-10-06_17h59.27.936,vts_reward_expectancy,2022.2.4,MacIntel,60.0024001,Chrome,1440,900,,,a,0.146,10,337,1,1,9,21,9,1,0,0,0,1,1,0,0,0,star,triangle,,,,,,,,,,,,,,,,,,,,,,,,,,,,,,,,,,,,,,,,,,,,,,,,,,,,,,
295225,2022-10-06_17h59.27.936,vts_reward_expectancy,2022.2.4,MacIntel,60.0024001,Chrome,1440,900,,,a,0.8733,1,338,1,1,10,22,11,1,0,0,0,1,0,0,1,0,star,hexagon,,,,,,,,,,,,,,,,,,,,,,,,,,,,,,,,,,,,,,,,,,,,,,,,,,,,,,
295225,2022-10-06_17h59.27.936,vts_reward_expectancy,2022.2.4,MacIntel,60.0024001,Chrome,1440,900,,,a,1.2677,10,348,1,1,11,23,1,1,1,0,0,0,0,0,1,0,triangle,hexagon,,,,,,,,,,,,,,,,,,,,,,,,,,,,,,,,,,,,,,,,,,,,,,,,,,,,,,
295225,2022-10-06_17h59.27.936,vts_reward_expectancy,2022.2.4,MacIntel,60.0024001,Chrome,1440,900,,,a,1.4642,10,358,1,2,0,24,4,1,0,1,0,0,0,0,1,0,circle,hexagon,,,,,,,,,,,,,,,,,,,,,,,,,,,,,,,,,,,,,,,,,,,,,,,,,,,,,,
295225,2022-10-06_17h59.27.936,vts_reward_expectancy,2022.2.4,MacIntel,60.0024001,Chrome,1440,900,,,a,4.0625,1,359,1,2,1,25,2,1,1,0,0,0,0,0,0,1,triangle,star,,,,,,,,,,,,,,,,,,,,,,,,,,,,,,,,,,,,,,,,,,,,,,,,,,,,,,
295225,2022-10-06_17h59.27.936,vts_reward_expectancy,2022.2.4,MacIntel,60.0024001,Chrome,1440,900,,,l,0.7339,1,360,1,2,2,26,7,1,0,0,1,0,0,1,0,0,hexagon,circle,,,,,,,,,,,,,,,,,,,,,,,,,,,,,,,,,,,,,,,,,,,,,,,,,,,,,,
295225,2022-10-06_17h59.27.936,vts_reward_expectancy,2022.2.4,MacIntel,60.0024001,Chrome,1440,900,,,l,0.0212,10,370,1,2,3,27,9,1,0,0,0,1,1,0,0,0,star,triangle,,,,,,,,,,,,,,,,,,,,,,,,,,,,,,,,,,,,,,,,,,,,,,,,,,,,,,
295225,2022-10-06_17h59.27.936,vts_reward_expectancy,2022.2.4,MacIntel,60.0024001,Chrome,1440,900,,,a,0.3184,1,371,1,2,4,28,8,1,0,0,1,0,0,0,0,1,hexagon,star,,,,,,,,,,,,,,,,,,,,,,,,,,,,,,,,,,,,,,,,,,,,,,,,,,,,,,
295225,2022-10-06_17h59.27.936,vts_reward_expectancy,2022.2.4,MacIntel,60.0024001,Chrome,1440,900,,,a,0.2645,10,381,1,2,5,29,1,1,1,0,0,0,0,0,1,0,triangle,hexagon,,,,,,,,,,,,,,,,,,,,,,,,,,,,,,,,,,,,,,,,,,,,,,,,,,,,,,
295225,2022-10-06_17h59.27.936,vts_reward_expectancy,2022.2.4,MacIntel,60.0024001,Chrome,1440,900,,,a,0.435,10,391,1,2,6,30,5,1,0,1,0,0,0,0,0,1,circle,star,,,,,,,,,,,,,,,,,,,,,,,,,,,,,,,,,,,,,,,,,,,,,,,,,,,,,,
295225,2022-10-06_17h59.27.936,vts_reward_expectancy,2022.2.4,MacIntel,60.0024001,Chrome,1440,900,,,l,0.7302,10,401,1,2,7,31,0,1,1,0,0,0,0,1,0,0,triangle,circle,,,,,,,,,,,,,,,,,,,,,,,,,,,,,,,,,,,,,,,,,,,,,,,,,,,,,,
295225,2022-10-06_17h59.27.936,vts_reward_expectancy,2022.2.4,MacIntel,60.0024001,Chrome,1440,900,,,l,0.7174,10,411,1,2,8,32,6,1,0,0,1,0,1,0,0,0,hexagon,triangle,,,,,,,,,,,,,,,,,,,,,,,,,,,,,,,,,,,,,,,,,,,,,,,,,,,,,,
295225,2022-10-06_17h59.27.936,vts_reward_expectancy,2022.2.4,MacIntel,60.0024001,Chrome,1440,900,,,a,2.3512,1,412,1,2,9,33,11,1,0,0,0,1,0,0,1,0,star,hexagon,,,,,,,,,,,,,,,,,,,,,,,,,,,,,,,,,,,,,,,,,,,,,,,,,,,,,,
295225,2022-10-06_17h59.27.936,vts_reward_expectancy,2022.2.4,MacIntel,60.0024001,Chrome,1440,900,,,l,0.6637,10,422,1,2,10,34,10,1,0,0,0,1,0,1,0,0,star ,circle,,,,,,,,,,,,,,,,,,,,,,,,,,,,,,,,,,,,,,,,,,,,,,,,,,,,,,
295225,2022-10-06_17h59.27.936,vts_reward_expectancy,2022.2.4,MacIntel,60.0024001,Chrome,1440,900,,,a,0.8159,1,423,1,2,11,35,3,1,0,1,0,0,1,0,0,0,circle,triangle,,,,,,,,,,,,,,,,,,,,,,,,,,,,,,,,,,,,,,,,,,,,,,,,,,,,,,
295225,2022-10-06_17h59.27.936,vts_reward_expectancy,2022.2.4,MacIntel,60.0024001,Chrome,1440,900,,,a,0.8849,10,433,2,0,0,0,2,1,1,0,0,0,0,0,0,1,triangle,star,,,,,,,,,,,,,,,,,,,,,,,,,,,,,,,,,,,,,,,,,,,,,,,,,,,,,,
295225,2022-10-06_17h59.27.936,vts_reward_expectancy,2022.2.4,MacIntel,60.0024001,Chrome,1440,900,,,a,0.9098,1,434,2,0,1,1,4,1,0,1,0,0,0,0,1,0,circle,hexagon,,,,,,,,,,,,,,,,,,,,,,,,,,,,,,,,,,,,,,,,,,,,,,,,,,,,,,
295225,2022-10-06_17h59.27.936,vts_reward_expectancy,2022.2.4,MacIntel,60.0024001,Chrome,1440,900,,,l,0.8486,1,435,2,0,2,2,7,1,0,0,1,0,0,1,0,0,hexagon,circle,,,,,,,,,,,,,,,,,,,,,,,,,,,,,,,,,,,,,,,,,,,,,,,,,,,,,,
295225,2022-10-06_17h59.27.936,vts_reward_expectancy,2022.2.4,MacIntel,60.0024001,Chrome,1440,900,,,a,0.5503,10,445,2,0,3,3,1,1,1,0,0,0,0,0,1,0,triangle,hexagon,,,,,,,,,,,,,,,,,,,,,,,,,,,,,,,,,,,,,,,,,,,,,,,,,,,,,,
295225,2022-10-06_17h59.27.936,vts_reward_expectancy,2022.2.4,MacIntel,60.0024001,Chrome,1440,900,,,l,0.6768,10,455,2,0,4,4,3,1,0,1,0,0,1,0,0,0,circle,triangle,,,,,,,,,,,,,,,,,,,,,,,,,,,,,,,,,,,,,,,,,,,,,,,,,,,,,,
295225,2022-10-06_17h59.27.936,vts_reward_expectancy,2022.2.4,MacIntel,60.0024001,Chrome,1440,900,,,l,0.9332,1,456,2,0,5,5,10,1,0,0,0,1,0,1,0,0,star ,circle,,,,,,,,,,,,,,,,,,,,,,,,,,,,,,,,,,,,,,,,,,,,,,,,,,,,,,
295225,2022-10-06_17h59.27.936,vts_reward_expectancy,2022.2.4,MacIntel,60.0024001,Chrome,1440,900,,,l,0.3172,10,466,2,0,6,6,9,1,0,0,0,1,1,0,0,0,star,triangle,,,,,,,,,,,,,,,,,,,,,,,,,,,,,,,,,,,,,,,,,,,,,,,,,,,,,,
295225,2022-10-06_17h59.27.936,vts_reward_expectancy,2022.2.4,MacIntel,60.0024001,Chrome,1440,900,,,a,0.4232,1,467,2,0,7,7,11,1,0,0,0,1,0,0,1,0,star,hexagon,,,,,,,,,,,,,,,,,,,,,,,,,,,,,,,,,,,,,,,,,,,,,,,,,,,,,,
295225,2022-10-06_17h59.27.936,vts_reward_expectancy,2022.2.4,MacIntel,60.0024001,Chrome,1440,900,,,l,0.6002,1,468,2,0,8,8,6,1,0,0,1,0,1,0,0,0,hexagon,triangle,,,,,,,,,,,,,,,,,,,,,,,,,,,,,,,,,,,,,,,,,,,,,,,,,,,,,,
295225,2022-10-06_17h59.27.936,vts_reward_expectancy,2022.2.4,MacIntel,60.0024001,Chrome,1440,900,,,l,0.934,10,478,2,0,9,9,0,1,1,0,0,0,0,1,0,0,triangle,circle,,,,,,,,,,,,,,,,,,,,,,,,,,,,,,,,,,,,,,,,,,,,,,,,,,,,,,
295225,2022-10-06_17h59.27.936,vts_reward_expectancy,2022.2.4,MacIntel,60.0024001,Chrome,1440,900,,,l,0.6997,10,488,2,0,10,10,5,1,0,1,0,0,0,0,0,1,circle,star,,,,,,,,,,,,,,,,,,,,,,,,,,,,,,,,,,,,,,,,,,,,,,,,,,,,,,
295225,2022-10-06_17h59.27.936,vts_reward_expectancy,2022.2.4,MacIntel,60.0024001,Chrome,1440,900,,,l,0.8,1,489,2,0,11,11,8,1,0,0,1,0,0,0,0,1,hexagon,star,,,,,,,,,,,,,,,,,,,,,,,,,,,,,,,,,,,,,,,,,,,,,,,,,,,,,,
295225,2022-10-06_17h59.27.936,vts_reward_expectancy,2022.2.4,MacIntel,60.0024001,Chrome,1440,900,,,l,0.4659,1,490,2,1,0,12,2,1,1,0,0,0,0,0,0,1,triangle,star,,,,,,,,,,,,,,,,,,,,,,,,,,,,,,,,,,,,,,,,,,,,,,,,,,,,,,
295225,2022-10-06_17h59.27.936,vts_reward_expectancy,2022.2.4,MacIntel,60.0024001,Chrome,1440,900,,,l,0.4506,1,491,2,1,1,13,9,1,0,0,0,1,1,0,0,0,star,triangle,,,,,,,,,,,,,,,,,,,,,,,,,,,,,,,,,,,,,,,,,,,,,,,,,,,,,,
295225,2022-10-06_17h59.27.936,vts_reward_expectancy,2022.2.4,MacIntel,60.0024001,Chrome,1440,900,,,l,0.4828,1,492,2,1,2,14,3,1,0,1,0,0,1,0,0,0,circle,triangle,,,,,,,,,,,,,,,,,,,,,,,,,,,,,,,,,,,,,,,,,,,,,,,,,,,,,,
295225,2022-10-06_17h59.27.936,vts_reward_expectancy,2022.2.4,MacIntel,60.0024001,Chrome,1440,900,,,l,0.5838,10,502,2,1,3,15,4,1,0,1,0,0,0,0,1,0,circle,hexagon,,,,,,,,,,,,,,,,,,,,,,,,,,,,,,,,,,,,,,,,,,,,,,,,,,,,,,
295225,2022-10-06_17h59.27.936,vts_reward_expectancy,2022.2.4,MacIntel,60.0024001,Chrome,1440,900,,,a,0.8488,1,503,2,1,4,16,7,1,0,0,1,0,0,1,0,0,hexagon,circle,,,,,,,,,,,,,,,,,,,,,,,,,,,,,,,,,,,,,,,,,,,,,,,,,,,,,,
295225,2022-10-06_17h59.27.936,vts_reward_expectancy,2022.2.4,MacIntel,60.0024001,Chrome,1440,900,,,l,0.9314,1,504,2,1,5,17,5,1,0,1,0,0,0,0,0,1,circle,star,,,,,,,,,,,,,,,,,,,,,,,,,,,,,,,,,,,,,,,,,,,,,,,,,,,,,,
295225,2022-10-06_17h59.27.936,vts_reward_expectancy,2022.2.4,MacIntel,60.0024001,Chrome,1440,900,,,l,0.3497,10,514,2,1,6,18,8,1,0,0,1,0,0,0,0,1,hexagon,star,,,,,,,,,,,,,,,,,,,,,,,,,,,,,,,,,,,,,,,,,,,,,,,,,,,,,,
295225,2022-10-06_17h59.27.936,vts_reward_expectancy,2022.2.4,MacIntel,60.0024001,Chrome,1440,900,,,a,1.2041,1,515,2,1,7,19,6,1,0,0,1,0,1,0,0,0,hexagon,triangle,,,,,,,,,,,,,,,,,,,,,,,,,,,,,,,,,,,,,,,,,,,,,,,,,,,,,,
295225,2022-10-06_17h59.27.936,vts_reward_expectancy,2022.2.4,MacIntel,60.0024001,Chrome,1440,900,,,l,0.8235,10,525,2,1,8,20,10,1,0,0,0,1,0,1,0,0,star ,circle,,,,,,,,,,,,,,,,,,,,,,,,,,,,,,,,,,,,,,,,,,,,,,,,,,,,,,
295225,2022-10-06_17h59.27.936,vts_reward_expectancy,2022.2.4,MacIntel,60.0024001,Chrome,1440,900,,,a,1.5139,10,535,2,1,9,21,11,1,0,0,0,1,0,0,1,0,star,hexagon,,,,,,,,,,,,,,,,,,,,,,,,,,,,,,,,,,,,,,,,,,,,,,,,,,,,,,
295225,2022-10-06_17h59.27.936,vts_reward_expectancy,2022.2.4,MacIntel,60.0024001,Chrome,1440,900,,,l,1.0779,10,545,2,1,10,22,1,1,1,0,0,0,0,0,1,0,triangle,hexagon,,,,,,,,,,,,,,,,,,,,,,,,,,,,,,,,,,,,,,,,,,,,,,,,,,,,,,
295225,2022-10-06_17h59.27.936,vts_reward_expectancy,2022.2.4,MacIntel,60.0024001,Chrome,1440,900,,,l,0.9109,1,546,2,1,11,23,0,1,1,0,0,0,0,1,0,0,triangle,circle,,,,,,,,,,,,,,,,,,,,,,,,,,,,,,,,,,,,,,,,,,,,,,,,,,,,,,
295225,2022-10-06_17h59.27.936,vts_reward_expectancy,2022.2.4,MacIntel,60.0024001,Chrome,1440,900,,,a,0.4344,1,547,2,2,0,24,11,1,0,0,0,1,0,0,1,0,star,hexagon,,,,,,,,,,,,,,,,,,,,,,,,,,,,,,,,,,,,,,,,,,,,,,,,,,,,,,
295225,2022-10-06_17h59.27.936,vts_reward_expectancy,2022.2.4,MacIntel,60.0024001,Chrome,1440,900,,,l,0.7175,10,557,2,2,1,25,9,1,0,0,0,1,1,0,0,0,star,triangle,,,,,,,,,,,,,,,,,,,,,,,,,,,,,,,,,,,,,,,,,,,,,,,,,,,,,,
295225,2022-10-06_17h59.27.936,vts_reward_expectancy,2022.2.4,MacIntel,60.0024001,Chrome,1440,900,,,l,1.502,10,567,2,2,2,26,1,1,1,0,0,0,0,0,1,0,triangle,hexagon,,,,,,,,,,,,,,,,,,,,,,,,,,,,,,,,,,,,,,,,,,,,,,,,,,,,,,
295225,2022-10-06_17h59.27.936,vts_reward_expectancy,2022.2.4,MacIntel,60.0024001,Chrome,1440,900,,,a,1.0502,10,577,2,2,3,27,0,1,1,0,0,0,0,1,0,0,triangle,circle,,,,,,,,,,,,,,,,,,,,,,,,,,,,,,,,,,,,,,,,,,,,,,,,,,,,,,
295225,2022-10-06_17h59.27.936,vts_reward_expectancy,2022.2.4,MacIntel,60.0024001,Chrome,1440,900,,,l,0.3793,10,587,2,2,4,28,8,1,0,0,1,0,0,0,0,1,hexagon,star,,,,,,,,,,,,,,,,,,,,,,,,,,,,,,,,,,,,,,,,,,,,,,,,,,,,,,
295225,2022-10-06_17h59.27.936,vts_reward_expectancy,2022.2.4,MacIntel,60.0024001,Chrome,1440,900,,,l,0.7854,1,588,2,2,5,29,5,1,0,1,0,0,0,0,0,1,circle,star,,,,,,,,,,,,,,,,,,,,,,,,,,,,,,,,,,,,,,,,,,,,,,,,,,,,,,
295225,2022-10-06_17h59.27.936,vts_reward_expectancy,2022.2.4,MacIntel,60.0024001,Chrome,1440,900,,,l,0.626,10,598,2,2,6,30,10,1,0,0,0,1,0,1,0,0,star ,circle,,,,,,,,,,,,,,,,,,,,,,,,,,,,,,,,,,,,,,,,,,,,,,,,,,,,,,
295225,2022-10-06_17h59.27.936,vts_reward_expectancy,2022.2.4,MacIntel,60.0024001,Chrome,1440,900,,,l,0.7678,10,608,2,2,7,31,6,1,0,0,1,0,1,0,0,0,hexagon,triangle,,,,,,,,,,,,,,,,,,,,,,,,,,,,,,,,,,,,,,,,,,,,,,,,,,,,,,
295225,2022-10-06_17h59.27.936,vts_reward_expectancy,2022.2.4,MacIntel,60.0024001,Chrome,1440,900,,,l,0.4351,10,618,2,2,8,32,7,1,0,0,1,0,0,1,0,0,hexagon,circle,,,,,,,,,,,,,,,,,,,,,,,,,,,,,,,,,,,,,,,,,,,,,,,,,,,,,,
295225,2022-10-06_17h59.27.936,vts_reward_expectancy,2022.2.4,MacIntel,60.0024001,Chrome,1440,900,,,a,0.432,1,619,2,2,9,33,4,1,0,1,0,0,0,0,1,0,circle,hexagon,,,,,,,,,,,,,,,,,,,,,,,,,,,,,,,,,,,,,,,,,,,,,,,,,,,,,,
295225,2022-10-06_17h59.27.936,vts_reward_expectancy,2022.2.4,MacIntel,60.0024001,Chrome,1440,900,,,a,0.2699,10,629,2,2,10,34,3,1,0,1,0,0,1,0,0,0,circle,triangle,,,,,,,,,,,,,,,,,,,,,,,,,,,,,,,,,,,,,,,,,,,,,,,,,,,,,,
295225,2022-10-06_17h59.27.936,vts_reward_expectancy,2022.2.4,MacIntel,60.0024001,Chrome,1440,900,,,l,0.3445,1,630,2,2,11,35,2,1,1,0,0,0,0,0,0,1,triangle,star,,,,,,,,,,,,,,,,,,,,,,,,,,,,,,,,,,,,,,,,,,,,,,,,,,,,,,
295225,2022-10-06_17h59.27.936,vts_reward_expectancy,2022.2.4,MacIntel,60.0024001,Chrome,1440,900,,,,,,,,,,,,,,,,,,,,,,,D,167,triangle,1,0,d,2.0646,0,0,0,0,0,1,,,,,,,,,,,,,,,,,,,,,,,,,,,,,,,,,,,,,,,,,
295225,2022-10-06_17h59.27.936,vts_reward_expectancy,2022.2.4,MacIntel,60.0024001,Chrome,1440,900,,,,,,,,,,,,,,,,,,,,,,,Y,174,hexagon,1,0,f,1.2448,0,1,0,1,0,1,,,,,,,,,,,,,,,,,,,,,,,,,,,,,,,,,,,,,,,,,
295225,2022-10-06_17h59.27.936,vts_reward_expectancy,2022.2.4,MacIntel,60.0024001,Chrome,1440,900,,,,,,,,,,,,,,,,,,,,,,,H,146,circle,1,0,d,0.9983,0,2,0,2,0,1,,,,,,,,,,,,,,,,,,,,,,,,,,,,,,,,,,,,,,,,,
295225,2022-10-06_17h59.27.936,vts_reward_expectancy,2022.2.4,MacIntel,60.0024001,Chrome,1440,900,,,,,,,,,,,,,,,,,,,,,,,U,125,star,1,0,f,0.8514,0,3,0,3,0,1,,,,,,,,,,,,,,,,,,,,,,,,,,,,,,,,,,,,,,,,,
295225,2022-10-06_17h59.27.936,vts_reward_expectancy,2022.2.4,MacIntel,60.0024001,Chrome,1440,900,,,,,,,,,,,,,,,,,,,,,,,B,160,triangle,1,0,d,0.5846,0,4,0,4,0,1,,,,,,,,,,,,,,,,,,,,,,,,,,,,,,,,,,,,,,,,,
295225,2022-10-06_17h59.27.936,vts_reward_expectancy,2022.2.4,MacIntel,60.0024001,Chrome,1440,900,,,,,,,,,,,,,,,,,,,,,,,S,139,hexagon,1,0,f,0.5813,0,5,0,5,0,1,,,,,,,,,,,,,,,,,,,,,,,,,,,,,,,,,,,,,,,,,
295225,2022-10-06_17h59.27.936,vts_reward_expectancy,2022.2.4,MacIntel,60.0024001,Chrome,1440,900,,,,,,,,,,,,,,,,,,,,,,,W,132,circle,1,0,f,0.4323,0,6,0,6,0,1,,,,,,,,,,,,,,,,,,,,,,,,,,,,,,,,,,,,,,,,,
295225,2022-10-06_17h59.27.936,vts_reward_expectancy,2022.2.4,MacIntel,60.0024001,Chrome,1440,900,,,,,,,,,,,,,,,,,,,,,,,F,181,star,1,0,d,0.5316,0,7,0,7,0,1,,,,,,,,,,,,,,,,,,,,,,,,,,,,,,,,,,,,,,,,,
295225,2022-10-06_17h59.27.936,vts_reward_expectancy,2022.2.4,MacIntel,60.0024001,Chrome,1440,900,,,,,,,,,,,,,,,,,,,,,,,D,167,hexagon,1,0,d,0.5832,0,8,0,8,0,1,,,,,,,,,,,,,,,,,,,,,,,,,,,,,,,,,,,,,,,,,
295225,2022-10-06_17h59.27.936,vts_reward_expectancy,2022.2.4,MacIntel,60.0024001,Chrome,1440,900,,,,,,,,,,,,,,,,,,,,,,,Y,174,star,1,0,f,0.5531,0,9,0,9,0,1,,,,,,,,,,,,,,,,,,,,,,,,,,,,,,,,,,,,,,,,,
295225,2022-10-06_17h59.27.936,vts_reward_expectancy,2022.2.4,MacIntel,60.0024001,Chrome,1440,900,,,,,,,,,,,,,,,,,,,,,,,W,132,hexagon,1,0,,,1,,,,,,j,0.8593,0,0,0,0,1,,,,,,,,,,,,,,,,,,,,,,,,,,,,,,,,,,
295225,2022-10-06_17h59.27.936,vts_reward_expectancy,2022.2.4,MacIntel,60.0024001,Chrome,1440,900,,,,,,,,,,,,,,,,,,,,,,,Y,146,circle,1,0,,,1,,,,,,j,0.6088,1,0,1,0,1,,,,,,,,,,,,,,,,,,,,,,,,,,,,,,,,,,
295225,2022-10-06_17h59.27.936,vts_reward_expectancy,2022.2.4,MacIntel,60.0024001,Chrome,1440,900,,,,,,,,,,,,,,,,,,,,,,,S,160,triangle,1,0,,,1,,,,,,k,0.4817,2,0,2,0,1,,,,,,,,,,,,,,,,,,,,,,,,,,,,,,,,,,
295225,2022-10-06_17h59.27.936,vts_reward_expectancy,2022.2.4,MacIntel,60.0024001,Chrome,1440,900,,,,,,,,,,,,,,,,,,,,,,,H,139,star,1,0,,,1,,,,,,j,0.6245,3,0,3,0,1,,,,,,,,,,,,,,,,,,,,,,,,,,,,,,,,,,
295225,2022-10-06_17h59.27.936,vts_reward_expectancy,2022.2.4,MacIntel,60.0024001,Chrome,1440,900,,,,,,,,,,,,,,,,,,,,,,,F,167,hexagon,1,0,,,1,,,,,,k,0.4962,4,0,4,0,1,,,,,,,,,,,,,,,,,,,,,,,,,,,,,,,,,,
295225,2022-10-06_17h59.27.936,vts_reward_expectancy,2022.2.4,MacIntel,60.0024001,Chrome,1440,900,,,,,,,,,,,,,,,,,,,,,,,D,181,circle,1,0,,,1,,,,,,k,0.5262,5,0,5,0,1,,,,,,,,,,,,,,,,,,,,,,,,,,,,,,,,,,
295225,2022-10-06_17h59.27.936,vts_reward_expectancy,2022.2.4,MacIntel,60.0024001,Chrome,1440,900,,,,,,,,,,,,,,,,,,,,,,,B,125,triangle,1,0,,,1,,,,,,j,0.6055,6,0,6,0,1,,,,,,,,,,,,,,,,,,,,,,,,,,,,,,,,,,
295225,2022-10-06_17h59.27.936,vts_reward_expectancy,2022.2.4,MacIntel,60.0024001,Chrome,1440,900,,,,,,,,,,,,,,,,,,,,,,,U,174,star,1,0,,,1,,,,,,k,0.9278,7,0,7,0,1,,,,,,,,,,,,,,,,,,,,,,,,,,,,,,,,,,
295225,2022-10-06_17h59.27.936,vts_reward_expectancy,2022.2.4,MacIntel,60.0024001,Chrome,1440,900,,,,,,,,,,,,,,,,,,,,,,,W,132,hexagon,1,0,,,1,,,,,,j,0.5003,8,0,8,0,1,,,,,,,,,,,,,,,,,,,,,,,,,,,,,,,,,,
295225,2022-10-06_17h59.27.936,vts_reward_expectancy,2022.2.4,MacIntel,60.0024001,Chrome,1440,900,,,,,,,,,,,,,,,,,,,,,,,Y,146,circle,1,0,,,1,,,,,,j,0.5292,9,0,9,0,1,,,,,,,,,,,,,,,,,,,,,,,,,,,,,,,,,,
295225,2022-10-06_17h59.27.936,vts_reward_expectancy,2022.2.4,MacIntel,60.0024001,Chrome,1440,900,,,,,0,630,,,,,,,,,,,,,,,,,S,181,triangle,1,0,,,2,,,,,,,,,,,,,-1,number,NA,k,1.5773,vtsPrac,0,0,0,0,1,,,,,,,,,,,,,,,,,,,,,,,
295225,2022-10-06_17h59.27.936,vts_reward_expectancy,2022.2.4,MacIntel,60.0024001,Chrome,1440,900,,,,,0,630,,,,,,,,,,,,,,,,,H,174,star,1,0,,,2,,,,,,,,,,,,,repeat,number,numRpt,k,2.0919,vtsPrac,1,0,1,0,1,,,,,,,,,,,,,,,,,,,,,,,
295225,2022-10-06_17h59.27.936,vts_reward_expectancy,2022.2.4,MacIntel,60.0024001,Chrome,1440,900,,,,,0,630,,,,,,,,,,,,,,,,,Y,160,triangle,1,0,,,2,,,,,,,,,,,,,switch,letter,lettSwt,f,1.0738,vtsPrac,2,0,2,0,1,,,,,,,,,,,,,,,,,,,,,,,
295225,2022-10-06_17h59.27.936,vts_reward_expectancy,2022.2.4,MacIntel,60.0024001,Chrome,1440,900,,,,,0,630,,,,,,,,,,,,,,,,,D,167,star,1,0,,,2,,,,,,,,,,,,,switch,number,numSwt,k,0.8984,vtsPrac,3,0,3,0,1,,,,,,,,,,,,,,,,,,,,,,,
295225,2022-10-06_17h59.27.936,vts_reward_expectancy,2022.2.4,MacIntel,60.0024001,Chrome,1440,900,,,,,0,630,,,,,,,,,,,,,,,,,S,181,circle,1,0,,,2,,,,,,,,,,,,,repeat,number,numRpt,k,0.7468,vtsPrac,4,0,4,0,1,,,,,,,,,,,,,,,,,,,,,,,
295225,2022-10-06_17h59.27.936,vts_reward_expectancy,2022.2.4,MacIntel,60.0024001,Chrome,1440,900,,,,,0,630,,,,,,,,,,,,,,,,,H,174,triangle,1,0,,,2,,,,,,,,,,,,,switch,letter,lettSwt,d,0.8266,vtsPrac,5,0,5,0,1,,,,,,,,,,,,,,,,,,,,,,,
295225,2022-10-06_17h59.27.936,vts_reward_expectancy,2022.2.4,MacIntel,60.0024001,Chrome,1440,900,,,,,0,630,,,,,,,,,,,,,,,,,Y,160,hexagon,1,0,,,2,,,,,,,,,,,,,repeat,letter,lettRpt,f,0.8473,vtsPrac,6,0,6,0,1,,,,,,,,,,,,,,,,,,,,,,,
295225,2022-10-06_17h59.27.936,vts_reward_expectancy,2022.2.4,MacIntel,60.0024001,Chrome,1440,900,,,,,0,630,,,,,,,,,,,,,,,,,D,167,circle,1,0,,,2,,,,,,,,,,,,,repeat,letter,lettRpt,d,0.7504,vtsPrac,7,0,7,0,1,,,,,,,,,,,,,,,,,,,,,,,
295225,2022-10-06_17h59.27.936,vts_reward_expectancy,2022.2.4,MacIntel,60.0024001,Chrome,1440,900,,,,,0,630,,,,,,,,,,,,,,,,,B,167,triangle,-1,0,,,2,,,,,,,,,,,,,switch,no_choice,NA,,,vtsPrac,8,0,8,0,1,,,,,,,,,,,,,,,,,,,,,,,
295225,2022-10-06_17h59.27.936,vts_reward_expectancy,2022.2.4,MacIntel,60.0024001,Chrome,1440,900,,,,,0,630,,,,,,,,,,,,,,,,,F,146,hexagon,1,0,,,2,,,,,,,,,,,,,switch,number,numSwt,j,0.6848,vtsPrac,9,0,9,0,1,,,,,,,,,,,,,,,,,,,,,,,
295225,2022-10-06_17h59.27.936,vts_reward_expectancy,2022.2.4,MacIntel,60.0024001,Chrome,1440,900,,,,,0,630,,,,,,,,,,,,,,,,,U,181,triangle,1,0,,,2,,,,,,,,,,,,,switch,letter,lettSwt,f,0.596,vtsPrac,10,0,10,0,1,,,,,,,,,,,,,,,,,,,,,,,
295225,2022-10-06_17h59.27.936,vts_reward_expectancy,2022.2.4,MacIntel,60.0024001,Chrome,1440,900,,,,,0,630,,,,,,,,,,,,,,,,,Y,132,hexagon,1,0,,,2,,,,,,,,,,,,,switch,number,numSwt,j,0.8792,vtsPrac,11,0,11,0,1,,,,,,,,,,,,,,,,,,,,,,,
295225,2022-10-06_17h59.27.936,vts_reward_expectancy,2022.2.4,MacIntel,60.0024001,Chrome,1440,900,,,,,0,630,,,,,,,,,,,,,,,,,W,132,triangle,1,0,,,2,,,,,,,,,,,,,repeat,number,numRpt,j,1.2101,vtsPrac,12,0,12,0,1,,,,,,,,,,,,,,,,,,,,,,,
295225,2022-10-06_17h59.27.936,vts_reward_expectancy,2022.2.4,MacIntel,60.0024001,Chrome,1440,900,,,,,0,630,,,,,,,,,,,,,,,,,H,167,circle,1,0,,,2,,,,,,,,,,,,,switch,letter,lettSwt,d,0.6247,vtsPrac,13,0,13,0,1,,,,,,,,,,,,,,,,,,,,,,,
295225,2022-10-06_17h59.27.936,vts_reward_expectancy,2022.2.4,MacIntel,60.0024001,Chrome,1440,900,,,,,0,630,,,,,,,,,,,,,,,,,D,139,hexagon,1,0,,,2,,,,,,,,,,,,,repeat,letter,lettRpt,d,0.8399,vtsPrac,14,0,14,0,1,,,,,,,,,,,,,,,,,,,,,,,
295225,2022-10-06_17h59.27.936,vts_reward_expectancy,2022.2.4,MacIntel,60.0024001,Chrome,1440,900,,,,,0,630,,,,,,,,,,,,,,,,,F,160,circle,1,0,,,2,,,,,,,,,,,,,switch,number,numSwt,k,1.0473,vtsPrac,15,0,15,0,1,,,,,,,,,,,,,,,,,,,,,,,
295225,2022-10-06_17h59.27.936,vts_reward_expectancy,2022.2.4,MacIntel,60.0024001,Chrome,1440,900,,,,,,,,,,,,,,,,,,,,,,,,,,,,,,,,,,,,,,,,,,,,,,,,,,,,,,,,,,,,,,,,,,,,,,,,,,,,
295225,2022-10-06_17h59.27.936,vts_reward_expectancy,2022.2.4,MacIntel,60.0024001,Chrome,1440,900,,,,,,,,,,,,,,,,,,,,,,,,,,,,,,,,,,,,,,,,,,,,,,,,,,,,,,,,,,,,,,,,,,,,,,,,,,,,
295225,2022-10-06_17h59.27.936,vts_reward_expectancy,2022.2.4,MacIntel,60.0024001,Chrome,1440,900,,,,,0,630,,,,,,,,,,,,,,,,,U,167,hexagon,1,0,,,,,,,,,,,,,,,,repeat,number,numRpt,k,0.6253,noRew,,,,,,0,0,0,0,0,1,,,,,,,,,,,,,,,,,
295225,2022-10-06_17h59.27.936,vts_reward_expectancy,2022.2.4,MacIntel,60.0024001,Chrome,1440,900,,,,,0,630,,,,,,,,,,,,,,,,,D,139,triangle,1,0,,,,,,,,,,,,,,,,repeat,number,numRpt,j,0.6468,noRew,,,,,,0,1,0,1,0,1,,,,,,,,,,,,,,,,,
295225,2022-10-06_17h59.27.936,vts_reward_expectancy,2022.2.4,MacIntel,60.0024001,Chrome,1440,900,,,,,0,630,,,,,,,,,,,,,,,,,H,174,hexagon,1,0,,,,,,,,,,,,,,,,repeat,number,numRpt,k,0.6273,noRew,,,,,,0,2,0,2,0,1,,,,,,,,,,,,,,,,,
295225,2022-10-06_17h59.27.936,vts_reward_expectancy,2022.2.4,MacIntel,60.0024001,Chrome,1440,900,,,,,0,630,,,,,,,,,,,,,,,,,S,132,triangle,1,0,,,,,,,,,,,,,,,,switch,letter,lettSwt,f,0.5717,noRew,,,,,,0,3,0,3,0,1,,,,,,,,,,,,,,,,,
295225,2022-10-06_17h59.27.936,vts_reward_expectancy,2022.2.4,MacIntel,60.0024001,Chrome,1440,900,,,,,0,630,,,,,,,,,,,,,,,,,U,167,star,1,0,,,,,,,,,,,,,,,,repeat,letter,lettRpt,f,0.9732,noRew,,,,,,0,4,0,4,0,1,,,,,,,,,,,,,,,,,
295225,2022-10-06_17h59.27.936,vts_reward_expectancy,2022.2.4,MacIntel,60.0024001,Chrome,1440,900,,,,,0,630,,,,,,,,,,,,,,,,,D,139,circle,1,0,,,,,,,,,,,,,,,,repeat,letter,lettRpt,d,0.6587,noRew,,,,,,0,5,0,5,0,1,,,,,,,,,,,,,,,,,
295225,2022-10-06_17h59.27.936,vts_reward_expectancy,2022.2.4,MacIntel,60.0024001,Chrome,1440,900,,,,,0,630,,,,,,,,,,,,,,,,,H,174,hexagon,1,0,,,,,,,,,,,,,,,,repeat,letter,lettRpt,d,0.5587,noRew,,,,,,0,6,0,6,0,1,,,,,,,,,,,,,,,,,
295225,2022-10-06_17h59.27.936,vts_reward_expectancy,2022.2.4,MacIntel,60.0024001,Chrome,1440,900,,,,,0,630,,,,,,,,,,,,,,,,,S,132,triangle,1,0,,,,,,,,,,,,,,,,switch,number,numSwt,j,0.3809,noRew,,,,,,0,7,0,7,0,1,,,,,,,,,,,,,,,,,
295225,2022-10-06_17h59.27.936,vts_reward_expectancy,2022.2.4,MacIntel,60.0024001,Chrome,1440,900,,,,,0,630,,,,,,,,,,,,,,,,,H,174,hexagon,1,0,,,,,,,,,,,,,,,,repeat,number,numRpt,k,0.5307,noRew,,,,,,0,8,0,8,0,1,,,,,,,,,,,,,,,,,
295225,2022-10-06_17h59.27.936,vts_reward_expectancy,2022.2.4,MacIntel,60.0024001,Chrome,1440,900,,,,,0,630,,,,,,,,,,,,,,,,,D,146,triangle,1,0,,,,,,,,,,,,,,,,switch,letter,lettSwt,d,0.5987,noRew,,,,,,0,9,0,9,0,1,,,,,,,,,,,,,,,,,
295225,2022-10-06_17h59.27.936,vts_reward_expectancy,2022.2.4,MacIntel,60.0024001,Chrome,1440,900,,,,,0,630,,,,,,,,,,,,,,,,,U,181,circle,1,0,,,,,,,,,,,,,,,,repeat,letter,lettRpt,f,0.5978,noRew,,,,,,0,10,0,10,0,1,,,,,,,,,,,,,,,,,
295225,2022-10-06_17h59.27.936,vts_reward_expectancy,2022.2.4,MacIntel,60.0024001,Chrome,1440,900,,,,,0,630,,,,,,,,,,,,,,,,,Y,160,hexagon,1,0,,,,,,,,,,,,,,,,repeat,letter,lettRpt,f,0.6656,noRew,,,,,,0,11,0,11,0,1,,,,,,,,,,,,,,,,,
295225,2022-10-06_17h59.27.936,vts_reward_expectancy,2022.2.4,MacIntel,60.0024001,Chrome,1440,900,,,,,0,630,,,,,,,,,,,,,,,,,S,146,star,1,0,,,,,,,,,,,,,,,,repeat,letter,lettRpt,f,0.5319,noRew,,,,,,0,12,0,12,0,1,,,,,,,,,,,,,,,,,
295225,2022-10-06_17h59.27.936,vts_reward_expectancy,2022.2.4,MacIntel,60.0024001,Chrome,1440,900,,,,,0,630,,,,,,,,,,,,,,,,,U,125,triangle,1,0,,,,,,,,,,,,,,,,switch,number,numSwt,j,0.8151,noRew,,,,,,0,13,0,13,0,1,,,,,,,,,,,,,,,,,
295225,2022-10-06_17h59.27.936,vts_reward_expectancy,2022.2.4,MacIntel,60.0024001,Chrome,1440,900,,,,,0,630,,,,,,,,,,,,,,,,,F,139,hexagon,0,0,,,,,,,,,,,,,,,,switch,letter,NA,f,0.5751,noRew,,,,,,0,14,0,14,0,1,,,,,,,,,,,,,,,,,
295225,2022-10-06_17h59.27.936,vts_reward_expectancy,2022.2.4,MacIntel,60.0024001,Chrome,1440,900,,,,,0,630,,,,,,,,,,,,,,,,,Y,181,circle,1,1,,,,,,,,,,,,,,,,repeat,letter,lettRpt,f,0.9102,noRew,,,,,,0,15,0,15,0,1,,,,,,,,,,,,,,,,,
295225,2022-10-06_17h59.27.936,vts_reward_expectancy,2022.2.4,MacIntel,60.0024001,Chrome,1440,900,,,,,0,630,,,,,,,,,,,,,,,,,S,167,hexagon,1,0,,,,,,,,,,,,,,,,switch,number,numSwt,k,0.5176,noRew,,,,,,0,16,0,16,0,1,,,,,,,,,,,,,,,,,
295225,2022-10-06_17h59.27.936,vts_reward_expectancy,2022.2.4,MacIntel,60.0024001,Chrome,1440,900,,,,,0,630,,,,,,,,,,,,,,,,,D,139,circle,1,0,,,,,,,,,,,,,,,,switch,letter,lettSwt,d,0.598,noRew,,,,,,0,17,0,17,0,1,,,,,,,,,,,,,,,,,
295225,2022-10-06_17h59.27.936,vts_reward_expectancy,2022.2.4,MacIntel,60.0024001,Chrome,1440,900,,,,,0,630,,,,,,,,,,,,,,,,,W,125,triangle,1,0,,,,,,,,,,,,,,,,switch,number,numSwt,j,0.5642,noRew,,,,,,0,18,0,18,0,1,,,,,,,,,,,,,,,,,
295225,2022-10-06_17h59.27.936,vts_reward_expectancy,2022.2.4,MacIntel,60.0024001,Chrome,1440,900,,,,,0,630,,,,,,,,,,,,,,,,,Y,181,hexagon,1,0,,,,,,,,,,,,,,,,repeat,number,numRpt,k,0.6472,noRew,,,,,,0,19,0,19,0,1,,,,,,,,,,,,,,,,,
295225,2022-10-06_17h59.27.936,vts_reward_expectancy,2022.2.4,MacIntel,60.0024001,Chrome,1440,900,,,,,0,630,,,,,,,,,,,,,,,,,S,181,circle,1,0,,,,,,,,,,,,,,,,repeat,number,numRpt,k,0.4949,noRew,,,,,,0,20,0,20,0,1,,,,,,,,,,,,,,,,,
295225,2022-10-06_17h59.27.936,vts_reward_expectancy,2022.2.4,MacIntel,60.0024001,Chrome,1440,900,,,,,0,630,,,,,,,,,,,,,,,,,H,146,star,1,0,,,,,,,,,,,,,,,,repeat,number,numRpt,j,0.5585,noRew,,,,,,0,21,0,21,0,1,,,,,,,,,,,,,,,,,
295225,2022-10-06_17h59.27.936,vts_reward_expectancy,2022.2.4,MacIntel,60.0024001,Chrome,1440,900,,,,,0,630,,,,,,,,,,,,,,,,,D,132,triangle,1,0,,,,,,,,,,,,,,,,switch,letter,lettSwt,d,0.6298,noRew,,,,,,0,22,0,22,0,1,,,,,,,,,,,,,,,,,
295225,2022-10-06_17h59.27.936,vts_reward_expectancy,2022.2.4,MacIntel,60.0024001,Chrome,1440,900,,,,,0,630,,,,,,,,,,,,,,,,,F,174,star,1,0,,,,,,,,,,,,,,,,switch,number,numSwt,k,0.6007,noRew,,,,,,0,23,0,23,0,1,,,,,,,,,,,,,,,,,
295225,2022-10-06_17h59.27.936,vts_reward_expectancy,2022.2.4,MacIntel,60.0024001,Chrome,1440,900,,,,,0,630,,,,,,,,,,,,,,,,,U,125,star,1,0,,,,,,,,,,,,,,,,repeat,number,numRpt,j,0.8094,noRew,,,,,,0,24,0,24,0,1,,,,,,,,,,,,,,,,,
295225,2022-10-06_17h59.27.936,vts_reward_expectancy,2022.2.4,MacIntel,60.0024001,Chrome,1440,900,,,,,0,630,,,,,,,,,,,,,,,,,H,181,hexagon,1,0,,,,,,,,,,,,,,,,repeat,number,numRpt,k,0.591,noRew,,,,,,0,25,0,25,0,1,,,,,,,,,,,,,,,,,
295225,2022-10-06_17h59.27.936,vts_reward_expectancy,2022.2.4,MacIntel,60.0024001,Chrome,1440,900,,,,,0,630,,,,,,,,,,,,,,,,,B,132,triangle,1,0,,,,,,,,,,,,,,,,switch,letter,lettSwt,d,0.5646,noRew,,,,,,0,26,0,26,0,1,,,,,,,,,,,,,,,,,
295225,2022-10-06_17h59.27.936,vts_reward_expectancy,2022.2.4,MacIntel,60.0024001,Chrome,1440,900,,,,,0,630,,,,,,,,,,,,,,,,,D,146,circle,1,0,,,,,,,,,,,,,,,,switch,number,numSwt,j,0.6483,noRew,,,,,,0,27,0,27,0,1,,,,,,,,,,,,,,,,,
295225,2022-10-06_17h59.27.936,vts_reward_expectancy,2022.2.4,MacIntel,60.0024001,Chrome,1440,900,,,,,0,630,,,,,,,,,,,,,,,,,F,125,circle,1,0,,,,,,,,,,,,,,,,switch,letter,lettSwt,d,0.6989,noRew,,,,,,0,28,0,28,0,1,,,,,,,,,,,,,,,,,
295225,2022-10-06_17h59.27.936,vts_reward_expectancy,2022.2.4,MacIntel,60.0024001,Chrome,1440,900,,,,,0,630,,,,,,,,,,,,,,,,,Y,146,hexagon,1,0,,,,,,,,,,,,,,,,switch,number,numSwt,j,0.7809,noRew,,,,,,0,29,0,29,0,1,,,,,,,,,,,,,,,,,
295225,2022-10-06_17h59.27.936,vts_reward_expectancy,2022.2.4,MacIntel,60.0024001,Chrome,1440,900,,,,,0,630,,,,,,,,,,,,,,,,,D,139,triangle,1,0,,,,,,,,,,,,,,,,switch,letter,lettSwt,d,0.7414,noRew,,,,,,0,30,0,30,0,1,,,,,,,,,,,,,,,,,
295225,2022-10-06_17h59.27.936,vts_reward_expectancy,2022.2.4,MacIntel,60.0024001,Chrome,1440,900,,,,,0,630,,,,,,,,,,,,,,,,,W,174,star,1,0,,,,,,,,,,,,,,,,switch,number,numSwt,k,0.5313,noRew,,,,,,0,31,0,31,0,1,,,,,,,,,,,,,,,,,
295225,2022-10-06_17h59.27.936,vts_reward_expectancy,2022.2.4,MacIntel,60.0024001,Chrome,1440,900,,,,,0,630,,,,,,,,,,,,,,,,,D,167,star,0,0,,,,,,,,,,,,,,,,repeat,number,NA,j,0.8487,noRew,,,,,,0,32,0,32,0,1,,,,,,,,,,,,,,,,,
295225,2022-10-06_17h59.27.936,vts_reward_expectancy,2022.2.4,MacIntel,60.0024001,Chrome,1440,900,,,,,0,630,,,,,,,,,,,,,,,,,F,160,triangle,1,1,,,,,,,,,,,,,,,,switch,letter,lettSwt,d,0.9303,noRew,,,,,,0,33,0,33,0,1,,,,,,,,,,,,,,,,,
295225,2022-10-06_17h59.27.936,vts_reward_expectancy,2022.2.4,MacIntel,60.0024001,Chrome,1440,900,,,,,0,630,,,,,,,,,,,,,,,,,S,139,circle,1,0,,,,,,,,,,,,,,,,switch,number,numSwt,j,0.5964,noRew,,,,,,0,34,0,34,0,1,,,,,,,,,,,,,,,,,
295225,2022-10-06_17h59.27.936,vts_reward_expectancy,2022.2.4,MacIntel,60.0024001,Chrome,1440,900,,,,,0,630,,,,,,,,,,,,,,,,,Y,125,hexagon,1,0,,,,,,,,,,,,,,,,repeat,number,numRpt,j,0.5761,noRew,,,,,,0,35,0,35,0,1,,,,,,,,,,,,,,,,,
295225,2022-10-06_17h59.27.936,vts_reward_expectancy,2022.2.4,MacIntel,60.0024001,Chrome,1440,900,,,,,0,630,,,,,,,,,,,,,,,,,Y,132,triangle,1,0,,,,,,,,,,,,,,,,repeat,number,numRpt,j,0.5483,noRew,,,,,,0,36,0,36,0,1,,,,,,,,,,,,,,,,,
295225,2022-10-06_17h59.27.936,vts_reward_expectancy,2022.2.4,MacIntel,60.0024001,Chrome,1440,900,,,,,0,630,,,,,,,,,,,,,,,,,H,181,circle,1,0,,,,,,,,,,,,,,,,repeat,number,numRpt,k,0.6269,noRew,,,,,,0,37,0,37,0,1,,,,,,,,,,,,,,,,,
295225,2022-10-06_17h59.27.936,vts_reward_expectancy,2022.2.4,MacIntel,60.0024001,Chrome,1440,900,,,,,0,630,,,,,,,,,,,,,,,,,B,146,star,1,0,,,,,,,,,,,,,,,,switch,letter,lettSwt,d,0.5167,noRew,,,,,,0,38,0,38,0,1,,,,,,,,,,,,,,,,,
295225,2022-10-06_17h59.27.936,vts_reward_expectancy,2022.2.4,MacIntel,60.0024001,Chrome,1440,900,,,,,0,630,,,,,,,,,,,,,,,,,U,160,circle,1,0,,,,,,,,,,,,,,,,repeat,letter,lettRpt,f,0.5464,noRew,,,,,,0,39,0,39,0,1,,,,,,,,,,,,,,,,,
295225,2022-10-06_17h59.27.936,vts_reward_expectancy,2022.2.4,MacIntel,60.0024001,Chrome,1440,900,,,,,0,630,,,,,,,,,,,,,,,,,Y,160,triangle,1,0,,,,,,,,,,,,,,,,switch,number,numSwt,k,0.8169,noRew,,,,,,0,40,0,40,0,1,,,,,,,,,,,,,,,,,
295225,2022-10-06_17h59.27.936,vts_reward_expectancy,2022.2.4,MacIntel,60.0024001,Chrome,1440,900,,,,,0,630,,,,,,,,,,,,,,,,,F,167,circle,0,0,,,,,,,,,,,,,,,,repeat,number,NA,j,0.9824,noRew,,,,,,0,41,0,41,0,1,,,,,,,,,,,,,,,,,
295225,2022-10-06_17h59.27.936,vts_reward_expectancy,2022.2.4,MacIntel,60.0024001,Chrome,1440,900,,,,,0,630,,,,,,,,,,,,,,,,,S,132,hexagon,0,1,,,,,,,,,,,,,,,,repeat,number,NA,k,0.9412,noRew,,,,,,0,42,0,42,0,1,,,,,,,,,,,,,,,,,
295225,2022-10-06_17h59.27.936,vts_reward_expectancy,2022.2.4,MacIntel,60.0024001,Chrome,1440,900,,,,,0,630,,,,,,,,,,,,,,,,,D,181,circle,1,1,,,,,,,,,,,,,,,,repeat,number,numRpt,k,0.5758,noRew,,,,,,0,43,0,43,0,1,,,,,,,,,,,,,,,,,
295225,2022-10-06_17h59.27.936,vts_reward_expectancy,2022.2.4,MacIntel,60.0024001,Chrome,1440,900,,,,,0,630,,,,,,,,,,,,,,,,,U,146,triangle,1,0,,,,,,,,,,,,,,,,switch,letter,lettSwt,f,0.7115,noRew,,,,,,0,44,0,44,0,1,,,,,,,,,,,,,,,,,
295225,2022-10-06_17h59.27.936,vts_reward_expectancy,2022.2.4,MacIntel,60.0024001,Chrome,1440,900,,,,,0,630,,,,,,,,,,,,,,,,,H,181,circle,1,0,,,,,,,,,,,,,,,,repeat,letter,lettRpt,d,0.7246,noRew,,,,,,0,45,0,45,0,1,,,,,,,,,,,,,,,,,
295225,2022-10-06_17h59.27.936,vts_reward_expectancy,2022.2.4,MacIntel,60.0024001,Chrome,1440,900,,,,,0,630,,,,,,,,,,,,,,,,,B,174,star,1,0,,,,,,,,,,,,,,,,repeat,letter,lettRpt,d,0.5474,noRew,,,,,,0,46,0,46,0,1,,,,,,,,,,,,,,,,,
295225,2022-10-06_17h59.27.936,vts_reward_expectancy,2022.2.4,MacIntel,60.0024001,Chrome,1440,900,,,,,0,630,,,,,,,,,,,,,,,,,W,160,hexagon,1,0,,,,,,,,,,,,,,,,repeat,letter,lettRpt,f,0.6433,noRew,,,,,,0,47,0,47,0,1,,,,,,,,,,,,,,,,,
295225,2022-10-06_17h59.27.936,vts_reward_expectancy,2022.2.4,MacIntel,60.0024001,Chrome,1440,900,,,,,0,630,,,,,,,,,,,,,,,,,U,139,triangle,0,0,,,,,,,,,,,,,,,,repeat,letter,NA,d,0.5784,noRew,,,,,,0,48,0,48,0,1,,,,,,,,,,,,,,,,,
295225,2022-10-06_17h59.27.936,vts_reward_expectancy,2022.2.4,MacIntel,60.0024001,Chrome,1440,900,,,,,0,630,,,,,,,,,,,,,,,,,B,167,star,0,1,,,,,,,,,,,,,,,,repeat,letter,NA,f,0.6308,noRew,,,,,,0,49,0,49,0,1,,,,,,,,,,,,,,,,,
295225,2022-10-06_17h59.27.936,vts_reward_expectancy,2022.2.4,MacIntel,60.0024001,Chrome,1440,900,,,,,0,630,,,,,,,,,,,,,,,,,F,160,circle,0,1,,,,,,,,,,,,,,,,switch,number,NA,j,1.0148,noRew,,,,,,0,50,0,50,0,1,,,,,,,,,,,,,,,,,
295225,2022-10-06_17h59.27.936,vts_reward_expectancy,2022.2.4,MacIntel,60.0024001,Chrome,1440,900,,,,,0,630,,,,,,,,,,,,,,,,,S,174,hexagon,1,1,,,,,,,,,,,,,,,,switch,letter,lettSwt,f,0.5246,noRew,,,,,,0,51,0,51,0,1,,,,,,,,,,,,,,,,,
295225,2022-10-06_17h59.27.936,vts_reward_expectancy,2022.2.4,MacIntel,60.0024001,Chrome,1440,900,,,,,0,630,,,,,,,,,,,,,,,,,Y,125,triangle,1,0,,,,,,,,,,,,,,,,repeat,letter,lettRpt,f,0.4976,noRew,,,,,,0,52,0,52,0,1,,,,,,,,,,,,,,,,,
295225,2022-10-06_17h59.27.936,vts_reward_expectancy,2022.2.4,MacIntel,60.0024001,Chrome,1440,900,,,,,0,630,,,,,,,,,,,,,,,,,H,174,hexagon,1,0,,,,,,,,,,,,,,,,switch,number,numSwt,k,0.6646,noRew,,,,,,0,53,0,53,0,1,,,,,,,,,,,,,,,,,
295225,2022-10-06_17h59.27.936,vts_reward_expectancy,2022.2.4,MacIntel,60.0024001,Chrome,1440,900,,,,,0,630,,,,,,,,,,,,,,,,,S,160,circle,1,0,,,,,,,,,,,,,,,,repeat,number,numRpt,k,0.798,noRew,,,,,,0,54,0,54,0,1,,,,,,,,,,,,,,,,,
295225,2022-10-06_17h59.27.936,vts_reward_expectancy,2022.2.4,MacIntel,60.0024001,Chrome,1440,900,,,,,0,630,,,,,,,,,,,,,,,,,F,167,star,1,0,,,,,,,,,,,,,,,,switch,letter,lettSwt,d,0.7507,noRew,,,,,,0,55,0,55,0,1,,,,,,,,,,,,,,,,,
295225,2022-10-06_17h59.27.936,vts_reward_expectancy,2022.2.4,MacIntel,60.0024001,Chrome,1440,900,,,,,0,630,,,,,,,,,,,,,,,,,B,181,star,1,0,,,,,,,,,,,,,,,,repeat,letter,lettRpt,d,0.6662,noRew,,,,,,0,56,0,56,0,1,,,,,,,,,,,,,,,,,
295225,2022-10-06_17h59.27.936,vts_reward_expectancy,2022.2.4,MacIntel,60.0024001,Chrome,1440,900,,,,,0,630,,,,,,,,,,,,,,,,,Y,160,triangle,1,0,,,,,,,,,,,,,,,,repeat,letter,lettRpt,f,0.6325,noRew,,,,,,0,57,0,57,0,1,,,,,,,,,,,,,,,,,
295225,2022-10-06_17h59.27.936,vts_reward_expectancy,2022.2.4,MacIntel,60.0024001,Chrome,1440,900,,,,,0,630,,,,,,,,,,,,,,,,,D,139,star,1,0,,,,,,,,,,,,,,,,switch,number,numSwt,j,0.5799,noRew,,,,,,0,58,0,58,0,1,,,,,,,,,,,,,,,,,
295225,2022-10-06_17h59.27.936,vts_reward_expectancy,2022.2.4,MacIntel,60.0024001,Chrome,1440,900,,,,,0,630,,,,,,,,,,,,,,,,,S,132,circle,1,0,,,,,,,,,,,,,,,,repeat,number,numRpt,j,0.5631,noRew,,,,,,0,59,0,59,0,1,,,,,,,,,,,,,,,,,
295225,2022-10-06_17h59.27.936,vts_reward_expectancy,2022.2.4,MacIntel,60.0024001,Chrome,1440,900,,,,,0,630,,,,,,,,,,,,,,,,,S,167,triangle,1,0,,,,,,,,,,,,,,,,switch,letter,lettSwt,f,0.4106,noRew,,,,,,0,60,0,60,0,1,,,,,,,,,,,,,,,,,
295225,2022-10-06_17h59.27.936,vts_reward_expectancy,2022.2.4,MacIntel,60.0024001,Chrome,1440,900,,,,,0,630,,,,,,,,,,,,,,,,,W,125,hexagon,1,0,,,,,,,,,,,,,,,,switch,number,numSwt,j,0.6741,noRew,,,,,,0,61,0,61,0,1,,,,,,,,,,,,,,,,,
295225,2022-10-06_17h59.27.936,vts_reward_expectancy,2022.2.4,MacIntel,60.0024001,Chrome,1440,900,,,,,0,630,,,,,,,,,,,,,,,,,D,160,hexagon,1,0,,,,,,,,,,,,,,,,repeat,number,numRpt,k,0.6313,noRew,,,,,,0,62,0,62,0,1,,,,,,,,,,,,,,,,,
295225,2022-10-06_17h59.27.936,vts_reward_expectancy,2022.2.4,MacIntel,60.0024001,Chrome,1440,900,,,,,0,630,,,,,,,,,,,,,,,,,Y,181,triangle,1,0,,,,,,,,,,,,,,,,repeat,number,numRpt,k,0.6751,noRew,,,,,,0,63,0,63,0,1,,,,,,,,,,,,,,,,,
295225,2022-10-06_17h59.27.936,vts_reward_expectancy,2022.2.4,MacIntel,60.0024001,Chrome,1440,900,,,,,,,,,,,,,,,,,,,,,,,,,,,,,,,,,,,,,,,,,,,,,,,,,,,,,,,,,,,,,,,,,,,,,,,,,,,,
295225,2022-10-06_17h59.27.936,vts_reward_expectancy,2022.2.4,MacIntel,60.0024001,Chrome,1440,900,,,,,0,630,,,,,,,,,,,,,,,,,F,146,triangle,1,0,,,,,,,,,,,,,,,,repeat,number,numRpt,j,0.5936,Hi,,,,,,0,,,,,,space,3.8171,high,0,0,0,0,1,,,,,,,,,
295225,2022-10-06_17h59.27.936,vts_reward_expectancy,2022.2.4,MacIntel,60.0024001,Chrome,1440,900,,,,,0,630,,,,,,,,,,,,,,,,,D,160,star,0,0,,,,,,,,,,,,,,,,switch,letter,NA,f,0.4317,Hi,,,,,,0,,,,,,,,high,1,0,1,0,1,,,,,,,,,
295225,2022-10-06_17h59.27.936,vts_reward_expectancy,2022.2.4,MacIntel,60.0024001,Chrome,1440,900,,,,,10,640,,,,,,,,,,,,,,,,,H,181,triangle,1,1,,,,,,,,,,,,,,,,repeat,letter,lettRpt,d,0.4297,Hi,,,,,,0,,,,,,,,high,2,0,2,0,1,,,,,,,,,
295225,2022-10-06_17h59.27.936,vts_reward_expectancy,2022.2.4,MacIntel,60.0024001,Chrome,1440,900,,,,,1,641,,,,,,,,,,,,,,,,,B,139,star,1,0,,,,,,,,,,,,,,,,switch,number,numSwt,j,0.4485,Lo,,,,,,0,,,,,,,,high,3,0,3,0,1,,,,,,,,,
295225,2022-10-06_17h59.27.936,vts_reward_expectancy,2022.2.4,MacIntel,60.0024001,Chrome,1440,900,,,,,1,642,,,,,,,,,,,,,,,,,S,174,star,1,0,,,,,,,,,,,,,,,,switch,letter,lettSwt,f,0.5629,Lo,,,,,,0,,,,,,,,high,4,0,4,0,1,,,,,,,,,
295225,2022-10-06_17h59.27.936,vts_reward_expectancy,2022.2.4,MacIntel,60.0024001,Chrome,1440,900,,,,,10,652,,,,,,,,,,,,,,,,,Y,167,triangle,1,0,,,,,,,,,,,,,,,,switch,number,numSwt,k,0.4965,Hi,,,,,,0,,,,,,,,high,5,0,5,0,1,,,,,,,,,
295225,2022-10-06_17h59.27.936,vts_reward_expectancy,2022.2.4,MacIntel,60.0024001,Chrome,1440,900,,,,,10,662,,,,,,,,,,,,,,,,,U,125,triangle,1,0,,,,,,,,,,,,,,,,repeat,number,numRpt,j,0.4321,Hi,,,,,,0,,,,,,,,high,6,0,6,0,1,,,,,,,,,
295225,2022-10-06_17h59.27.936,vts_reward_expectancy,2022.2.4,MacIntel,60.0024001,Chrome,1440,900,,,,,10,672,,,,,,,,,,,,,,,,,W,132,star,1,0,,,,,,,,,,,,,,,,switch,letter,lettSwt,f,0.5165,Lo,,,,,,0,,,,,,,,high,7,0,7,0,1,,,,,,,,,
295225,2022-10-06_17h59.27.936,vts_reward_expectancy,2022.2.4,MacIntel,60.0024001,Chrome,1440,900,,,,,0,672,,,,,,,,,,,,,,,,,F,146,triangle,1,0,,,,,,,,,,,,,,,,switch,number,numSwt,j,0.681,Hi,,,,,,0,,,,,,,,high,8,0,8,0,1,,,,,,,,,
295225,2022-10-06_17h59.27.936,vts_reward_expectancy,2022.2.4,MacIntel,60.0024001,Chrome,1440,900,,,,,1,673,,,,,,,,,,,,,,,,,D,160,star,1,0,,,,,,,,,,,,,,,,switch,letter,lettSwt,d,0.4574,Lo,,,,,,0,,,,,,,,high,9,0,9,0,1,,,,,,,,,
295225,2022-10-06_17h59.27.936,vts_reward_expectancy,2022.2.4,MacIntel,60.0024001,Chrome,1440,900,,,,,10,683,,,,,,,,,,,,,,,,,H,181,triangle,1,0,,,,,,,,,,,,,,,,switch,number,numSwt,k,0.4624,Hi,,,,,,0,,,,,,,,high,10,0,10,0,1,,,,,,,,,
295225,2022-10-06_17h59.27.936,vts_reward_expectancy,2022.2.4,MacIntel,60.0024001,Chrome,1440,900,,,,,1,684,,,,,,,,,,,,,,,,,B,139,star,1,0,,,,,,,,,,,,,,,,repeat,number,numRpt,j,0.346,Lo,,,,,,0,,,,,,,,high,11,0,11,0,1,,,,,,,,,
295225,2022-10-06_17h59.27.936,vts_reward_expectancy,2022.2.4,MacIntel,60.0024001,Chrome,1440,900,,,,,0,684,,,,,,,,,,,,,,,,,S,174,star,0,0,,,,,,,,,,,,,,,,switch,letter,NA,d,0.4779,Lo,,,,,,0,,,,,,,,high,12,0,12,0,1,,,,,,,,,
295225,2022-10-06_17h59.27.936,vts_reward_expectancy,2022.2.4,MacIntel,60.0024001,Chrome,1440,900,,,,,0,684,,,,,,,,,,,,,,,,,Y,167,triangle,1,1,,,,,,,,,,,,,,,,repeat,letter,lettRpt,f,0.6056,Hi,,,,,,0,,,,,,,,high,13,0,13,0,1,,,,,,,,,
295225,2022-10-06_17h59.27.936,vts_reward_expectancy,2022.2.4,MacIntel,60.0024001,Chrome,1440,900,,,,,10,694,,,,,,,,,,,,,,,,,U,125,triangle,1,0,,,,,,,,,,,,,,,,switch,number,numSwt,j,0.5097,Hi,,,,,,0,,,,,,,,high,14,0,14,0,1,,,,,,,,,
295225,2022-10-06_17h59.27.936,vts_reward_expectancy,2022.2.4,MacIntel,60.0024001,Chrome,1440,900,,,,,1,695,,,,,,,,,,,,,,,,,W,132,star,1,0,,,,,,,,,,,,,,,,switch,letter,lettSwt,f,0.4645,Lo,,,,,,0,,,,,,,,high,15,0,15,0,1,,,,,,,,,
295225,2022-10-06_17h59.27.936,vts_reward_expectancy,2022.2.4,MacIntel,60.0024001,Chrome,1440,900,,,,,1,696,,,,,,,,,,,,,,,,,F,181,triangle,1,0,,,,,,,,,,,,,,,,repeat,letter,lettRpt,d,0.4641,Hi,,,,,,0,,,,,,,,high,16,0,16,0,1,,,,,,,,,
295225,2022-10-06_17h59.27.936,vts_reward_expectancy,2022.2.4,MacIntel,60.0024001,Chrome,1440,900,,,,,1,697,,,,,,,,,,,,,,,,,S,167,star,1,0,,,,,,,,,,,,,,,,repeat,letter,lettRpt,f,0.6136,Lo,,,,,,0,,,,,,,,high,17,0,17,0,1,,,,,,,,,
295225,2022-10-06_17h59.27.936,vts_reward_expectancy,2022.2.4,MacIntel,60.0024001,Chrome,1440,900,,,,,1,698,,,,,,,,,,,,,,,,,H,132,triangle,1,0,,,,,,,,,,,,,,,,repeat,letter,lettRpt,d,0.4654,Hi,,,,,,0,,,,,,,,high,18,0,18,0,1,,,,,,,,,
295225,2022-10-06_17h59.27.936,vts_reward_expectancy,2022.2.4,MacIntel,60.0024001,Chrome,1440,900,,,,,1,699,,,,,,,,,,,,,,,,,B,146,star,1,0,,,,,,,,,,,,,,,,repeat,letter,lettRpt,d,0.5031,Lo,,,,,,0,,,,,,,,high,19,0,19,0,1,,,,,,,,,
295225,2022-10-06_17h59.27.936,vts_reward_expectancy,2022.2.4,MacIntel,60.0024001,Chrome,1440,900,,,,,10,709,,,,,,,,,,,,,,,,,Y,125,star,1,0,,,,,,,,,,,,,,,,switch,number,numSwt,j,0.3684,Lo,,,,,,0,,,,,,,,high,20,0,20,0,1,,,,,,,,,
295225,2022-10-06_17h59.27.936,vts_reward_expectancy,2022.2.4,MacIntel,60.0024001,Chrome,1440,900,,,,,1,710,,,,,,,,,,,,,,,,,W,160,triangle,1,0,,,,,,,,,,,,,,,,repeat,number,numRpt,k,0.3817,Hi,,,,,,0,,,,,,,,high,21,0,21,0,1,,,,,,,,,
295225,2022-10-06_17h59.27.936,vts_reward_expectancy,2022.2.4,MacIntel,60.0024001,Chrome,1440,900,,,,,10,720,,,,,,,,,,,,,,,,,U,174,triangle,1,0,,,,,,,,,,,,,,,,switch,letter,lettSwt,f,0.4823,Hi,,,,,,0,,,,,,,,high,22,0,22,0,1,,,,,,,,,
295225,2022-10-06_17h59.27.936,vts_reward_expectancy,2022.2.4,MacIntel,60.0024001,Chrome,1440,900,,,,,1,721,,,,,,,,,,,,,,,,,D,139,star,1,0,,,,,,,,,,,,,,,,switch,number,numSwt,j,0.5329,Lo,,,,,,0,,,,,,,,high,23,0,23,0,1,,,,,,,,,
295225,2022-10-06_17h59.27.936,vts_reward_expectancy,2022.2.4,MacIntel,60.0024001,Chrome,1440,900,,,,,1,722,,,,,,,,,,,,,,,,,U,167,star,1,0,,,,,,,,,,,,,,,,switch,letter,lettSwt,f,0.3436,Lo,,,,,,0,,,,,,,,high,24,0,24,0,1,,,,,,,,,
295225,2022-10-06_17h59.27.936,vts_reward_expectancy,2022.2.4,MacIntel,60.0024001,Chrome,1440,900,,,,,1,723,,,,,,,,,,,,,,,,,W,139,triangle,1,0,,,,,,,,,,,,,,,,switch,number,numSwt,j,0.363,Hi,,,,,,0,,,,,,,,high,25,0,25,0,1,,,,,,,,,
295225,2022-10-06_17h59.27.936,vts_reward_expectancy,2022.2.4,MacIntel,60.0024001,Chrome,1440,900,,,,,1,724,,,,,,,,,,,,,,,,,D,146,star,1,0,,,,,,,,,,,,,,,,switch,letter,lettSwt,d,0.6164,Lo,,,,,,0,,,,,,,,high,26,0,26,0,1,,,,,,,,,
295225,2022-10-06_17h59.27.936,vts_reward_expectancy,2022.2.4,MacIntel,60.0024001,Chrome,1440,900,,,,,10,734,,,,,,,,,,,,,,,,,Y,160,triangle,1,0,,,,,,,,,,,,,,,,repeat,letter,lettRpt,f,0.4895,Hi,,,,,,0,,,,,,,,high,27,0,27,0,1,,,,,,,,,
295225,2022-10-06_17h59.27.936,vts_reward_expectancy,2022.2.4,MacIntel,60.0024001,Chrome,1440,900,,,,,1,735,,,,,,,,,,,,,,,,,H,132,star,1,0,,,,,,,,,,,,,,,,repeat,letter,lettRpt,d,0.4467,Lo,,,,,,0,,,,,,,,high,28,0,28,0,1,,,,,,,,,
295225,2022-10-06_17h59.27.936,vts_reward_expectancy,2022.2.4,MacIntel,60.0024001,Chrome,1440,900,,,,,0,735,,,,,,,,,,,,,,,,,F,125,triangle,1,0,,,,,,,,,,,,,,,,repeat,letter,lettRpt,d,0.6412,Hi,,,,,,0,,,,,,,,high,29,0,29,0,1,,,,,,,,,
295225,2022-10-06_17h59.27.936,vts_reward_expectancy,2022.2.4,MacIntel,60.0024001,Chrome,1440,900,,,,,1,736,,,,,,,,,,,,,,,,,B,181,star,1,0,,,,,,,,,,,,,,,,switch,number,numSwt,k,0.3748,Lo,,,,,,0,,,,,,,,high,30,0,30,0,1,,,,,,,,,
295225,2022-10-06_17h59.27.936,vts_reward_expectancy,2022.2.4,MacIntel,60.0024001,Chrome,1440,900,,,,,10,746,,,,,,,,,,,,,,,,,S,174,triangle,1,0,,,,,,,,,,,,,,,,switch,letter,lettSwt,f,0.4754,Hi,,,,,,0,,,,,,,,high,31,0,31,0,1,,,,,,,,,
295225,2022-10-06_17h59.27.936,vts_reward_expectancy,2022.2.4,MacIntel,60.0024001,Chrome,1440,900,,,,,0,746,,,,,,,,,,,,,,,,,B,132,circle,1,0,,,,,,,,,,,,,,,,repeat,letter,lettRpt,d,1.9298,Hi,,,,,,1,,,,,,space,40.142,low,0,0,0,0,1,,,,,,,,,
295225,2022-10-06_17h59.27.936,vts_reward_expectancy,2022.2.4,MacIntel,60.0024001,Chrome,1440,900,,,,,1,747,,,,,,,,,,,,,,,,,Y,125,hexagon,1,0,,,,,,,,,,,,,,,,repeat,letter,lettRpt,f,0.7578,Lo,,,,,,1,,,,,,,,low,1,0,1,0,1,,,,,,,,,
295225,2022-10-06_17h59.27.936,vts_reward_expectancy,2022.2.4,MacIntel,60.0024001,Chrome,1440,900,,,,,0,747,,,,,,,,,,,,,,,,,W,160,circle,1,0,,,,,,,,,,,,,,,,repeat,letter,lettRpt,f,0.7817,Hi,,,,,,1,,,,,,,,low,2,0,2,0,1,,,,,,,,,
295225,2022-10-06_17h59.27.936,vts_reward_expectancy,2022.2.4,MacIntel,60.0024001,Chrome,1440,900,,,,,1,748,,,,,,,,,,,,,,,,,S,146,hexagon,1,0,,,,,,,,,,,,,,,,repeat,letter,lettRpt,f,0.6424,Lo,,,,,,1,,,,,,,,low,3,0,3,0,1,,,,,,,,,
295225,2022-10-06_17h59.27.936,vts_reward_expectancy,2022.2.4,MacIntel,60.0024001,Chrome,1440,900,,,,,0,748,,,,,,,,,,,,,,,,,H,181,circle,0,0,,,,,,,,,,,,,,,,repeat,letter,NA,f,0.8429,Lo,,,,,,1,,,,,,,,low,4,0,4,0,1,,,,,,,,,
295225,2022-10-06_17h59.27.936,vts_reward_expectancy,2022.2.4,MacIntel,60.0024001,Chrome,1440,900,,,,,10,758,,,,,,,,,,,,,,,,,U,167,hexagon,1,1,,,,,,,,,,,,,,,,switch,number,numSwt,k,0.5758,Lo,,,,,,1,,,,,,,,low,5,0,5,0,1,,,,,,,,,
295225,2022-10-06_17h59.27.936,vts_reward_expectancy,2022.2.4,MacIntel,60.0024001,Chrome,1440,900,,,,,10,768,,,,,,,,,,,,,,,,,D,139,hexagon,1,0,,,,,,,,,,,,,,,,switch,letter,lettSwt,d,0.5911,Lo,,,,,,1,,,,,,,,low,6,0,6,0,1,,,,,,,,,
295225,2022-10-06_17h59.27.936,vts_reward_expectancy,2022.2.4,MacIntel,60.0024001,Chrome,1440,900,,,,,0,768,,,,,,,,,,,,,,,,,F,174,circle,1,0,,,,,,,,,,,,,,,,switch,number,numSwt,k,0.6146,Hi,,,,,,1,,,,,,,,low,7,0,7,0,1,,,,,,,,,
295225,2022-10-06_17h59.27.936,vts_reward_expectancy,2022.2.4,MacIntel,60.0024001,Chrome,1440,900,,,,,1,769,,,,,,,,,,,,,,,,,B,132,hexagon,1,0,,,,,,,,,,,,,,,,switch,letter,lettSwt,d,0.5646,Lo,,,,,,1,,,,,,,,low,8,0,8,0,1,,,,,,,,,
295225,2022-10-06_17h59.27.936,vts_reward_expectancy,2022.2.4,MacIntel,60.0024001,Chrome,1440,900,,,,,1,770,,,,,,,,,,,,,,,,,Y,125,circle,1,0,,,,,,,,,,,,,,,,repeat,letter,lettRpt,f,0.4317,Hi,,,,,,1,,,,,,,,low,9,0,9,0,1,,,,,,,,,
295225,2022-10-06_17h59.27.936,vts_reward_expectancy,2022.2.4,MacIntel,60.0024001,Chrome,1440,900,,,,,1,771,,,,,,,,,,,,,,,,,W,160,hexagon,1,0,,,,,,,,,,,,,,,,repeat,letter,lettRpt,f,0.4772,Lo,,,,,,1,,,,,,,,low,10,0,10,0,1,,,,,,,,,
295225,2022-10-06_17h59.27.936,vts_reward_expectancy,2022.2.4,MacIntel,60.0024001,Chrome,1440,900,,,,,0,771,,,,,,,,,,,,,,,,,S,146,circle,1,0,,,,,,,,,,,,,,,,switch,number,numSwt,j,0.7325,Hi,,,,,,1,,,,,,,,low,11,0,11,0,1,,,,,,,,,
295225,2022-10-06_17h59.27.936,vts_reward_expectancy,2022.2.4,MacIntel,60.0024001,Chrome,1440,900,,,,,0,771,,,,,,,,,,,,,,,,,H,181,circle,1,0,,,,,,,,,,,,,,,,switch,letter,lettSwt,d,0.6645,Hi,,,,,,1,,,,,,,,low,12,0,12,0,1,,,,,,,,,
295225,2022-10-06_17h59.27.936,vts_reward_expectancy,2022.2.4,MacIntel,60.0024001,Chrome,1440,900,,,,,0,771,,,,,,,,,,,,,,,,,U,167,hexagon,0,0,,,,,,,,,,,,,,,,switch,number,NA,j,0.3304,Hi,,,,,,1,,,,,,,,low,13,0,13,0,1,,,,,,,,,
295225,2022-10-06_17h59.27.936,vts_reward_expectancy,2022.2.4,MacIntel,60.0024001,Chrome,1440,900,,,,,1,772,,,,,,,,,,,,,,,,,D,139,hexagon,1,1,,,,,,,,,,,,,,,,repeat,number,numRpt,j,0.5137,Lo,,,,,,1,,,,,,,,low,14,0,14,0,1,,,,,,,,,
295225,2022-10-06_17h59.27.936,vts_reward_expectancy,2022.2.4,MacIntel,60.0024001,Chrome,1440,900,,,,,0,772,,,,,,,,,,,,,,,,,F,174,circle,1,0,,,,,,,,,,,,,,,,switch,letter,lettSwt,d,0.4812,Hi,,,,,,1,,,,,,,,low,15,0,15,0,1,,,,,,,,,
295225,2022-10-06_17h59.27.936,vts_reward_expectancy,2022.2.4,MacIntel,60.0024001,Chrome,1440,900,,,,,10,782,,,,,,,,,,,,,,,,,D,146,hexagon,1,0,,,,,,,,,,,,,,,,switch,number,numSwt,j,0.3453,Lo,,,,,,1,,,,,,,,low,16,0,16,0,1,,,,,,,,,
295225,2022-10-06_17h59.27.936,vts_reward_expectancy,2022.2.4,MacIntel,60.0024001,Chrome,1440,900,,,,,0,782,,,,,,,,,,,,,,,,,U,160,circle,0,0,,,,,,,,,,,,,,,,switch,letter,NA,d,0.3627,Lo,,,,,,1,,,,,,,,low,17,0,17,0,1,,,,,,,,,
295225,2022-10-06_17h59.27.936,vts_reward_expectancy,2022.2.4,MacIntel,60.0024001,Chrome,1440,900,,,,,0,782,,,,,,,,,,,,,,,,,B,125,circle,1,1,,,,,,,,,,,,,,,,switch,number,numSwt,j,0.4392,Hi,,,,,,1,,,,,,,,low,18,0,18,0,1,,,,,,,,,
295225,2022-10-06_17h59.27.936,vts_reward_expectancy,2022.2.4,MacIntel,60.0024001,Chrome,1440,900,,,,,10,792,,,,,,,,,,,,,,,,,H,174,hexagon,1,0,,,,,,,,,,,,,,,,repeat,number,numRpt,k,0.565,Lo,,,,,,1,,,,,,,,low,19,0,19,0,1,,,,,,,,,
295225,2022-10-06_17h59.27.936,vts_reward_expectancy,2022.2.4,MacIntel,60.0024001,Chrome,1440,900,,,,,0,792,,,,,,,,,,,,,,,,,Y,167,hexagon,0,0,,,,,,,,,,,,,,,,switch,letter,NA,d,0.3656,Lo,,,,,,1,,,,,,,,low,20,0,20,0,1,,,,,,,,,
295225,2022-10-06_17h59.27.936,vts_reward_expectancy,2022.2.4,MacIntel,60.0024001,Chrome,1440,900,,,,,0,792,,,,,,,,,,,,,,,,,S,139,circle,1,1,,,,,,,,,,,,,,,,switch,number,numSwt,j,0.4306,Hi,,,,,,1,,,,,,,,low,21,0,21,0,1,,,,,,,,,
295225,2022-10-06_17h59.27.936,vts_reward_expectancy,2022.2.4,MacIntel,60.0024001,Chrome,1440,900,,,,,10,802,,,,,,,,,,,,,,,,,F,132,circle,1,0,,,,,,,,,,,,,,,,switch,letter,lettSwt,d,0.4091,Hi,,,,,,1,,,,,,,,low,22,0,22,0,1,,,,,,,,,
295225,2022-10-06_17h59.27.936,vts_reward_expectancy,2022.2.4,MacIntel,60.0024001,Chrome,1440,900,,,,,10,812,,,,,,,,,,,,,,,,,W,181,hexagon,1,0,,,,,,,,,,,,,,,,switch,number,numSwt,k,0.3425,Lo,,,,,,1,,,,,,,,low,23,0,23,0,1,,,,,,,,,
295225,2022-10-06_17h59.27.936,vts_reward_expectancy,2022.2.4,MacIntel,60.0024001,Chrome,1440,900,,,,,0,812,,,,,,,,,,,,,,,,,D,167,hexagon,0,0,,,,,,,,,,,,,,,,switch,letter,NA,f,0.3302,Lo,,,,,,1,,,,,,,,low,24,0,24,0,1,,,,,,,,,
295225,2022-10-06_17h59.27.936,vts_reward_expectancy,2022.2.4,MacIntel,60.0024001,Chrome,1440,900,,,,,0,812,,,,,,,,,,,,,,,,,S,146,circle,0,1,,,,,,,,,,,,,,,,repeat,letter,NA,d,0.5455,Lo,,,,,,1,,,,,,,,low,25,0,25,0,1,,,,,,,,,
295225,2022-10-06_17h59.27.936,vts_reward_expectancy,2022.2.4,MacIntel,60.0024001,Chrome,1440,900,,,,,0,812,,,,,,,,,,,,,,,,,W,132,circle,1,1,,,,,,,,,,,,,,,,switch,number,numSwt,j,0.457,Hi,,,,,,1,,,,,,,,low,26,0,26,0,1,,,,,,,,,
295225,2022-10-06_17h59.27.936,vts_reward_expectancy,2022.2.4,MacIntel,60.0024001,Chrome,1440,900,,,,,10,822,,,,,,,,,,,,,,,,,F,174,hexagon,1,0,,,,,,,,,,,,,,,,repeat,number,numRpt,k,0.331,Lo,,,,,,1,,,,,,,,low,27,0,27,0,1,,,,,,,,,
295225,2022-10-06_17h59.27.936,vts_reward_expectancy,2022.2.4,MacIntel,60.0024001,Chrome,1440,900,,,,,1,823,,,,,,,,,,,,,,,,,U,125,hexagon,1,0,,,,,,,,,,,,,,,,repeat,number,numRpt,j,0.3444,Lo,,,,,,1,,,,,,,,low,28,0,28,0,1,,,,,,,,,
295225,2022-10-06_17h59.27.936,vts_reward_expectancy,2022.2.4,MacIntel,60.0024001,Chrome,1440,900,,,,,0,823,,,,,,,,,,,,,,,,,H,160,circle,0,0,,,,,,,,,,,,,,,,switch,letter,NA,f,0.3906,Lo,,,,,,1,,,,,,,,low,29,0,29,0,1,,,,,,,,,
295225,2022-10-06_17h59.27.936,vts_reward_expectancy,2022.2.4,MacIntel,60.0024001,Chrome,1440,900,,,,,1,824,,,,,,,,,,,,,,,,,B,139,circle,1,1,,,,,,,,,,,,,,,,switch,number,numSwt,j,0.3307,Hi,,,,,,1,,,,,,,,low,30,0,30,0,1,,,,,,,,,
295225,2022-10-06_17h59.27.936,vts_reward_expectancy,2022.2.4,MacIntel,60.0024001,Chrome,1440,900,,,,,1,825,,,,,,,,,,,,,,,,,Y,181,hexagon,1,0,,,,,,,,,,,,,,,,repeat,number,numRpt,k,0.3581,Lo,,,,,,1,,,,,,,,low,31,0,31,0,1,,,,,,,,,
295225,2022-10-06_17h59.27.936,vts_reward_expectancy,2022.2.4,MacIntel,60.0024001,Chrome,1440,900,,,,,10,835,,,,,,,,,,,,,,,,,U,125,triangle,1,0,,,,,,,,,,,,,,,,switch,letter,lettSwt,f,0.3597,Hi,,,,,,2,,,,,,space,20.0424,high,0,0,0,0,1,,,,,,,,,
295225,2022-10-06_17h59.27.936,vts_reward_expectancy,2022.2.4,MacIntel,60.0024001,Chrome,1440,900,,,,,1,836,,,,,,,,,,,,,,,,,S,139,star,1,0,,,,,,,,,,,,,,,,switch,number,numSwt,j,0.3948,Lo,,,,,,2,,,,,,,,high,1,0,1,0,1,,,,,,,,,
295225,2022-10-06_17h59.27.936,vts_reward_expectancy,2022.2.4,MacIntel,60.0024001,Chrome,1440,900,,,,,0,836,,,,,,,,,,,,,,,,,D,132,triangle,1,0,,,,,,,,,,,,,,,,repeat,number,numRpt,j,0.482,Hi,,,,,,2,,,,,,,,high,2,0,2,0,1,,,,,,,,,
295225,2022-10-06_17h59.27.936,vts_reward_expectancy,2022.2.4,MacIntel,60.0024001,Chrome,1440,900,,,,,10,846,,,,,,,,,,,,,,,,,H,146,star,1,0,,,,,,,,,,,,,,,,switch,letter,lettSwt,d,0.3322,Lo,,,,,,2,,,,,,,,high,3,0,3,0,1,,,,,,,,,
295225,2022-10-06_17h59.27.936,vts_reward_expectancy,2022.2.4,MacIntel,60.0024001,Chrome,1440,900,,,,,0,846,,,,,,,,,,,,,,,,,Y,167,triangle,0,0,,,,,,,,,,,,,,,,repeat,letter,NA,d,0.4991,Lo,,,,,,2,,,,,,,,high,4,0,4,0,1,,,,,,,,,
295225,2022-10-06_17h59.27.936,vts_reward_expectancy,2022.2.4,MacIntel,60.0024001,Chrome,1440,900,,,,,1,847,,,,,,,,,,,,,,,,,B,160,star,1,1,,,,,,,,,,,,,,,,repeat,letter,lettRpt,d,0.3452,Lo,,,,,,2,,,,,,,,high,5,0,5,0,1,,,,,,,,,
295225,2022-10-06_17h59.27.936,vts_reward_expectancy,2022.2.4,MacIntel,60.0024001,Chrome,1440,900,,,,,1,848,,,,,,,,,,,,,,,,,F,174,triangle,1,0,,,,,,,,,,,,,,,,repeat,letter,lettRpt,d,0.4425,Hi,,,,,,2,,,,,,,,high,6,0,6,0,1,,,,,,,,,
295225,2022-10-06_17h59.27.936,vts_reward_expectancy,2022.2.4,MacIntel,60.0024001,Chrome,1440,900,,,,,1,849,,,,,,,,,,,,,,,,,W,181,star,1,0,,,,,,,,,,,,,,,,repeat,letter,lettRpt,f,0.3578,Lo,,,,,,2,,,,,,,,high,7,0,7,0,1,,,,,,,,,
295225,2022-10-06_17h59.27.936,vts_reward_expectancy,2022.2.4,MacIntel,60.0024001,Chrome,1440,900,,,,,0,849,,,,,,,,,,,,,,,,,U,125,triangle,0,0,,,,,,,,,,,,,,,,repeat,letter,NA,d,0.3325,Lo,,,,,,2,,,,,,,,high,8,0,8,0,1,,,,,,,,,
295225,2022-10-06_17h59.27.936,vts_reward_expectancy,2022.2.4,MacIntel,60.0024001,Chrome,1440,900,,,,,1,850,,,,,,,,,,,,,,,,,S,139,star,1,1,,,,,,,,,,,,,,,,switch,number,numSwt,j,0.3636,Lo,,,,,,2,,,,,,,,high,9,0,9,0,1,,,,,,,,,
295225,2022-10-06_17h59.27.936,vts_reward_expectancy,2022.2.4,MacIntel,60.0024001,Chrome,1440,900,,,,,10,860,,,,,,,,,,,,,,,,,D,132,triangle,1,0,,,,,,,,,,,,,,,,repeat,number,numRpt,j,0.317,Hi,,,,,,2,,,,,,,,high,10,0,10,0,1,,,,,,,,,
295225,2022-10-06_17h59.27.936,vts_reward_expectancy,2022.2.4,MacIntel,60.0024001,Chrome,1440,900,,,,,10,870,,,,,,,,,,,,,,,,,H,146,star,1,0,,,,,,,,,,,,,,,,switch,letter,lettSwt,d,0.4456,Lo,,,,,,2,,,,,,,,high,11,0,11,0,1,,,,,,,,,
295225,2022-10-06_17h59.27.936,vts_reward_expectancy,2022.2.4,MacIntel,60.0024001,Chrome,1440,900,,,,,0,870,,,,,,,,,,,,,,,,,Y,167,star,0,0,,,,,,,,,,,,,,,,switch,number,NA,j,0.3117,Lo,,,,,,2,,,,,,,,high,12,0,12,0,1,,,,,,,,,
295225,2022-10-06_17h59.27.936,vts_reward_expectancy,2022.2.4,MacIntel,60.0024001,Chrome,1440,900,,,,,0,870,,,,,,,,,,,,,,,,,B,160,triangle,0,1,,,,,,,,,,,,,,,,repeat,number,NA,j,0.3807,Lo,,,,,,2,,,,,,,,high,13,0,13,0,1,,,,,,,,,
295225,2022-10-06_17h59.27.936,vts_reward_expectancy,2022.2.4,MacIntel,60.0024001,Chrome,1440,900,,,,,0,870,,,,,,,,,,,,,,,,,F,174,triangle,0,1,,,,,,,,,,,,,,,,switch,letter,NA,f,0.3284,Lo,,,,,,2,,,,,,,,high,14,0,14,0,1,,,,,,,,,
295225,2022-10-06_17h59.27.936,vts_reward_expectancy,2022.2.4,MacIntel,60.0024001,Chrome,1440,900,,,,,1,871,,,,,,,,,,,,,,,,,W,181,star,1,1,,,,,,,,,,,,,,,,switch,number,numSwt,k,0.4461,Lo,,,,,,2,,,,,,,,high,15,0,15,0,1,,,,,,,,,
295225,2022-10-06_17h59.27.936,vts_reward_expectancy,2022.2.4,MacIntel,60.0024001,Chrome,1440,900,,,,,0,871,,,,,,,,,,,,,,,,,H,146,triangle,1,0,,,,,,,,,,,,,,,,repeat,number,numRpt,j,0.3947,Hi,,,,,,2,,,,,,,,high,16,0,16,0,1,,,,,,,,,
295225,2022-10-06_17h59.27.936,vts_reward_expectancy,2022.2.4,MacIntel,60.0024001,Chrome,1440,900,,,,,1,872,,,,,,,,,,,,,,,,,Y,160,star,1,0,,,,,,,,,,,,,,,,repeat,number,numRpt,k,0.3963,Lo,,,,,,2,,,,,,,,high,17,0,17,0,1,,,,,,,,,
295225,2022-10-06_17h59.27.936,vts_reward_expectancy,2022.2.4,MacIntel,60.0024001,Chrome,1440,900,,,,,0,872,,,,,,,,,,,,,,,,,U,139,triangle,0,0,,,,,,,,,,,,,,,,repeat,number,NA,k,0.3667,Lo,,,,,,2,,,,,,,,high,18,0,18,0,1,,,,,,,,,
295225,2022-10-06_17h59.27.936,vts_reward_expectancy,2022.2.4,MacIntel,60.0024001,Chrome,1440,900,,,,,1,873,,,,,,,,,,,,,,,,,B,181,star,1,1,,,,,,,,,,,,,,,,switch,letter,lettSwt,d,0.4082,Lo,,,,,,2,,,,,,,,high,19,0,19,0,1,,,,,,,,,
295225,2022-10-06_17h59.27.936,vts_reward_expectancy,2022.2.4,MacIntel,60.0024001,Chrome,1440,900,,,,,1,874,,,,,,,,,,,,,,,,,D,167,star,1,0,,,,,,,,,,,,,,,,switch,number,numSwt,k,0.4095,Lo,,,,,,2,,,,,,,,high,20,0,20,0,1,,,,,,,,,
295225,2022-10-06_17h59.27.936,vts_reward_expectancy,2022.2.4,MacIntel,60.0024001,Chrome,1440,900,,,,,10,884,,,,,,,,,,,,,,,,,F,174,triangle,1,0,,,,,,,,,,,,,,,,switch,letter,lettSwt,d,0.379,Hi,,,,,,2,,,,,,,,high,21,0,21,0,1,,,,,,,,,
295225,2022-10-06_17h59.27.936,vts_reward_expectancy,2022.2.4,MacIntel,60.0024001,Chrome,1440,900,,,,,0,884,,,,,,,,,,,,,,,,,S,132,triangle,1,0,,,,,,,,,,,,,,,,switch,number,numSwt,j,0.4603,Hi,,,,,,2,,,,,,,,high,22,0,22,0,1,,,,,,,,,
295225,2022-10-06_17h59.27.936,vts_reward_expectancy,2022.2.4,MacIntel,60.0024001,Chrome,1440,900,,,,,10,894,,,,,,,,,,,,,,,,,W,125,star,1,0,,,,,,,,,,,,,,,,repeat,number,numRpt,j,0.2995,Lo,,,,,,2,,,,,,,,high,23,0,23,0,1,,,,,,,,,
295225,2022-10-06_17h59.27.936,vts_reward_expectancy,2022.2.4,MacIntel,60.0024001,Chrome,1440,900,,,,,1,895,,,,,,,,,,,,,,,,,H,132,star,1,0,,,,,,,,,,,,,,,,repeat,number,numRpt,j,0.3455,Lo,,,,,,2,,,,,,,,high,24,0,24,0,1,,,,,,,,,
295225,2022-10-06_17h59.27.936,vts_reward_expectancy,2022.2.4,MacIntel,60.0024001,Chrome,1440,900,,,,,0,895,,,,,,,,,,,,,,,,,F,167,triangle,1,0,,,,,,,,,,,,,,,,repeat,number,numRpt,k,0.4317,Hi,,,,,,2,,,,,,,,high,25,0,25,0,1,,,,,,,,,
295225,2022-10-06_17h59.27.936,vts_reward_expectancy,2022.2.4,MacIntel,60.0024001,Chrome,1440,900,,,,,1,896,,,,,,,,,,,,,,,,,D,125,star,1,0,,,,,,,,,,,,,,,,repeat,number,numRpt,j,0.3432,Lo,,,,,,2,,,,,,,,high,26,0,26,0,1,,,,,,,,,
295225,2022-10-06_17h59.27.936,vts_reward_expectancy,2022.2.4,MacIntel,60.0024001,Chrome,1440,900,,,,,0,896,,,,,,,,,,,,,,,,,S,139,triangle,0,0,,,,,,,,,,,,,,,,switch,letter,NA,d,0.3442,Lo,,,,,,2,,,,,,,,high,27,0,27,0,1,,,,,,,,,
295225,2022-10-06_17h59.27.936,vts_reward_expectancy,2022.2.4,MacIntel,60.0024001,Chrome,1440,900,,,,,0,896,,,,,,,,,,,,,,,,,U,174,star,0,1,,,,,,,,,,,,,,,,switch,number,NA,j,0.4405,Lo,,,,,,2,,,,,,,,high,28,0,28,0,1,,,,,,,,,
295225,2022-10-06_17h59.27.936,vts_reward_expectancy,2022.2.4,MacIntel,60.0024001,Chrome,1440,900,,,,,0,896,,,,,,,,,,,,,,,,,Y,146,triangle,1,1,,,,,,,,,,,,,,,,repeat,number,numRpt,j,0.565,Hi,,,,,,2,,,,,,,,high,29,0,29,0,1,,,,,,,,,
295225,2022-10-06_17h59.27.936,vts_reward_expectancy,2022.2.4,MacIntel,60.0024001,Chrome,1440,900,,,,,0,896,,,,,,,,,,,,,,,,,B,181,triangle,0,0,,,,,,,,,,,,,,,,repeat,number,NA,j,0.3161,Hi,,,,,,2,,,,,,,,high,30,0,30,0,1,,,,,,,,,
295225,2022-10-06_17h59.27.936,vts_reward_expectancy,2022.2.4,MacIntel,60.0024001,Chrome,1440,900,,,,,0,896,,,,,,,,,,,,,,,,,W,160,star,0,1,,,,,,,,,,,,,,,,repeat,number,NA,j,0.3112,Hi,,,,,,2,,,,,,,,high,31,0,31,0,1,,,,,,,,,
295225,2022-10-06_17h59.27.936,vts_reward_expectancy,2022.2.4,MacIntel,60.0024001,Chrome,1440,900,,,,,1,897,,,,,,,,,,,,,,,,,B,125,hexagon,1,1,,,,,,,,,,,,,,,,switch,letter,lettSwt,d,0.5918,Lo,,,,,,3,,,,,,space,2.1788,low,0,0,0,0,1,,,,,,,,,
295225,2022-10-06_17h59.27.936,vts_reward_expectancy,2022.2.4,MacIntel,60.0024001,Chrome,1440,900,,,,,10,907,,,,,,,,,,,,,,,,,W,181,circle,1,0,,,,,,,,,,,,,,,,repeat,letter,lettRpt,f,0.3308,Hi,,,,,,3,,,,,,,,low,1,0,1,0,1,,,,,,,,,
295225,2022-10-06_17h59.27.936,vts_reward_expectancy,2022.2.4,MacIntel,60.0024001,Chrome,1440,900,,,,,1,908,,,,,,,,,,,,,,,,,F,174,hexagon,1,0,,,,,,,,,,,,,,,,switch,number,numSwt,k,0.3417,Lo,,,,,,3,,,,,,,,low,2,0,2,0,1,,,,,,,,,
295225,2022-10-06_17h59.27.936,vts_reward_expectancy,2022.2.4,MacIntel,60.0024001,Chrome,1440,900,,,,,0,908,,,,,,,,,,,,,,,,,D,167,circle,0,0,,,,,,,,,,,,,,,,repeat,number,NA,j,0.3283,Lo,,,,,,3,,,,,,,,low,3,0,3,0,1,,,,,,,,,
295225,2022-10-06_17h59.27.936,vts_reward_expectancy,2022.2.4,MacIntel,60.0024001,Chrome,1440,900,,,,,1,909,,,,,,,,,,,,,,,,,S,139,hexagon,1,1,,,,,,,,,,,,,,,,repeat,number,numRpt,j,0.6469,Lo,,,,,,3,,,,,,,,low,4,0,4,0,1,,,,,,,,,
295225,2022-10-06_17h59.27.936,vts_reward_expectancy,2022.2.4,MacIntel,60.0024001,Chrome,1440,900,,,,,1,910,,,,,,,,,,,,,,,,,Y,146,circle,1,0,,,,,,,,,,,,,,,,repeat,number,numRpt,j,0.2813,Hi,,,,,,3,,,,,,,,low,5,0,5,0,1,,,,,,,,,
295225,2022-10-06_17h59.27.936,vts_reward_expectancy,2022.2.4,MacIntel,60.0024001,Chrome,1440,900,,,,,0,910,,,,,,,,,,,,,,,,,U,132,circle,1,0,,,,,,,,,,,,,,,,repeat,number,numRpt,j,0.3608,Hi,,,,,,3,,,,,,,,low,6,0,6,0,1,,,,,,,,,
295225,2022-10-06_17h59.27.936,vts_reward_expectancy,2022.2.4,MacIntel,60.0024001,Chrome,1440,900,,,,,0,910,,,,,,,,,,,,,,,,,H,160,hexagon,0,0,,,,,,,,,,,,,,,,repeat,number,NA,j,0.4001,Hi,,,,,,3,,,,,,,,low,7,0,7,0,1,,,,,,,,,
295225,2022-10-06_17h59.27.936,vts_reward_expectancy,2022.2.4,MacIntel,60.0024001,Chrome,1440,900,,,,,0,910,,,,,,,,,,,,,,,,,B,125,hexagon,0,1,,,,,,,,,,,,,,,,repeat,number,NA,k,0.3453,Hi,,,,,,3,,,,,,,,low,8,0,8,0,1,,,,,,,,,
295225,2022-10-06_17h59.27.936,vts_reward_expectancy,2022.2.4,MacIntel,60.0024001,Chrome,1440,900,,,,,0,910,,,,,,,,,,,,,,,,,W,181,circle,1,1,,,,,,,,,,,,,,,,repeat,number,numRpt,k,0.3916,Hi,,,,,,3,,,,,,,,low,9,0,9,0,1,,,,,,,,,
295225,2022-10-06_17h59.27.936,vts_reward_expectancy,2022.2.4,MacIntel,60.0024001,Chrome,1440,900,,,,,0,910,,,,,,,,,,,,,,,,,F,174,circle,0,0,,,,,,,,,,,,,,,,repeat,number,NA,j,0.3154,Hi,,,,,,3,,,,,,,,low,10,0,10,0,1,,,,,,,,,
295225,2022-10-06_17h59.27.936,vts_reward_expectancy,2022.2.4,MacIntel,60.0024001,Chrome,1440,900,,,,,10,920,,,,,,,,,,,,,,,,,D,167,hexagon,1,1,,,,,,,,,,,,,,,,repeat,number,numRpt,k,0.3578,Lo,,,,,,3,,,,,,,,low,11,0,11,0,1,,,,,,,,,
295225,2022-10-06_17h59.27.936,vts_reward_expectancy,2022.2.4,MacIntel,60.0024001,Chrome,1440,900,,,,,0,920,,,,,,,,,,,,,,,,,S,139,circle,1,0,,,,,,,,,,,,,,,,repeat,number,numRpt,j,0.4077,Hi,,,,,,3,,,,,,,,low,12,0,12,0,1,,,,,,,,,
295225,2022-10-06_17h59.27.936,vts_reward_expectancy,2022.2.4,MacIntel,60.0024001,Chrome,1440,900,,,,,10,930,,,,,,,,,,,,,,,,,Y,146,hexagon,1,0,,,,,,,,,,,,,,,,switch,letter,lettSwt,f,0.5751,Lo,,,,,,3,,,,,,,,low,13,0,13,0,1,,,,,,,,,
295225,2022-10-06_17h59.27.936,vts_reward_expectancy,2022.2.4,MacIntel,60.0024001,Chrome,1440,900,,,,,0,930,,,,,,,,,,,,,,,,,U,132,circle,0,0,,,,,,,,,,,,,,,,switch,number,NA,k,0.3409,Lo,,,,,,3,,,,,,,,low,14,0,14,0,1,,,,,,,,,
295225,2022-10-06_17h59.27.936,vts_reward_expectancy,2022.2.4,MacIntel,60.0024001,Chrome,1440,900,,,,,0,930,,,,,,,,,,,,,,,,,H,160,hexagon,0,1,,,,,,,,,,,,,,,,switch,letter,NA,f,0.4108,Lo,,,,,,3,,,,,,,,low,15,0,15,0,1,,,,,,,,,
295225,2022-10-06_17h59.27.936,vts_reward_expectancy,2022.2.4,MacIntel,60.0024001,Chrome,1440,900,,,,,10,940,,,,,,,,,,,,,,,,,W,160,circle,1,1,,,,,,,,,,,,,,,,repeat,letter,lettRpt,f,0.3288,Hi,,,,,,3,,,,,,,,low,16,0,16,0,1,,,,,,,,,
295225,2022-10-06_17h59.27.936,vts_reward_expectancy,2022.2.4,MacIntel,60.0024001,Chrome,1440,900,,,,,0,940,,,,,,,,,,,,,,,,,Y,181,hexagon,0,0,,,,,,,,,,,,,,,,repeat,letter,NA,d,0.3131,Hi,,,,,,3,,,,,,,,low,17,0,17,0,1,,,,,,,,,
295225,2022-10-06_17h59.27.936,vts_reward_expectancy,2022.2.4,MacIntel,60.0024001,Chrome,1440,900,,,,,0,940,,,,,,,,,,,,,,,,,H,146,circle,0,1,,,,,,,,,,,,,,,,switch,number,NA,k,0.3784,Hi,,,,,,3,,,,,,,,low,18,0,18,0,1,,,,,,,,,
295225,2022-10-06_17h59.27.936,vts_reward_expectancy,2022.2.4,MacIntel,60.0024001,Chrome,1440,900,,,,,1,941,,,,,,,,,,,,,,,,,U,167,hexagon,1,1,,,,,,,,,,,,,,,,repeat,number,numRpt,k,0.3977,Lo,,,,,,3,,,,,,,,low,19,0,19,0,1,,,,,,,,,
295225,2022-10-06_17h59.27.936,vts_reward_expectancy,2022.2.4,MacIntel,60.0024001,Chrome,1440,900,,,,,0,941,,,,,,,,,,,,,,,,,F,139,circle,0,0,,,,,,,,,,,,,,,,switch,letter,NA,f,0.3162,Lo,,,,,,3,,,,,,,,low,20,0,20,0,1,,,,,,,,,
295225,2022-10-06_17h59.27.936,vts_reward_expectancy,2022.2.4,MacIntel,60.0024001,Chrome,1440,900,,,,,1,942,,,,,,,,,,,,,,,,,B,132,hexagon,1,1,,,,,,,,,,,,,,,,repeat,letter,lettRpt,d,0.4656,Lo,,,,,,3,,,,,,,,low,21,0,21,0,1,,,,,,,,,
295225,2022-10-06_17h59.27.936,vts_reward_expectancy,2022.2.4,MacIntel,60.0024001,Chrome,1440,900,,,,,0,942,,,,,,,,,,,,,,,,,S,125,circle,0,0,,,,,,,,,,,,,,,,repeat,letter,NA,d,0.4059,Lo,,,,,,3,,,,,,,,low,22,0,22,0,1,,,,,,,,,
295225,2022-10-06_17h59.27.936,vts_reward_expectancy,2022.2.4,MacIntel,60.0024001,Chrome,1440,900,,,,,1,943,,,,,,,,,,,,,,,,,D,174,hexagon,1,1,,,,,,,,,,,,,,,,switch,number,numSwt,k,0.3702,Lo,,,,,,3,,,,,,,,low,23,0,23,0,1,,,,,,,,,
295225,2022-10-06_17h59.27.936,vts_reward_expectancy,2022.2.4,MacIntel,60.0024001,Chrome,1440,900,,,,,0,943,,,,,,,,,,,,,,,,,H,167,hexagon,0,0,,,,,,,,,,,,,,,,repeat,number,NA,j,0.4419,Lo,,,,,,3,,,,,,,,low,24,0,24,0,1,,,,,,,,,
295225,2022-10-06_17h59.27.936,vts_reward_expectancy,2022.2.4,MacIntel,60.0024001,Chrome,1440,900,,,,,10,953,,,,,,,,,,,,,,,,,D,125,circle,1,1,,,,,,,,,,,,,,,,repeat,number,numRpt,j,0.3322,Hi,,,,,,3,,,,,,,,low,25,0,25,0,1,,,,,,,,,
295225,2022-10-06_17h59.27.936,vts_reward_expectancy,2022.2.4,MacIntel,60.0024001,Chrome,1440,900,,,,,0,953,,,,,,,,,,,,,,,,,B,146,circle,1,0,,,,,,,,,,,,,,,,repeat,number,numRpt,j,0.3465,Hi,,,,,,3,,,,,,,,low,26,0,26,0,1,,,,,,,,,
295225,2022-10-06_17h59.27.936,vts_reward_expectancy,2022.2.4,MacIntel,60.0024001,Chrome,1440,900,,,,,1,954,,,,,,,,,,,,,,,,,Y,139,hexagon,1,0,,,,,,,,,,,,,,,,repeat,number,numRpt,j,0.4483,Lo,,,,,,3,,,,,,,,low,27,0,27,0,1,,,,,,,,,
295225,2022-10-06_17h59.27.936,vts_reward_expectancy,2022.2.4,MacIntel,60.0024001,Chrome,1440,900,,,,,0,954,,,,,,,,,,,,,,,,,F,132,circle,1,0,,,,,,,,,,,,,,,,repeat,number,numRpt,j,0.3483,Hi,,,,,,3,,,,,,,,low,28,0,28,0,1,,,,,,,,,
295225,2022-10-06_17h59.27.936,vts_reward_expectancy,2022.2.4,MacIntel,60.0024001,Chrome,1440,900,,,,,0,954,,,,,,,,,,,,,,,,,S,160,hexagon,0,0,,,,,,,,,,,,,,,,repeat,number,NA,j,0.5133,Hi,,,,,,3,,,,,,,,low,29,0,29,0,1,,,,,,,,,
295225,2022-10-06_17h59.27.936,vts_reward_expectancy,2022.2.4,MacIntel,60.0024001,Chrome,1440,900,,,,,10,964,,,,,,,,,,,,,,,,,U,174,hexagon,1,1,,,,,,,,,,,,,,,,switch,letter,lettSwt,f,0.3823,Lo,,,,,,3,,,,,,,,low,30,0,30,0,1,,,,,,,,,
295225,2022-10-06_17h59.27.936,vts_reward_expectancy,2022.2.4,MacIntel,60.0024001,Chrome,1440,900,,,,,0,964,,,,,,,,,,,,,,,,,W,181,circle,1,0,,,,,,,,,,,,,,,,repeat,letter,lettRpt,f,0.4008,Hi,,,,,,3,,,,,,,,low,31,0,31,0,1,,,,,,,,,
295225,2022-10-06_17h59.27.936,vts_reward_expectancy,2022.2.4,MacIntel,60.0024001,Chrome,1440,900,,,,,0,964,,,,,,,,,,,,,,,,,B,160,circle,0,0,,,,,,,,,,,,,,,,switch,number,NA,j,0.3943,Hi,,,,,,4,,,,,,space,0.6791,low,0,0,0,0,1,,,,,,,,,
295225,2022-10-06_17h59.27.936,vts_reward_expectancy,2022.2.4,MacIntel,60.0024001,Chrome,1440,900,,,,,1,965,,,,,,,,,,,,,,,,,H,139,hexagon,1,1,,,,,,,,,,,,,,,,repeat,number,numRpt,j,0.3428,Lo,,,,,,4,,,,,,,,low,1,0,1,0,1,,,,,,,,,
295225,2022-10-06_17h59.27.936,vts_reward_expectancy,2022.2.4,MacIntel,60.0024001,Chrome,1440,900,,,,,1,966,,,,,,,,,,,,,,,,,D,132,circle,1,0,,,,,,,,,,,,,,,,switch,letter,lettSwt,d,0.4911,Hi,,,,,,4,,,,,,,,low,2,0,2,0,1,,,,,,,,,
295225,2022-10-06_17h59.27.936,vts_reward_expectancy,2022.2.4,MacIntel,60.0024001,Chrome,1440,900,,,,,0,966,,,,,,,,,,,,,,,,,U,174,hexagon,0,0,,,,,,,,,,,,,,,,switch,number,NA,j,0.4174,Hi,,,,,,4,,,,,,,,low,3,0,3,0,1,,,,,,,,,
295225,2022-10-06_17h59.27.936,vts_reward_expectancy,2022.2.4,MacIntel,60.0024001,Chrome,1440,900,,,,,1,967,,,,,,,,,,,,,,,,,W,167,circle,1,1,,,,,,,,,,,,,,,,switch,letter,lettSwt,f,0.3459,Hi,,,,,,4,,,,,,,,low,4,0,4,0,1,,,,,,,,,
295225,2022-10-06_17h59.27.936,vts_reward_expectancy,2022.2.4,MacIntel,60.0024001,Chrome,1440,900,,,,,0,967,,,,,,,,,,,,,,,,,S,146,hexagon,0,0,,,,,,,,,,,,,,,,switch,number,NA,k,0.3041,Hi,,,,,,4,,,,,,,,low,5,0,5,0,1,,,,,,,,,
295225,2022-10-06_17h59.27.936,vts_reward_expectancy,2022.2.4,MacIntel,60.0024001,Chrome,1440,900,,,,,0,967,,,,,,,,,,,,,,,,,Y,181,circle,1,1,,,,,,,,,,,,,,,,repeat,number,numRpt,k,0.3638,Hi,,,,,,4,,,,,,,,low,6,0,6,0,1,,,,,,,,,
295225,2022-10-06_17h59.27.936,vts_reward_expectancy,2022.2.4,MacIntel,60.0024001,Chrome,1440,900,,,,,1,968,,,,,,,,,,,,,,,,,F,125,hexagon,1,0,,,,,,,,,,,,,,,,repeat,number,numRpt,j,0.3765,Lo,,,,,,4,,,,,,,,low,7,0,7,0,1,,,,,,,,,
295225,2022-10-06_17h59.27.936,vts_reward_expectancy,2022.2.4,MacIntel,60.0024001,Chrome,1440,900,,,,,1,969,,,,,,,,,,,,,,,,,B,160,hexagon,1,0,,,,,,,,,,,,,,,,repeat,number,numRpt,k,0.4312,Lo,,,,,,4,,,,,,,,low,8,0,8,0,1,,,,,,,,,
295225,2022-10-06_17h59.27.936,vts_reward_expectancy,2022.2.4,MacIntel,60.0024001,Chrome,1440,900,,,,,0,969,,,,,,,,,,,,,,,,,H,139,circle,0,0,,,,,,,,,,,,,,,,switch,letter,NA,f,0.3478,Lo,,,,,,4,,,,,,,,low,9,0,9,0,1,,,,,,,,,
295225,2022-10-06_17h59.27.936,vts_reward_expectancy,2022.2.4,MacIntel,60.0024001,Chrome,1440,900,,,,,0,969,,,,,,,,,,,,,,,,,D,132,hexagon,0,1,,,,,,,,,,,,,,,,repeat,letter,NA,f,0.3404,Lo,,,,,,4,,,,,,,,low,10,0,10,0,1,,,,,,,,,
295225,2022-10-06_17h59.27.936,vts_reward_expectancy,2022.2.4,MacIntel,60.0024001,Chrome,1440,900,,,,,1,970,,,,,,,,,,,,,,,,,U,174,circle,1,1,,,,,,,,,,,,,,,,repeat,letter,lettRpt,f,0.3112,Hi,,,,,,4,,,,,,,,low,11,0,11,0,1,,,,,,,,,
295225,2022-10-06_17h59.27.936,vts_reward_expectancy,2022.2.4,MacIntel,60.0024001,Chrome,1440,900,,,,,0,970,,,,,,,,,,,,,,,,,W,167,hexagon,0,0,,,,,,,,,,,,,,,,repeat,letter,NA,d,0.4075,Hi,,,,,,4,,,,,,,,low,12,0,12,0,1,,,,,,,,,
295225,2022-10-06_17h59.27.936,vts_reward_expectancy,2022.2.4,MacIntel,60.0024001,Chrome,1440,900,,,,,0,970,,,,,,,,,,,,,,,,,S,146,circle,1,1,,,,,,,,,,,,,,,,repeat,letter,lettRpt,f,0.4079,Hi,,,,,,4,,,,,,,,low,13,0,13,0,1,,,,,,,,,
295225,2022-10-06_17h59.27.936,vts_reward_expectancy,2022.2.4,MacIntel,60.0024001,Chrome,1440,900,,,,,10,980,,,,,,,,,,,,,,,,,Y,181,hexagon,1,0,,,,,,,,,,,,,,,,switch,number,numSwt,k,0.407,Lo,,,,,,4,,,,,,,,low,14,0,14,0,1,,,,,,,,,
295225,2022-10-06_17h59.27.936,vts_reward_expectancy,2022.2.4,MacIntel,60.0024001,Chrome,1440,900,,,,,10,990,,,,,,,,,,,,,,,,,F,125,circle,1,0,,,,,,,,,,,,,,,,repeat,number,numRpt,j,0.2613,Hi,,,,,,4,,,,,,,,low,15,0,15,0,1,,,,,,,,,
295225,2022-10-06_17h59.27.936,vts_reward_expectancy,2022.2.4,MacIntel,60.0024001,Chrome,1440,900,,,,,1,991,,,,,,,,,,,,,,,,,D,125,hexagon,1,0,,,,,,,,,,,,,,,,repeat,number,numRpt,j,0.3499,Lo,,,,,,4,,,,,,,,low,16,0,16,0,1,,,,,,,,,
295225,2022-10-06_17h59.27.936,vts_reward_expectancy,2022.2.4,MacIntel,60.0024001,Chrome,1440,900,,,,,0,991,,,,,,,,,,,,,,,,,F,181,circle,1,0,,,,,,,,,,,,,,,,repeat,number,numRpt,k,0.4735,Hi,,,,,,4,,,,,,,,low,17,0,17,0,1,,,,,,,,,
295225,2022-10-06_17h59.27.936,vts_reward_expectancy,2022.2.4,MacIntel,60.0024001,Chrome,1440,900,,,,,0,991,,,,,,,,,,,,,,,,,H,160,hexagon,0,0,,,,,,,,,,,,,,,,switch,letter,NA,f,0.4629,Hi,,,,,,4,,,,,,,,low,18,0,18,0,1,,,,,,,,,
295225,2022-10-06_17h59.27.936,vts_reward_expectancy,2022.2.4,MacIntel,60.0024001,Chrome,1440,900,,,,,10,1001,,,,,,,,,,,,,,,,,B,139,circle,1,1,,,,,,,,,,,,,,,,switch,number,numSwt,j,0.2825,Hi,,,,,,4,,,,,,,,low,19,0,19,0,1,,,,,,,,,
295225,2022-10-06_17h59.27.936,vts_reward_expectancy,2022.2.4,MacIntel,60.0024001,Chrome,1440,900,,,,,0,1001,,,,,,,,,,,,,,,,,Y,174,circle,0,0,,,,,,,,,,,,,,,,switch,letter,NA,d,0.3328,Hi,,,,,,4,,,,,,,,low,20,0,20,0,1,,,,,,,,,
295225,2022-10-06_17h59.27.936,vts_reward_expectancy,2022.2.4,MacIntel,60.0024001,Chrome,1440,900,,,,,0,1001,,,,,,,,,,,,,,,,,S,167,hexagon,0,1,,,,,,,,,,,,,,,,switch,number,NA,j,0.3657,Hi,,,,,,4,,,,,,,,low,21,0,21,0,1,,,,,,,,,
295225,2022-10-06_17h59.27.936,vts_reward_expectancy,2022.2.4,MacIntel,60.0024001,Chrome,1440,900,,,,,1,1002,,,,,,,,,,,,,,,,,W,132,hexagon,1,1,,,,,,,,,,,,,,,,repeat,number,numRpt,j,0.2986,Lo,,,,,,4,,,,,,,,low,22,0,22,0,1,,,,,,,,,
295225,2022-10-06_17h59.27.936,vts_reward_expectancy,2022.2.4,MacIntel,60.0024001,Chrome,1440,900,,,,,1,1003,,,,,,,,,,,,,,,,,U,146,circle,1,0,,,,,,,,,,,,,,,,switch,letter,lettSwt,f,0.3293,Hi,,,,,,4,,,,,,,,low,23,0,23,0,1,,,,,,,,,
295225,2022-10-06_17h59.27.936,vts_reward_expectancy,2022.2.4,MacIntel,60.0024001,Chrome,1440,900,,,,,1,1004,,,,,,,,,,,,,,,,,H,139,hexagon,1,0,,,,,,,,,,,,,,,,switch,number,numSwt,j,0.3391,Lo,,,,,,4,,,,,,,,low,24,0,24,0,1,,,,,,,,,
295225,2022-10-06_17h59.27.936,vts_reward_expectancy,2022.2.4,MacIntel,60.0024001,Chrome,1440,900,,,,,10,1014,,,,,,,,,,,,,,,,,B,181,circle,1,0,,,,,,,,,,,,,,,,switch,letter,lettSwt,d,0.357,Hi,,,,,,4,,,,,,,,low,25,0,25,0,1,,,,,,,,,
295225,2022-10-06_17h59.27.936,vts_reward_expectancy,2022.2.4,MacIntel,60.0024001,Chrome,1440,900,,,,,0,1014,,,,,,,,,,,,,,,,,F,160,circle,0,0,,,,,,,,,,,,,,,,repeat,letter,NA,f,0.3145,Hi,,,,,,4,,,,,,,,low,26,0,26,0,1,,,,,,,,,
295225,2022-10-06_17h59.27.936,vts_reward_expectancy,2022.2.4,MacIntel,60.0024001,Chrome,1440,900,,,,,1,1015,,,,,,,,,,,,,,,,,Y,132,hexagon,1,1,,,,,,,,,,,,,,,,switch,number,numSwt,j,0.3089,Lo,,,,,,4,,,,,,,,low,27,0,27,0,1,,,,,,,,,
295225,2022-10-06_17h59.27.936,vts_reward_expectancy,2022.2.4,MacIntel,60.0024001,Chrome,1440,900,,,,,1,1016,,,,,,,,,,,,,,,,,D,174,hexagon,1,0,,,,,,,,,,,,,,,,repeat,number,numRpt,k,0.3641,Lo,,,,,,4,,,,,,,,low,28,0,28,0,1,,,,,,,,,
295225,2022-10-06_17h59.27.936,vts_reward_expectancy,2022.2.4,MacIntel,60.0024001,Chrome,1440,900,,,,,0,1016,,,,,,,,,,,,,,,,,W,167,circle,0,0,,,,,,,,,,,,,,,,repeat,number,NA,j,0.2807,Lo,,,,,,4,,,,,,,,low,29,0,29,0,1,,,,,,,,,
295225,2022-10-06_17h59.27.936,vts_reward_expectancy,2022.2.4,MacIntel,60.0024001,Chrome,1440,900,,,,,10,1026,,,,,,,,,,,,,,,,,U,146,hexagon,1,1,,,,,,,,,,,,,,,,repeat,number,numRpt,j,0.4265,Lo,,,,,,4,,,,,,,,low,30,0,30,0,1,,,,,,,,,
295225,2022-10-06_17h59.27.936,vts_reward_expectancy,2022.2.4,MacIntel,60.0024001,Chrome,1440,900,,,,,0,1026,,,,,,,,,,,,,,,,,S,125,circle,1,0,,,,,,,,,,,,,,,,repeat,number,numRpt,j,0.3606,Hi,,,,,,4,,,,,,,,low,31,0,31,0,1,,,,,,,,,
295225,2022-10-06_17h59.27.936,vts_reward_expectancy,2022.2.4,MacIntel,60.0024001,Chrome,1440,900,,,,,0,1026,,,,,,,,,,,,,,,,,H,181,star,0,0,,,,,,,,,,,,,,,,repeat,number,NA,j,0.396,Hi,,,,,,5,,,,,,space,0.856,high,0,0,0,0,1,,,,,,,,,
295225,2022-10-06_17h59.27.936,vts_reward_expectancy,2022.2.4,MacIntel,60.0024001,Chrome,1440,900,,,,,0,1026,,,,,,,,,,,,,,,,,D,146,triangle,1,1,,,,,,,,,,,,,,,,repeat,number,numRpt,j,0.4413,Hi,,,,,,5,,,,,,,,high,1,0,1,0,1,,,,,,,,,
295225,2022-10-06_17h59.27.936,vts_reward_expectancy,2022.2.4,MacIntel,60.0024001,Chrome,1440,900,,,,,1,1027,,,,,,,,,,,,,,,,,U,139,star,1,0,,,,,,,,,,,,,,,,repeat,number,numRpt,j,0.3318,Lo,,,,,,5,,,,,,,,high,2,0,2,0,1,,,,,,,,,
295225,2022-10-06_17h59.27.936,vts_reward_expectancy,2022.2.4,MacIntel,60.0024001,Chrome,1440,900,,,,,0,1027,,,,,,,,,,,,,,,,,S,174,triangle,0,0,,,,,,,,,,,,,,,,repeat,number,NA,j,0.2974,Lo,,,,,,5,,,,,,,,high,3,0,3,0,1,,,,,,,,,
295225,2022-10-06_17h59.27.936,vts_reward_expectancy,2022.2.4,MacIntel,60.0024001,Chrome,1440,900,,,,,1,1028,,,,,,,,,,,,,,,,,F,125,star,1,1,,,,,,,,,,,,,,,,repeat,number,numRpt,j,0.335,Lo,,,,,,5,,,,,,,,high,4,0,4,0,1,,,,,,,,,
295225,2022-10-06_17h59.27.936,vts_reward_expectancy,2022.2.4,MacIntel,60.0024001,Chrome,1440,900,,,,,0,1028,,,,,,,,,,,,,,,,,Y,160,triangle,0,0,,,,,,,,,,,,,,,,switch,letter,NA,d,0.3639,Lo,,,,,,5,,,,,,,,high,5,0,5,0,1,,,,,,,,,
295225,2022-10-06_17h59.27.936,vts_reward_expectancy,2022.2.4,MacIntel,60.0024001,Chrome,1440,900,,,,,0,1028,,,,,,,,,,,,,,,,,B,132,triangle,1,1,,,,,,,,,,,,,,,,repeat,letter,lettRpt,d,0.379,Hi,,,,,,5,,,,,,,,high,6,0,6,0,1,,,,,,,,,
295225,2022-10-06_17h59.27.936,vts_reward_expectancy,2022.2.4,MacIntel,60.0024001,Chrome,1440,900,,,,,0,1028,,,,,,,,,,,,,,,,,W,167,star,0,0,,,,,,,,,,,,,,,,switch,number,NA,j,0.3116,Hi,,,,,,5,,,,,,,,high,7,0,7,0,1,,,,,,,,,
295225,2022-10-06_17h59.27.936,vts_reward_expectancy,2022.2.4,MacIntel,60.0024001,Chrome,1440,900,,,,,0,1028,,,,,,,,,,,,,,,,,H,181,triangle,1,1,,,,,,,,,,,,,,,,repeat,number,numRpt,k,0.425,Hi,,,,,,5,,,,,,,,high,8,0,8,0,1,,,,,,,,,
295225,2022-10-06_17h59.27.936,vts_reward_expectancy,2022.2.4,MacIntel,60.0024001,Chrome,1440,900,,,,,1,1029,,,,,,,,,,,,,,,,,D,146,star,1,0,,,,,,,,,,,,,,,,repeat,number,numRpt,j,0.3744,Lo,,,,,,5,,,,,,,,high,9,0,9,0,1,,,,,,,,,
295225,2022-10-06_17h59.27.936,vts_reward_expectancy,2022.2.4,MacIntel,60.0024001,Chrome,1440,900,,,,,1,1030,,,,,,,,,,,,,,,,,U,139,star,1,0,,,,,,,,,,,,,,,,switch,letter,lettSwt,f,0.4102,Lo,,,,,,5,,,,,,,,high,10,0,10,0,1,,,,,,,,,
295225,2022-10-06_17h59.27.936,vts_reward_expectancy,2022.2.4,MacIntel,60.0024001,Chrome,1440,900,,,,,0,1030,,,,,,,,,,,,,,,,,S,174,triangle,1,0,,,,,,,,,,,,,,,,switch,number,numSwt,k,0.3966,Hi,,,,,,5,,,,,,,,high,11,0,11,0,1,,,,,,,,,
295225,2022-10-06_17h59.27.936,vts_reward_expectancy,2022.2.4,MacIntel,60.0024001,Chrome,1440,900,,,,,1,1031,,,,,,,,,,,,,,,,,F,125,triangle,1,0,,,,,,,,,,,,,,,,repeat,number,numRpt,j,0.3482,Hi,,,,,,5,,,,,,,,high,12,0,12,0,1,,,,,,,,,
295225,2022-10-06_17h59.27.936,vts_reward_expectancy,2022.2.4,MacIntel,60.0024001,Chrome,1440,900,,,,,0,1031,,,,,,,,,,,,,,,,,Y,160,star,0,0,,,,,,,,,,,,,,,,repeat,number,NA,j,0.3316,Hi,,,,,,5,,,,,,,,high,13,0,13,0,1,,,,,,,,,
295225,2022-10-06_17h59.27.936,vts_reward_expectancy,2022.2.4,MacIntel,60.0024001,Chrome,1440,900,,,,,0,1031,,,,,,,,,,,,,,,,,B,132,star,0,1,,,,,,,,,,,,,,,,repeat,number,NA,k,0.3415,Hi,,,,,,5,,,,,,,,high,14,0,14,0,1,,,,,,,,,
295225,2022-10-06_17h59.27.936,vts_reward_expectancy,2022.2.4,MacIntel,60.0024001,Chrome,1440,900,,,,,0,1031,,,,,,,,,,,,,,,,,W,167,triangle,0,1,,,,,,,,,,,,,,,,repeat,number,NA,j,0.3292,Hi,,,,,,5,,,,,,,,high,15,0,15,0,1,,,,,,,,,
295225,2022-10-06_17h59.27.936,vts_reward_expectancy,2022.2.4,MacIntel,60.0024001,Chrome,1440,900,,,,,1,1032,,,,,,,,,,,,,,,,,S,167,star,1,1,,,,,,,,,,,,,,,,repeat,number,numRpt,k,0.382,Lo,,,,,,5,,,,,,,,high,16,0,16,0,1,,,,,,,,,
295225,2022-10-06_17h59.27.936,vts_reward_expectancy,2022.2.4,MacIntel,60.0024001,Chrome,1440,900,,,,,10,1042,,,,,,,,,,,,,,,,,H,146,triangle,1,0,,,,,,,,,,,,,,,,switch,letter,lettSwt,d,0.3448,Hi,,,,,,5,,,,,,,,high,17,0,17,0,1,,,,,,,,,
295225,2022-10-06_17h59.27.936,vts_reward_expectancy,2022.2.4,MacIntel,60.0024001,Chrome,1440,900,,,,,0,1042,,,,,,,,,,,,,,,,,Y,139,star,0,0,,,,,,,,,,,,,,,,repeat,letter,NA,d,0.3501,Hi,,,,,,5,,,,,,,,high,18,0,18,0,1,,,,,,,,,
295225,2022-10-06_17h59.27.936,vts_reward_expectancy,2022.2.4,MacIntel,60.0024001,Chrome,1440,900,,,,,0,1042,,,,,,,,,,,,,,,,,W,160,triangle,0,1,,,,,,,,,,,,,,,,repeat,letter,NA,d,0.3405,Hi,,,,,,5,,,,,,,,high,19,0,19,0,1,,,,,,,,,
295225,2022-10-06_17h59.27.936,vts_reward_expectancy,2022.2.4,MacIntel,60.0024001,Chrome,1440,900,,,,,0,1042,,,,,,,,,,,,,,,,,B,132,triangle,1,1,,,,,,,,,,,,,,,,repeat,letter,lettRpt,d,0.3175,Hi,,,,,,5,,,,,,,,high,20,0,20,0,1,,,,,,,,,
295225,2022-10-06_17h59.27.936,vts_reward_expectancy,2022.2.4,MacIntel,60.0024001,Chrome,1440,900,,,,,1,1043,,,,,,,,,,,,,,,,,F,125,star,1,0,,,,,,,,,,,,,,,,repeat,letter,lettRpt,d,0.324,Lo,,,,,,5,,,,,,,,high,21,0,21,0,1,,,,,,,,,
295225,2022-10-06_17h59.27.936,vts_reward_expectancy,2022.2.4,MacIntel,60.0024001,Chrome,1440,900,,,,,0,1043,,,,,,,,,,,,,,,,,D,181,star,0,0,,,,,,,,,,,,,,,,repeat,letter,NA,f,0.2972,Lo,,,,,,5,,,,,,,,high,22,0,22,0,1,,,,,,,,,
295225,2022-10-06_17h59.27.936,vts_reward_expectancy,2022.2.4,MacIntel,60.0024001,Chrome,1440,900,,,,,0,1043,,,,,,,,,,,,,,,,,U,174,triangle,1,1,,,,,,,,,,,,,,,,repeat,letter,lettRpt,f,0.3488,Hi,,,,,,5,,,,,,,,high,23,0,23,0,1,,,,,,,,,
295225,2022-10-06_17h59.27.936,vts_reward_expectancy,2022.2.4,MacIntel,60.0024001,Chrome,1440,900,,,,,10,1053,,,,,,,,,,,,,,,,,H,160,triangle,1,0,,,,,,,,,,,,,,,,repeat,letter,lettRpt,d,0.2984,Hi,,,,,,5,,,,,,,,high,24,0,24,0,1,,,,,,,,,
295225,2022-10-06_17h59.27.936,vts_reward_expectancy,2022.2.4,MacIntel,60.0024001,Chrome,1440,900,,,,,0,1053,,,,,,,,,,,,,,,,,F,174,star,0,0,,,,,,,,,,,,,,,,repeat,letter,NA,f,0.3586,Hi,,,,,,5,,,,,,,,high,25,0,25,0,1,,,,,,,,,
295225,2022-10-06_17h59.27.936,vts_reward_expectancy,2022.2.4,MacIntel,60.0024001,Chrome,1440,900,,,,,0,1053,,,,,,,,,,,,,,,,,D,167,star,0,1,,,,,,,,,,,,,,,,switch,number,NA,j,0.3455,Hi,,,,,,5,,,,,,,,high,26,0,26,0,1,,,,,,,,,
295225,2022-10-06_17h59.27.936,vts_reward_expectancy,2022.2.4,MacIntel,60.0024001,Chrome,1440,900,,,,,0,1053,,,,,,,,,,,,,,,,,U,139,triangle,1,1,,,,,,,,,,,,,,,,repeat,number,numRpt,j,0.3622,Hi,,,,,,5,,,,,,,,high,27,0,27,0,1,,,,,,,,,
295225,2022-10-06_17h59.27.936,vts_reward_expectancy,2022.2.4,MacIntel,60.0024001,Chrome,1440,900,,,,,0,1053,,,,,,,,,,,,,,,,,S,146,triangle,1,0,,,,,,,,,,,,,,,,repeat,number,numRpt,j,0.4139,Hi,,,,,,5,,,,,,,,high,28,0,28,0,1,,,,,,,,,
295225,2022-10-06_17h59.27.936,vts_reward_expectancy,2022.2.4,MacIntel,60.0024001,Chrome,1440,900,,,,,0,1053,,,,,,,,,,,,,,,,,B,181,star,0,0,,,,,,,,,,,,,,,,repeat,number,NA,j,0.3152,Hi,,,,,,5,,,,,,,,high,29,0,29,0,1,,,,,,,,,
295225,2022-10-06_17h59.27.936,vts_reward_expectancy,2022.2.4,MacIntel,60.0024001,Chrome,1440,900,,,,,10,1063,,,,,,,,,,,,,,,,,W,132,triangle,1,1,,,,,,,,,,,,,,,,repeat,number,numRpt,j,0.3296,Hi,,,,,,5,,,,,,,,high,30,0,30,0,1,,,,,,,,,
295225,2022-10-06_17h59.27.936,vts_reward_expectancy,2022.2.4,MacIntel,60.0024001,Chrome,1440,900,,,,,0,1063,,,,,,,,,,,,,,,,,Y,125,star,0,0,,,,,,,,,,,,,,,,switch,letter,NA,d,0.2559,Hi,,,,,,5,,,,,,,,high,31,0,31,0,1,,,,,,,,,
295225,2022-10-06_17h59.27.936,vts_reward_expectancy,2022.2.4,MacIntel,60.0024001,Chrome,1440,900,,,,,,,,,,,,,,,,,,,,,,,,,,,,,,,,,,,,,,,,,,,,,,,,,,,,,,6,,,,,,,,,,,,,,answer questions about my drug habits and see how I respond to quick response questions.,1,,5,3,1,Was mildly frustrating when I got questions wrong so maybe that has something to do with something?,1440,900
