participant,date,expName,psychopyVersion,OS,frameRate,browser,xResolution,yResolution,key_resp.keys,key_resp.rt,training_resp.keys,training_resp.rt,points_trial,points_cumul,trainBlock,training.thisRepN,training.thisTrialN,training.thisN,training.thisIndex,training.ran,LTriangleOpac,LCircleOpac,LHexagonOpac,LStarOpac,RTriangleOpac,RCircleOpac,RHexagonOpac,RStarOpac,LShape_ID,RShape_ID,curr_topStim,curr_bottStim,curr_shape,acc,E1,target_resp_prac1.keys,target_resp_prac1.rt,pracBlock,task1_prac_trials.thisRepN,task1_prac_trials.thisTrialN,task1_prac_trials.thisN,task1_prac_trials.thisIndex,task1_prac_trials.ran,target_resp_prac2.keys,target_resp_prac2.rt,task2_praac_trials.thisRepN,task2_praac_trials.thisTrialN,task2_praac_trials.thisN,task2_praac_trials.thisIndex,task2_praac_trials.ran,alt,task,condition,target_resp.keys,target_resp.rt,rewCond,vts_practice_trials.thisRepN,vts_practice_trials.thisTrialN,vts_practice_trials.thisN,vts_practice_trials.thisIndex,vts_practice_trials.ran,blockNum,trials_norew.thisRepN,trials_norew.thisTrialN,trials_norew.thisN,trials_norew.thisIndex,trials_norew.ran,key_resp_2.keys,key_resp_2.rt,rewExpect,trials_rew.thisRepN,trials_rew.thisTrialN,trials_rew.thisN,trials_rew.thisIndex,trials_rew.ran,Q1,Q2,Q2_text,Q3,Q4,Q5_text,Q5,xRes,yRes
296341,2022-10-05_12h25.24.880,vts_reward_expectancy,2022.2.4,MacIntel,60.0024001,Chrome,1440,900,,,,,,,,,,,,,,,,,,,,,,,,,,,,,,,,,,,,,,,,,,,,,,,,,,,,,,,,,,,,,,,,,,,,,,,,,,,,
296341,2022-10-05_12h25.24.880,vts_reward_expectancy,2022.2.4,MacIntel,60.0024001,Chrome,1440,900,space,758.3868,,,,,,,,,,,,,,,,,,,,,,,,,,,,,,,,,,,,,,,,,,,,,,,,,,,,,,,,,,,,,,,,,,,,,,,,,,
296341,2022-10-05_12h25.24.880,vts_reward_expectancy,2022.2.4,MacIntel,60.0024001,Chrome,1440,900,,,,,,,,,,,,,,,,,,,,,,,,,,,,,,,,,,,,,,,,,,,,,,,,,,,,,,,,,,,,,,,,,,,,,,,,,,,,
296341,2022-10-05_12h25.24.880,vts_reward_expectancy,2022.2.4,MacIntel,60.0024001,Chrome,1440,900,,,a,1.6405,10,10,0,0,0,0,7,1,0,0,1,0,0,1,0,0,hexagon,circle,,,,,,,,,,,,,,,,,,,,,,,,,,,,,,,,,,,,,,,,,,,,,,,,,,,,,,
296341,2022-10-05_12h25.24.880,vts_reward_expectancy,2022.2.4,MacIntel,60.0024001,Chrome,1440,900,,,a,1.7664,1,11,0,0,1,1,2,1,1,0,0,0,0,0,0,1,triangle,star,,,,,,,,,,,,,,,,,,,,,,,,,,,,,,,,,,,,,,,,,,,,,,,,,,,,,,
296341,2022-10-05_12h25.24.880,vts_reward_expectancy,2022.2.4,MacIntel,60.0024001,Chrome,1440,900,,,l,2.1068,10,21,0,0,2,2,1,1,1,0,0,0,0,0,1,0,triangle,hexagon,,,,,,,,,,,,,,,,,,,,,,,,,,,,,,,,,,,,,,,,,,,,,,,,,,,,,,
296341,2022-10-05_12h25.24.880,vts_reward_expectancy,2022.2.4,MacIntel,60.0024001,Chrome,1440,900,,,l,1.682,10,31,0,0,3,3,11,1,0,0,0,1,0,0,1,0,star,hexagon,,,,,,,,,,,,,,,,,,,,,,,,,,,,,,,,,,,,,,,,,,,,,,,,,,,,,,
296341,2022-10-05_12h25.24.880,vts_reward_expectancy,2022.2.4,MacIntel,60.0024001,Chrome,1440,900,,,l,1.7019,1,32,0,0,4,4,10,1,0,0,0,1,0,1,0,0,star ,circle,,,,,,,,,,,,,,,,,,,,,,,,,,,,,,,,,,,,,,,,,,,,,,,,,,,,,,
296341,2022-10-05_12h25.24.880,vts_reward_expectancy,2022.2.4,MacIntel,60.0024001,Chrome,1440,900,,,l,1.8505,1,33,0,0,5,5,9,1,0,0,0,1,1,0,0,0,star,triangle,,,,,,,,,,,,,,,,,,,,,,,,,,,,,,,,,,,,,,,,,,,,,,,,,,,,,,
296341,2022-10-05_12h25.24.880,vts_reward_expectancy,2022.2.4,MacIntel,60.0024001,Chrome,1440,900,,,a,2.4226,10,43,0,0,6,6,0,1,1,0,0,0,0,1,0,0,triangle,circle,,,,,,,,,,,,,,,,,,,,,,,,,,,,,,,,,,,,,,,,,,,,,,,,,,,,,,
296341,2022-10-05_12h25.24.880,vts_reward_expectancy,2022.2.4,MacIntel,60.0024001,Chrome,1440,900,,,l,1.299,1,44,0,0,7,7,3,1,0,1,0,0,1,0,0,0,circle,triangle,,,,,,,,,,,,,,,,,,,,,,,,,,,,,,,,,,,,,,,,,,,,,,,,,,,,,,
296341,2022-10-05_12h25.24.880,vts_reward_expectancy,2022.2.4,MacIntel,60.0024001,Chrome,1440,900,,,a,1.1371,10,54,0,0,8,8,6,1,0,0,1,0,1,0,0,0,hexagon,triangle,,,,,,,,,,,,,,,,,,,,,,,,,,,,,,,,,,,,,,,,,,,,,,,,,,,,,,
296341,2022-10-05_12h25.24.880,vts_reward_expectancy,2022.2.4,MacIntel,60.0024001,Chrome,1440,900,,,l,1.9013,1,55,0,0,9,9,4,1,0,1,0,0,0,0,1,0,circle,hexagon,,,,,,,,,,,,,,,,,,,,,,,,,,,,,,,,,,,,,,,,,,,,,,,,,,,,,,
296341,2022-10-05_12h25.24.880,vts_reward_expectancy,2022.2.4,MacIntel,60.0024001,Chrome,1440,900,,,a,1.4657,10,65,0,0,10,10,8,1,0,0,1,0,0,0,0,1,hexagon,star,,,,,,,,,,,,,,,,,,,,,,,,,,,,,,,,,,,,,,,,,,,,,,,,,,,,,,
296341,2022-10-05_12h25.24.880,vts_reward_expectancy,2022.2.4,MacIntel,60.0024001,Chrome,1440,900,,,a,1.4158,1,66,0,0,11,11,5,1,0,1,0,0,0,0,0,1,circle,star,,,,,,,,,,,,,,,,,,,,,,,,,,,,,,,,,,,,,,,,,,,,,,,,,,,,,,
296341,2022-10-05_12h25.24.880,vts_reward_expectancy,2022.2.4,MacIntel,60.0024001,Chrome,1440,900,,,l,1.4164,10,76,0,1,0,12,4,1,0,1,0,0,0,0,1,0,circle,hexagon,,,,,,,,,,,,,,,,,,,,,,,,,,,,,,,,,,,,,,,,,,,,,,,,,,,,,,
296341,2022-10-05_12h25.24.880,vts_reward_expectancy,2022.2.4,MacIntel,60.0024001,Chrome,1440,900,,,l,1.0835,1,77,0,1,1,13,0,1,1,0,0,0,0,1,0,0,triangle,circle,,,,,,,,,,,,,,,,,,,,,,,,,,,,,,,,,,,,,,,,,,,,,,,,,,,,,,
296341,2022-10-05_12h25.24.880,vts_reward_expectancy,2022.2.4,MacIntel,60.0024001,Chrome,1440,900,,,a,0.9545,10,87,0,1,2,14,7,1,0,0,1,0,0,1,0,0,hexagon,circle,,,,,,,,,,,,,,,,,,,,,,,,,,,,,,,,,,,,,,,,,,,,,,,,,,,,,,
296341,2022-10-05_12h25.24.880,vts_reward_expectancy,2022.2.4,MacIntel,60.0024001,Chrome,1440,900,,,a,1.2172,10,97,0,1,3,15,6,1,0,0,1,0,1,0,0,0,hexagon,triangle,,,,,,,,,,,,,,,,,,,,,,,,,,,,,,,,,,,,,,,,,,,,,,,,,,,,,,
296341,2022-10-05_12h25.24.880,vts_reward_expectancy,2022.2.4,MacIntel,60.0024001,Chrome,1440,900,,,a,1.2358,10,107,0,1,4,16,3,1,0,1,0,0,1,0,0,0,circle,triangle,,,,,,,,,,,,,,,,,,,,,,,,,,,,,,,,,,,,,,,,,,,,,,,,,,,,,,
296341,2022-10-05_12h25.24.880,vts_reward_expectancy,2022.2.4,MacIntel,60.0024001,Chrome,1440,900,,,l,0.9881,1,108,0,1,5,17,2,1,1,0,0,0,0,0,0,1,triangle,star,,,,,,,,,,,,,,,,,,,,,,,,,,,,,,,,,,,,,,,,,,,,,,,,,,,,,,
296341,2022-10-05_12h25.24.880,vts_reward_expectancy,2022.2.4,MacIntel,60.0024001,Chrome,1440,900,,,a,1.1819,1,109,0,1,6,18,5,1,0,1,0,0,0,0,0,1,circle,star,,,,,,,,,,,,,,,,,,,,,,,,,,,,,,,,,,,,,,,,,,,,,,,,,,,,,,
296341,2022-10-05_12h25.24.880,vts_reward_expectancy,2022.2.4,MacIntel,60.0024001,Chrome,1440,900,,,l,6.5851,10,119,0,1,7,19,11,1,0,0,0,1,0,0,1,0,star,hexagon,,,,,,,,,,,,,,,,,,,,,,,,,,,,,,,,,,,,,,,,,,,,,,,,,,,,,,
296341,2022-10-05_12h25.24.880,vts_reward_expectancy,2022.2.4,MacIntel,60.0024001,Chrome,1440,900,,,a,4.1661,10,129,0,1,8,20,10,1,0,0,0,1,0,1,0,0,star ,circle,,,,,,,,,,,,,,,,,,,,,,,,,,,,,,,,,,,,,,,,,,,,,,,,,,,,,,
296341,2022-10-05_12h25.24.880,vts_reward_expectancy,2022.2.4,MacIntel,60.0024001,Chrome,1440,900,,,l,1.2822,10,139,0,1,9,21,1,1,1,0,0,0,0,0,1,0,triangle,hexagon,,,,,,,,,,,,,,,,,,,,,,,,,,,,,,,,,,,,,,,,,,,,,,,,,,,,,,
296341,2022-10-05_12h25.24.880,vts_reward_expectancy,2022.2.4,MacIntel,60.0024001,Chrome,1440,900,,,l,1.9211,10,149,0,1,10,22,9,1,0,0,0,1,1,0,0,0,star,triangle,,,,,,,,,,,,,,,,,,,,,,,,,,,,,,,,,,,,,,,,,,,,,,,,,,,,,,
296341,2022-10-05_12h25.24.880,vts_reward_expectancy,2022.2.4,MacIntel,60.0024001,Chrome,1440,900,,,a,1.6515,10,159,0,1,11,23,8,1,0,0,1,0,0,0,0,1,hexagon,star,,,,,,,,,,,,,,,,,,,,,,,,,,,,,,,,,,,,,,,,,,,,,,,,,,,,,,
296341,2022-10-05_12h25.24.880,vts_reward_expectancy,2022.2.4,MacIntel,60.0024001,Chrome,1440,900,,,a,3.2491,10,169,0,2,0,24,3,1,0,1,0,0,1,0,0,0,circle,triangle,,,,,,,,,,,,,,,,,,,,,,,,,,,,,,,,,,,,,,,,,,,,,,,,,,,,,,
296341,2022-10-05_12h25.24.880,vts_reward_expectancy,2022.2.4,MacIntel,60.0024001,Chrome,1440,900,,,a,3.7833,10,179,0,2,1,25,10,1,0,0,0,1,0,1,0,0,star ,circle,,,,,,,,,,,,,,,,,,,,,,,,,,,,,,,,,,,,,,,,,,,,,,,,,,,,,,
296341,2022-10-05_12h25.24.880,vts_reward_expectancy,2022.2.4,MacIntel,60.0024001,Chrome,1440,900,,,l,1.6685,10,189,0,2,2,26,9,1,0,0,0,1,1,0,0,0,star,triangle,,,,,,,,,,,,,,,,,,,,,,,,,,,,,,,,,,,,,,,,,,,,,,,,,,,,,,
296341,2022-10-05_12h25.24.880,vts_reward_expectancy,2022.2.4,MacIntel,60.0024001,Chrome,1440,900,,,a,2.1196,10,199,0,2,3,27,8,1,0,0,1,0,0,0,0,1,hexagon,star,,,,,,,,,,,,,,,,,,,,,,,,,,,,,,,,,,,,,,,,,,,,,,,,,,,,,,
296341,2022-10-05_12h25.24.880,vts_reward_expectancy,2022.2.4,MacIntel,60.0024001,Chrome,1440,900,,,l,9.1505,1,200,0,2,4,28,5,1,0,1,0,0,0,0,0,1,circle,star,,,,,,,,,,,,,,,,,,,,,,,,,,,,,,,,,,,,,,,,,,,,,,,,,,,,,,
296341,2022-10-05_12h25.24.880,vts_reward_expectancy,2022.2.4,MacIntel,60.0024001,Chrome,1440,900,,,l,2.7168,1,201,0,2,5,29,2,1,1,0,0,0,0,0,0,1,triangle,star,,,,,,,,,,,,,,,,,,,,,,,,,,,,,,,,,,,,,,,,,,,,,,,,,,,,,,
296341,2022-10-05_12h25.24.880,vts_reward_expectancy,2022.2.4,MacIntel,60.0024001,Chrome,1440,900,,,l,2.7002,10,211,0,2,6,30,4,1,0,1,0,0,0,0,1,0,circle,hexagon,,,,,,,,,,,,,,,,,,,,,,,,,,,,,,,,,,,,,,,,,,,,,,,,,,,,,,
296341,2022-10-05_12h25.24.880,vts_reward_expectancy,2022.2.4,MacIntel,60.0024001,Chrome,1440,900,,,a,3.6,1,212,0,2,7,31,7,1,0,0,1,0,0,1,0,0,hexagon,circle,,,,,,,,,,,,,,,,,,,,,,,,,,,,,,,,,,,,,,,,,,,,,,,,,,,,,,
296341,2022-10-05_12h25.24.880,vts_reward_expectancy,2022.2.4,MacIntel,60.0024001,Chrome,1440,900,,,l,1.5518,10,222,0,2,8,32,11,1,0,0,0,1,0,0,1,0,star,hexagon,,,,,,,,,,,,,,,,,,,,,,,,,,,,,,,,,,,,,,,,,,,,,,,,,,,,,,
296341,2022-10-05_12h25.24.880,vts_reward_expectancy,2022.2.4,MacIntel,60.0024001,Chrome,1440,900,,,l,4.7171,10,232,0,2,9,33,1,1,1,0,0,0,0,0,1,0,triangle,hexagon,,,,,,,,,,,,,,,,,,,,,,,,,,,,,,,,,,,,,,,,,,,,,,,,,,,,,,
296341,2022-10-05_12h25.24.880,vts_reward_expectancy,2022.2.4,MacIntel,60.0024001,Chrome,1440,900,,,a,3.3673,10,242,0,2,10,34,6,1,0,0,1,0,1,0,0,0,hexagon,triangle,,,,,,,,,,,,,,,,,,,,,,,,,,,,,,,,,,,,,,,,,,,,,,,,,,,,,,
296341,2022-10-05_12h25.24.880,vts_reward_expectancy,2022.2.4,MacIntel,60.0024001,Chrome,1440,900,,,l,9.9506,1,243,0,2,11,35,0,1,1,0,0,0,0,1,0,0,triangle,circle,,,,,,,,,,,,,,,,,,,,,,,,,,,,,,,,,,,,,,,,,,,,,,,,,,,,,,
296341,2022-10-05_12h25.24.880,vts_reward_expectancy,2022.2.4,MacIntel,60.0024001,Chrome,1440,900,,,a,2.4155,1,244,1,0,0,0,5,1,0,1,0,0,0,0,0,1,circle,star,,,,,,,,,,,,,,,,,,,,,,,,,,,,,,,,,,,,,,,,,,,,,,,,,,,,,,
296341,2022-10-05_12h25.24.880,vts_reward_expectancy,2022.2.4,MacIntel,60.0024001,Chrome,1440,900,,,l,2.4673,10,254,1,0,1,1,3,1,0,1,0,0,1,0,0,0,circle,triangle,,,,,,,,,,,,,,,,,,,,,,,,,,,,,,,,,,,,,,,,,,,,,,,,,,,,,,
296341,2022-10-05_12h25.24.880,vts_reward_expectancy,2022.2.4,MacIntel,60.0024001,Chrome,1440,900,,,a,1.2889,1,255,1,0,2,2,7,1,0,0,1,0,0,1,0,0,hexagon,circle,,,,,,,,,,,,,,,,,,,,,,,,,,,,,,,,,,,,,,,,,,,,,,,,,,,,,,
296341,2022-10-05_12h25.24.880,vts_reward_expectancy,2022.2.4,MacIntel,60.0024001,Chrome,1440,900,,,l,12.5237,1,256,1,0,3,3,2,1,1,0,0,0,0,0,0,1,triangle,star,,,,,,,,,,,,,,,,,,,,,,,,,,,,,,,,,,,,,,,,,,,,,,,,,,,,,,
296341,2022-10-05_12h25.24.880,vts_reward_expectancy,2022.2.4,MacIntel,60.0024001,Chrome,1440,900,,,a,4.3224,10,266,1,0,4,4,1,1,1,0,0,0,0,0,1,0,triangle,hexagon,,,,,,,,,,,,,,,,,,,,,,,,,,,,,,,,,,,,,,,,,,,,,,,,,,,,,,
296341,2022-10-05_12h25.24.880,vts_reward_expectancy,2022.2.4,MacIntel,60.0024001,Chrome,1440,900,,,l,8.849,10,276,1,0,5,5,6,1,0,0,1,0,1,0,0,0,hexagon,triangle,,,,,,,,,,,,,,,,,,,,,,,,,,,,,,,,,,,,,,,,,,,,,,,,,,,,,,
296341,2022-10-05_12h25.24.880,vts_reward_expectancy,2022.2.4,MacIntel,60.0024001,Chrome,1440,900,,,a,4.8493,1,277,1,0,6,6,11,1,0,0,0,1,0,0,1,0,star,hexagon,,,,,,,,,,,,,,,,,,,,,,,,,,,,,,,,,,,,,,,,,,,,,,,,,,,,,,
296341,2022-10-05_12h25.24.880,vts_reward_expectancy,2022.2.4,MacIntel,60.0024001,Chrome,1440,900,,,a,6.2735,10,287,1,0,7,7,4,1,0,1,0,0,0,0,1,0,circle,hexagon,,,,,,,,,,,,,,,,,,,,,,,,,,,,,,,,,,,,,,,,,,,,,,,,,,,,,,
296341,2022-10-05_12h25.24.880,vts_reward_expectancy,2022.2.4,MacIntel,60.0024001,Chrome,1440,900,,,a,4.181,1,288,1,0,8,8,0,1,1,0,0,0,0,1,0,0,triangle,circle,,,,,,,,,,,,,,,,,,,,,,,,,,,,,,,,,,,,,,,,,,,,,,,,,,,,,,
296341,2022-10-05_12h25.24.880,vts_reward_expectancy,2022.2.4,MacIntel,60.0024001,Chrome,1440,900,,,a,8.8251,10,298,1,0,9,9,8,1,0,0,1,0,0,0,0,1,hexagon,star,,,,,,,,,,,,,,,,,,,,,,,,,,,,,,,,,,,,,,,,,,,,,,,,,,,,,,
296341,2022-10-05_12h25.24.880,vts_reward_expectancy,2022.2.4,MacIntel,60.0024001,Chrome,1440,900,,,l,5.9415,1,299,1,0,10,10,10,1,0,0,0,1,0,1,0,0,star ,circle,,,,,,,,,,,,,,,,,,,,,,,,,,,,,,,,,,,,,,,,,,,,,,,,,,,,,,
296341,2022-10-05_12h25.24.880,vts_reward_expectancy,2022.2.4,MacIntel,60.0024001,Chrome,1440,900,,,l,8.069,1,300,1,0,11,11,9,1,0,0,0,1,1,0,0,0,star,triangle,,,,,,,,,,,,,,,,,,,,,,,,,,,,,,,,,,,,,,,,,,,,,,,,,,,,,,
296341,2022-10-05_12h25.24.880,vts_reward_expectancy,2022.2.4,MacIntel,60.0024001,Chrome,1440,900,,,l,7.9498,1,301,1,1,0,12,7,1,0,0,1,0,0,1,0,0,hexagon,circle,,,,,,,,,,,,,,,,,,,,,,,,,,,,,,,,,,,,,,,,,,,,,,,,,,,,,,
296341,2022-10-05_12h25.24.880,vts_reward_expectancy,2022.2.4,MacIntel,60.0024001,Chrome,1440,900,,,l,4.1495,1,302,1,1,1,13,2,1,1,0,0,0,0,0,0,1,triangle,star,,,,,,,,,,,,,,,,,,,,,,,,,,,,,,,,,,,,,,,,,,,,,,,,,,,,,,
296341,2022-10-05_12h25.24.880,vts_reward_expectancy,2022.2.4,MacIntel,60.0024001,Chrome,1440,900,,,a,5.7193,1,303,1,1,2,14,4,1,0,1,0,0,0,0,1,0,circle,hexagon,,,,,,,,,,,,,,,,,,,,,,,,,,,,,,,,,,,,,,,,,,,,,,,,,,,,,,
296341,2022-10-05_12h25.24.880,vts_reward_expectancy,2022.2.4,MacIntel,60.0024001,Chrome,1440,900,,,l,4.0011,1,304,1,1,3,15,5,1,0,1,0,0,0,0,0,1,circle,star,,,,,,,,,,,,,,,,,,,,,,,,,,,,,,,,,,,,,,,,,,,,,,,,,,,,,,
296341,2022-10-05_12h25.24.880,vts_reward_expectancy,2022.2.4,MacIntel,60.0024001,Chrome,1440,900,,,a,11.0667,10,314,1,1,4,16,1,1,1,0,0,0,0,0,1,0,triangle,hexagon,,,,,,,,,,,,,,,,,,,,,,,,,,,,,,,,,,,,,,,,,,,,,,,,,,,,,,
296341,2022-10-05_12h25.24.880,vts_reward_expectancy,2022.2.4,MacIntel,60.0024001,Chrome,1440,900,,,a,4.4662,1,315,1,1,5,17,9,1,0,0,0,1,1,0,0,0,star,triangle,,,,,,,,,,,,,,,,,,,,,,,,,,,,,,,,,,,,,,,,,,,,,,,,,,,,,,
296341,2022-10-05_12h25.24.880,vts_reward_expectancy,2022.2.4,MacIntel,60.0024001,Chrome,1440,900,,,l,7.0853,1,316,1,1,6,18,11,1,0,0,0,1,0,0,1,0,star,hexagon,,,,,,,,,,,,,,,,,,,,,,,,,,,,,,,,,,,,,,,,,,,,,,,,,,,,,,
296341,2022-10-05_12h25.24.880,vts_reward_expectancy,2022.2.4,MacIntel,60.0024001,Chrome,1440,900,,,l,2.9359,1,317,1,1,7,19,0,1,1,0,0,0,0,1,0,0,triangle,circle,,,,,,,,,,,,,,,,,,,,,,,,,,,,,,,,,,,,,,,,,,,,,,,,,,,,,,
296341,2022-10-05_12h25.24.880,vts_reward_expectancy,2022.2.4,MacIntel,60.0024001,Chrome,1440,900,,,a,2.5244,1,318,1,1,8,20,10,1,0,0,0,1,0,1,0,0,star ,circle,,,,,,,,,,,,,,,,,,,,,,,,,,,,,,,,,,,,,,,,,,,,,,,,,,,,,,
296341,2022-10-05_12h25.24.880,vts_reward_expectancy,2022.2.4,MacIntel,60.0024001,Chrome,1440,900,,,a,1.8662,10,328,1,1,9,21,8,1,0,0,1,0,0,0,0,1,hexagon,star,,,,,,,,,,,,,,,,,,,,,,,,,,,,,,,,,,,,,,,,,,,,,,,,,,,,,,
296341,2022-10-05_12h25.24.880,vts_reward_expectancy,2022.2.4,MacIntel,60.0024001,Chrome,1440,900,,,l,7.0221,10,338,1,1,10,22,3,1,0,1,0,0,1,0,0,0,circle,triangle,,,,,,,,,,,,,,,,,,,,,,,,,,,,,,,,,,,,,,,,,,,,,,,,,,,,,,
296341,2022-10-05_12h25.24.880,vts_reward_expectancy,2022.2.4,MacIntel,60.0024001,Chrome,1440,900,,,l,23.893,10,348,1,1,11,23,6,1,0,0,1,0,1,0,0,0,hexagon,triangle,,,,,,,,,,,,,,,,,,,,,,,,,,,,,,,,,,,,,,,,,,,,,,,,,,,,,,
296341,2022-10-05_12h25.24.880,vts_reward_expectancy,2022.2.4,MacIntel,60.0024001,Chrome,1440,900,,,a,3.3328,10,358,1,2,0,24,4,1,0,1,0,0,0,0,1,0,circle,hexagon,,,,,,,,,,,,,,,,,,,,,,,,,,,,,,,,,,,,,,,,,,,,,,,,,,,,,,
296341,2022-10-05_12h25.24.880,vts_reward_expectancy,2022.2.4,MacIntel,60.0024001,Chrome,1440,900,,,a,13.5674,10,368,1,2,1,25,8,1,0,0,1,0,0,0,0,1,hexagon,star,,,,,,,,,,,,,,,,,,,,,,,,,,,,,,,,,,,,,,,,,,,,,,,,,,,,,,
296341,2022-10-05_12h25.24.880,vts_reward_expectancy,2022.2.4,MacIntel,60.0024001,Chrome,1440,900,,,a,7.3994,10,378,1,2,2,26,1,1,1,0,0,0,0,0,1,0,triangle,hexagon,,,,,,,,,,,,,,,,,,,,,,,,,,,,,,,,,,,,,,,,,,,,,,,,,,,,,,
296341,2022-10-05_12h25.24.880,vts_reward_expectancy,2022.2.4,MacIntel,60.0024001,Chrome,1440,900,,,l,5.3487,1,379,1,2,3,27,7,1,0,0,1,0,0,1,0,0,hexagon,circle,,,,,,,,,,,,,,,,,,,,,,,,,,,,,,,,,,,,,,,,,,,,,,,,,,,,,,
296341,2022-10-05_12h25.24.880,vts_reward_expectancy,2022.2.4,MacIntel,60.0024001,Chrome,1440,900,,,a,9.7864,1,380,1,2,4,28,10,1,0,0,0,1,0,1,0,0,star ,circle,,,,,,,,,,,,,,,,,,,,,,,,,,,,,,,,,,,,,,,,,,,,,,,,,,,,,,
296341,2022-10-05_12h25.24.880,vts_reward_expectancy,2022.2.4,MacIntel,60.0024001,Chrome,1440,900,,,l,8.1668,10,390,1,2,5,29,6,1,0,0,1,0,1,0,0,0,hexagon,triangle,,,,,,,,,,,,,,,,,,,,,,,,,,,,,,,,,,,,,,,,,,,,,,,,,,,,,,
296341,2022-10-05_12h25.24.880,vts_reward_expectancy,2022.2.4,MacIntel,60.0024001,Chrome,1440,900,,,l,4.7835,10,400,1,2,6,30,3,1,0,1,0,0,1,0,0,0,circle,triangle,,,,,,,,,,,,,,,,,,,,,,,,,,,,,,,,,,,,,,,,,,,,,,,,,,,,,,
296341,2022-10-05_12h25.24.880,vts_reward_expectancy,2022.2.4,MacIntel,60.0024001,Chrome,1440,900,,,l,5.3837,10,410,1,2,7,31,5,1,0,1,0,0,0,0,0,1,circle,star,,,,,,,,,,,,,,,,,,,,,,,,,,,,,,,,,,,,,,,,,,,,,,,,,,,,,,
296341,2022-10-05_12h25.24.880,vts_reward_expectancy,2022.2.4,MacIntel,60.0024001,Chrome,1440,900,,,a,2.9179,10,420,1,2,8,32,0,1,1,0,0,0,0,1,0,0,triangle,circle,,,,,,,,,,,,,,,,,,,,,,,,,,,,,,,,,,,,,,,,,,,,,,,,,,,,,,
296341,2022-10-05_12h25.24.880,vts_reward_expectancy,2022.2.4,MacIntel,60.0024001,Chrome,1440,900,,,a,11.5518,1,421,1,2,9,33,11,1,0,0,0,1,0,0,1,0,star,hexagon,,,,,,,,,,,,,,,,,,,,,,,,,,,,,,,,,,,,,,,,,,,,,,,,,,,,,,
296341,2022-10-05_12h25.24.880,vts_reward_expectancy,2022.2.4,MacIntel,60.0024001,Chrome,1440,900,,,l,7.3688,10,431,1,2,10,34,2,1,1,0,0,0,0,0,0,1,triangle,star,,,,,,,,,,,,,,,,,,,,,,,,,,,,,,,,,,,,,,,,,,,,,,,,,,,,,,
296341,2022-10-05_12h25.24.880,vts_reward_expectancy,2022.2.4,MacIntel,60.0024001,Chrome,1440,900,,,a,7.6341,1,432,1,2,11,35,9,1,0,0,0,1,1,0,0,0,star,triangle,,,,,,,,,,,,,,,,,,,,,,,,,,,,,,,,,,,,,,,,,,,,,,,,,,,,,,
296341,2022-10-05_12h25.24.880,vts_reward_expectancy,2022.2.4,MacIntel,60.0024001,Chrome,1440,900,,,a,1.8846,10,442,2,0,0,0,2,1,1,0,0,0,0,0,0,1,triangle,star,,,,,,,,,,,,,,,,,,,,,,,,,,,,,,,,,,,,,,,,,,,,,,,,,,,,,,
296341,2022-10-05_12h25.24.880,vts_reward_expectancy,2022.2.4,MacIntel,60.0024001,Chrome,1440,900,,,l,5.9835,1,443,2,0,1,1,10,1,0,0,0,1,0,1,0,0,star ,circle,,,,,,,,,,,,,,,,,,,,,,,,,,,,,,,,,,,,,,,,,,,,,,,,,,,,,,
296341,2022-10-05_12h25.24.880,vts_reward_expectancy,2022.2.4,MacIntel,60.0024001,Chrome,1440,900,,,l,5.8731,1,444,2,0,2,2,5,1,0,1,0,0,0,0,0,1,circle,star,,,,,,,,,,,,,,,,,,,,,,,,,,,,,,,,,,,,,,,,,,,,,,,,,,,,,,
296341,2022-10-05_12h25.24.880,vts_reward_expectancy,2022.2.4,MacIntel,60.0024001,Chrome,1440,900,,,a,8.8163,10,454,2,0,3,3,6,1,0,0,1,0,1,0,0,0,hexagon,triangle,,,,,,,,,,,,,,,,,,,,,,,,,,,,,,,,,,,,,,,,,,,,,,,,,,,,,,
296341,2022-10-05_12h25.24.880,vts_reward_expectancy,2022.2.4,MacIntel,60.0024001,Chrome,1440,900,,,l,4.6011,1,455,2,0,4,4,8,1,0,0,1,0,0,0,0,1,hexagon,star,,,,,,,,,,,,,,,,,,,,,,,,,,,,,,,,,,,,,,,,,,,,,,,,,,,,,,
296341,2022-10-05_12h25.24.880,vts_reward_expectancy,2022.2.4,MacIntel,60.0024001,Chrome,1440,900,,,l,4.8004,10,465,2,0,5,5,1,1,1,0,0,0,0,0,1,0,triangle,hexagon,,,,,,,,,,,,,,,,,,,,,,,,,,,,,,,,,,,,,,,,,,,,,,,,,,,,,,
296341,2022-10-05_12h25.24.880,vts_reward_expectancy,2022.2.4,MacIntel,60.0024001,Chrome,1440,900,,,l,6.7345,1,466,2,0,6,6,3,1,0,1,0,0,1,0,0,0,circle,triangle,,,,,,,,,,,,,,,,,,,,,,,,,,,,,,,,,,,,,,,,,,,,,,,,,,,,,,
296341,2022-10-05_12h25.24.880,vts_reward_expectancy,2022.2.4,MacIntel,60.0024001,Chrome,1440,900,,,a,10.2874,1,467,2,0,7,7,9,1,0,0,0,1,1,0,0,0,star,triangle,,,,,,,,,,,,,,,,,,,,,,,,,,,,,,,,,,,,,,,,,,,,,,,,,,,,,,
296341,2022-10-05_12h25.24.880,vts_reward_expectancy,2022.2.4,MacIntel,60.0024001,Chrome,1440,900,,,l,13.418,1,468,2,0,8,8,0,1,1,0,0,0,0,1,0,0,triangle,circle,,,,,,,,,,,,,,,,,,,,,,,,,,,,,,,,,,,,,,,,,,,,,,,,,,,,,,
296341,2022-10-05_12h25.24.880,vts_reward_expectancy,2022.2.4,MacIntel,60.0024001,Chrome,1440,900,,,a,5.1374,10,478,2,0,9,9,4,1,0,1,0,0,0,0,1,0,circle,hexagon,,,,,,,,,,,,,,,,,,,,,,,,,,,,,,,,,,,,,,,,,,,,,,,,,,,,,,
296341,2022-10-05_12h25.24.880,vts_reward_expectancy,2022.2.4,MacIntel,60.0024001,Chrome,1440,900,,,l,7.7334,10,488,2,0,10,10,7,1,0,0,1,0,0,1,0,0,hexagon,circle,,,,,,,,,,,,,,,,,,,,,,,,,,,,,,,,,,,,,,,,,,,,,,,,,,,,,,
296341,2022-10-05_12h25.24.880,vts_reward_expectancy,2022.2.4,MacIntel,60.0024001,Chrome,1440,900,,,a,6.6208,1,489,2,0,11,11,11,1,0,0,0,1,0,0,1,0,star,hexagon,,,,,,,,,,,,,,,,,,,,,,,,,,,,,,,,,,,,,,,,,,,,,,,,,,,,,,
296341,2022-10-05_12h25.24.880,vts_reward_expectancy,2022.2.4,MacIntel,60.0024001,Chrome,1440,900,,,a,4.5664,10,499,2,1,0,12,8,1,0,0,1,0,0,0,0,1,hexagon,star,,,,,,,,,,,,,,,,,,,,,,,,,,,,,,,,,,,,,,,,,,,,,,,,,,,,,,
296341,2022-10-05_12h25.24.880,vts_reward_expectancy,2022.2.4,MacIntel,60.0024001,Chrome,1440,900,,,a,4.3487,10,509,2,1,1,13,10,1,0,0,0,1,0,1,0,0,star ,circle,,,,,,,,,,,,,,,,,,,,,,,,,,,,,,,,,,,,,,,,,,,,,,,,,,,,,,
296341,2022-10-05_12h25.24.880,vts_reward_expectancy,2022.2.4,MacIntel,60.0024001,Chrome,1440,900,,,l,3.3019,1,510,2,1,2,14,7,1,0,0,1,0,0,1,0,0,hexagon,circle,,,,,,,,,,,,,,,,,,,,,,,,,,,,,,,,,,,,,,,,,,,,,,,,,,,,,,
296341,2022-10-05_12h25.24.880,vts_reward_expectancy,2022.2.4,MacIntel,60.0024001,Chrome,1440,900,,,l,3.4174,1,511,2,1,3,15,1,1,1,0,0,0,0,0,1,0,triangle,hexagon,,,,,,,,,,,,,,,,,,,,,,,,,,,,,,,,,,,,,,,,,,,,,,,,,,,,,,
296341,2022-10-05_12h25.24.880,vts_reward_expectancy,2022.2.4,MacIntel,60.0024001,Chrome,1440,900,,,l,4.2324,10,521,2,1,4,16,9,1,0,0,0,1,1,0,0,0,star,triangle,,,,,,,,,,,,,,,,,,,,,,,,,,,,,,,,,,,,,,,,,,,,,,,,,,,,,,
296341,2022-10-05_12h25.24.880,vts_reward_expectancy,2022.2.4,MacIntel,60.0024001,Chrome,1440,900,,,a,3.7837,1,522,2,1,5,17,3,1,0,1,0,0,1,0,0,0,circle,triangle,,,,,,,,,,,,,,,,,,,,,,,,,,,,,,,,,,,,,,,,,,,,,,,,,,,,,,
296341,2022-10-05_12h25.24.880,vts_reward_expectancy,2022.2.4,MacIntel,60.0024001,Chrome,1440,900,,,a,5.4664,1,523,2,1,6,18,5,1,0,1,0,0,0,0,0,1,circle,star,,,,,,,,,,,,,,,,,,,,,,,,,,,,,,,,,,,,,,,,,,,,,,,,,,,,,,
296341,2022-10-05_12h25.24.880,vts_reward_expectancy,2022.2.4,MacIntel,60.0024001,Chrome,1440,900,,,l,4.0392,10,533,2,1,7,19,11,1,0,0,0,1,0,0,1,0,star,hexagon,,,,,,,,,,,,,,,,,,,,,,,,,,,,,,,,,,,,,,,,,,,,,,,,,,,,,,
296341,2022-10-05_12h25.24.880,vts_reward_expectancy,2022.2.4,MacIntel,60.0024001,Chrome,1440,900,,,a,5.3651,10,543,2,1,8,20,0,1,1,0,0,0,0,1,0,0,triangle,circle,,,,,,,,,,,,,,,,,,,,,,,,,,,,,,,,,,,,,,,,,,,,,,,,,,,,,,
296341,2022-10-05_12h25.24.880,vts_reward_expectancy,2022.2.4,MacIntel,60.0024001,Chrome,1440,900,,,a,5.2997,10,553,2,1,9,21,6,1,0,0,1,0,1,0,0,0,hexagon,triangle,,,,,,,,,,,,,,,,,,,,,,,,,,,,,,,,,,,,,,,,,,,,,,,,,,,,,,
296341,2022-10-05_12h25.24.880,vts_reward_expectancy,2022.2.4,MacIntel,60.0024001,Chrome,1440,900,,,a,2.9184,10,563,2,1,10,22,2,1,1,0,0,0,0,0,0,1,triangle,star,,,,,,,,,,,,,,,,,,,,,,,,,,,,,,,,,,,,,,,,,,,,,,,,,,,,,,
296341,2022-10-05_12h25.24.880,vts_reward_expectancy,2022.2.4,MacIntel,60.0024001,Chrome,1440,900,,,a,3.4849,1,564,2,1,11,23,4,1,0,1,0,0,0,0,1,0,circle,hexagon,,,,,,,,,,,,,,,,,,,,,,,,,,,,,,,,,,,,,,,,,,,,,,,,,,,,,,
296341,2022-10-05_12h25.24.880,vts_reward_expectancy,2022.2.4,MacIntel,60.0024001,Chrome,1440,900,,,l,3.8486,10,574,2,2,0,24,0,1,1,0,0,0,0,1,0,0,triangle,circle,,,,,,,,,,,,,,,,,,,,,,,,,,,,,,,,,,,,,,,,,,,,,,,,,,,,,,
296341,2022-10-05_12h25.24.880,vts_reward_expectancy,2022.2.4,MacIntel,60.0024001,Chrome,1440,900,,,a,8.3212,10,584,2,2,1,25,3,1,0,1,0,0,1,0,0,0,circle,triangle,,,,,,,,,,,,,,,,,,,,,,,,,,,,,,,,,,,,,,,,,,,,,,,,,,,,,,
296341,2022-10-05_12h25.24.880,vts_reward_expectancy,2022.2.4,MacIntel,60.0024001,Chrome,1440,900,,,a,1.4174,1,585,2,2,2,26,4,1,0,1,0,0,0,0,1,0,circle,hexagon,,,,,,,,,,,,,,,,,,,,,,,,,,,,,,,,,,,,,,,,,,,,,,,,,,,,,,
296341,2022-10-05_12h25.24.880,vts_reward_expectancy,2022.2.4,MacIntel,60.0024001,Chrome,1440,900,,,l,3.8881,10,595,2,2,3,27,11,1,0,0,0,1,0,0,1,0,star,hexagon,,,,,,,,,,,,,,,,,,,,,,,,,,,,,,,,,,,,,,,,,,,,,,,,,,,,,,
296341,2022-10-05_12h25.24.880,vts_reward_expectancy,2022.2.4,MacIntel,60.0024001,Chrome,1440,900,,,a,5.4368,10,605,2,2,4,28,10,1,0,0,0,1,0,1,0,0,star ,circle,,,,,,,,,,,,,,,,,,,,,,,,,,,,,,,,,,,,,,,,,,,,,,,,,,,,,,
296341,2022-10-05_12h25.24.880,vts_reward_expectancy,2022.2.4,MacIntel,60.0024001,Chrome,1440,900,,,a,3.5163,1,606,2,2,5,29,6,1,0,0,1,0,1,0,0,0,hexagon,triangle,,,,,,,,,,,,,,,,,,,,,,,,,,,,,,,,,,,,,,,,,,,,,,,,,,,,,,
296341,2022-10-05_12h25.24.880,vts_reward_expectancy,2022.2.4,MacIntel,60.0024001,Chrome,1440,900,,,a,3.9852,1,607,2,2,6,30,1,1,1,0,0,0,0,0,1,0,triangle,hexagon,,,,,,,,,,,,,,,,,,,,,,,,,,,,,,,,,,,,,,,,,,,,,,,,,,,,,,
296341,2022-10-05_12h25.24.880,vts_reward_expectancy,2022.2.4,MacIntel,60.0024001,Chrome,1440,900,,,a,4.2675,10,617,2,2,7,31,8,1,0,0,1,0,0,0,0,1,hexagon,star,,,,,,,,,,,,,,,,,,,,,,,,,,,,,,,,,,,,,,,,,,,,,,,,,,,,,,
296341,2022-10-05_12h25.24.880,vts_reward_expectancy,2022.2.4,MacIntel,60.0024001,Chrome,1440,900,,,l,2.5489,10,627,2,2,8,32,9,1,0,0,0,1,1,0,0,0,star,triangle,,,,,,,,,,,,,,,,,,,,,,,,,,,,,,,,,,,,,,,,,,,,,,,,,,,,,,
296341,2022-10-05_12h25.24.880,vts_reward_expectancy,2022.2.4,MacIntel,60.0024001,Chrome,1440,900,,,a,1.3482,1,628,2,2,9,33,7,1,0,0,1,0,0,1,0,0,hexagon,circle,,,,,,,,,,,,,,,,,,,,,,,,,,,,,,,,,,,,,,,,,,,,,,,,,,,,,,
296341,2022-10-05_12h25.24.880,vts_reward_expectancy,2022.2.4,MacIntel,60.0024001,Chrome,1440,900,,,a,2.8311,10,638,2,2,10,34,5,1,0,1,0,0,0,0,0,1,circle,star,,,,,,,,,,,,,,,,,,,,,,,,,,,,,,,,,,,,,,,,,,,,,,,,,,,,,,
296341,2022-10-05_12h25.24.880,vts_reward_expectancy,2022.2.4,MacIntel,60.0024001,Chrome,1440,900,,,a,5.2559,10,648,2,2,11,35,2,1,1,0,0,0,0,0,0,1,triangle,star,,,,,,,,,,,,,,,,,,,,,,,,,,,,,,,,,,,,,,,,,,,,,,,,,,,,,,
296341,2022-10-05_12h25.24.880,vts_reward_expectancy,2022.2.4,MacIntel,60.0024001,Chrome,1440,900,,,,,,,,,,,,,,,,,,,,,,,H,146,hexagon,1,0,d,2.0142,0,0,0,0,0,1,,,,,,,,,,,,,,,,,,,,,,,,,,,,,,,,,,,,,,,,,
296341,2022-10-05_12h25.24.880,vts_reward_expectancy,2022.2.4,MacIntel,60.0024001,Chrome,1440,900,,,,,,,,,,,,,,,,,,,,,,,B,125,star,0,0,,,0,1,0,1,0,1,,,,,,,,,,,,,,,,,,,,,,,,,,,,,,,,,,,,,,,,,
296341,2022-10-05_12h25.24.880,vts_reward_expectancy,2022.2.4,MacIntel,60.0024001,Chrome,1440,900,,,,,,,,,,,,,,,,,,,,,,,W,167,triangle,1,1,f,0.6205,0,2,0,2,0,1,,,,,,,,,,,,,,,,,,,,,,,,,,,,,,,,,,,,,,,,,
296341,2022-10-05_12h25.24.880,vts_reward_expectancy,2022.2.4,MacIntel,60.0024001,Chrome,1440,900,,,,,,,,,,,,,,,,,,,,,,,Y,181,circle,1,0,f,0.5813,0,3,0,3,0,1,,,,,,,,,,,,,,,,,,,,,,,,,,,,,,,,,,,,,,,,,
296341,2022-10-05_12h25.24.880,vts_reward_expectancy,2022.2.4,MacIntel,60.0024001,Chrome,1440,900,,,,,,,,,,,,,,,,,,,,,,,D,139,hexagon,1,0,d,0.6521,0,4,0,4,0,1,,,,,,,,,,,,,,,,,,,,,,,,,,,,,,,,,,,,,,,,,
296341,2022-10-05_12h25.24.880,vts_reward_expectancy,2022.2.4,MacIntel,60.0024001,Chrome,1440,900,,,,,,,,,,,,,,,,,,,,,,,U,174,star,1,0,f,0.5315,0,5,0,5,0,1,,,,,,,,,,,,,,,,,,,,,,,,,,,,,,,,,,,,,,,,,
296341,2022-10-05_12h25.24.880,vts_reward_expectancy,2022.2.4,MacIntel,60.0024001,Chrome,1440,900,,,,,,,,,,,,,,,,,,,,,,,S,160,triangle,1,0,f,0.8644,0,6,0,6,0,1,,,,,,,,,,,,,,,,,,,,,,,,,,,,,,,,,,,,,,,,,
296341,2022-10-05_12h25.24.880,vts_reward_expectancy,2022.2.4,MacIntel,60.0024001,Chrome,1440,900,,,,,,,,,,,,,,,,,,,,,,,F,132,circle,1,0,d,1.186,0,7,0,7,0,1,,,,,,,,,,,,,,,,,,,,,,,,,,,,,,,,,,,,,,,,,
296341,2022-10-05_12h25.24.880,vts_reward_expectancy,2022.2.4,MacIntel,60.0024001,Chrome,1440,900,,,,,,,,,,,,,,,,,,,,,,,H,146,star,1,0,d,0.5386,0,8,0,8,0,1,,,,,,,,,,,,,,,,,,,,,,,,,,,,,,,,,,,,,,,,,
296341,2022-10-05_12h25.24.880,vts_reward_expectancy,2022.2.4,MacIntel,60.0024001,Chrome,1440,900,,,,,,,,,,,,,,,,,,,,,,,B,125,hexagon,1,0,d,0.6699,0,9,0,9,0,1,,,,,,,,,,,,,,,,,,,,,,,,,,,,,,,,,,,,,,,,,
296341,2022-10-05_12h25.24.880,vts_reward_expectancy,2022.2.4,MacIntel,60.0024001,Chrome,1440,900,,,,,,,,,,,,,,,,,,,,,,,U,174,star,1,0,,,1,,,,,,k,1.8141,0,0,0,0,1,,,,,,,,,,,,,,,,,,,,,,,,,,,,,,,,,,
296341,2022-10-05_12h25.24.880,vts_reward_expectancy,2022.2.4,MacIntel,60.0024001,Chrome,1440,900,,,,,,,,,,,,,,,,,,,,,,,W,132,circle,1,0,,,1,,,,,,j,0.7456,1,0,1,0,1,,,,,,,,,,,,,,,,,,,,,,,,,,,,,,,,,,
296341,2022-10-05_12h25.24.880,vts_reward_expectancy,2022.2.4,MacIntel,60.0024001,Chrome,1440,900,,,,,,,,,,,,,,,,,,,,,,,H,125,hexagon,1,0,,,1,,,,,,j,0.7815,2,0,2,0,1,,,,,,,,,,,,,,,,,,,,,,,,,,,,,,,,,,
296341,2022-10-05_12h25.24.880,vts_reward_expectancy,2022.2.4,MacIntel,60.0024001,Chrome,1440,900,,,,,,,,,,,,,,,,,,,,,,,Y,167,triangle,1,0,,,1,,,,,,k,0.6816,3,0,3,0,1,,,,,,,,,,,,,,,,,,,,,,,,,,,,,,,,,,
296341,2022-10-05_12h25.24.880,vts_reward_expectancy,2022.2.4,MacIntel,60.0024001,Chrome,1440,900,,,,,,,,,,,,,,,,,,,,,,,F,160,star,1,0,,,1,,,,,,k,0.7146,4,0,4,0,1,,,,,,,,,,,,,,,,,,,,,,,,,,,,,,,,,,
296341,2022-10-05_12h25.24.880,vts_reward_expectancy,2022.2.4,MacIntel,60.0024001,Chrome,1440,900,,,,,,,,,,,,,,,,,,,,,,,D,139,circle,1,0,,,1,,,,,,j,0.9517,5,0,5,0,1,,,,,,,,,,,,,,,,,,,,,,,,,,,,,,,,,,
296341,2022-10-05_12h25.24.880,vts_reward_expectancy,2022.2.4,MacIntel,60.0024001,Chrome,1440,900,,,,,,,,,,,,,,,,,,,,,,,B,146,hexagon,1,0,,,1,,,,,,j,0.9971,6,0,6,0,1,,,,,,,,,,,,,,,,,,,,,,,,,,,,,,,,,,
296341,2022-10-05_12h25.24.880,vts_reward_expectancy,2022.2.4,MacIntel,60.0024001,Chrome,1440,900,,,,,,,,,,,,,,,,,,,,,,,S,181,triangle,1,0,,,1,,,,,,k,0.7795,7,0,7,0,1,,,,,,,,,,,,,,,,,,,,,,,,,,,,,,,,,,
296341,2022-10-05_12h25.24.880,vts_reward_expectancy,2022.2.4,MacIntel,60.0024001,Chrome,1440,900,,,,,,,,,,,,,,,,,,,,,,,U,174,star,1,0,,,1,,,,,,k,0.6477,8,0,8,0,1,,,,,,,,,,,,,,,,,,,,,,,,,,,,,,,,,,
296341,2022-10-05_12h25.24.880,vts_reward_expectancy,2022.2.4,MacIntel,60.0024001,Chrome,1440,900,,,,,,,,,,,,,,,,,,,,,,,W,132,circle,1,0,,,1,,,,,,j,0.9469,9,0,9,0,1,,,,,,,,,,,,,,,,,,,,,,,,,,,,,,,,,,
296341,2022-10-05_12h25.24.880,vts_reward_expectancy,2022.2.4,MacIntel,60.0024001,Chrome,1440,900,,,,,0,648,,,,,,,,,,,,,,,,,S,125,star,1,0,,,2,,,,,,,,,,,,,-1,number,NA,j,1.0752,vtsPrac,0,0,0,0,1,,,,,,,,,,,,,,,,,,,,,,,
296341,2022-10-05_12h25.24.880,vts_reward_expectancy,2022.2.4,MacIntel,60.0024001,Chrome,1440,900,,,,,0,648,,,,,,,,,,,,,,,,,Y,167,hexagon,1,0,,,2,,,,,,,,,,,,,switch,letter,lettSwt,f,1.0359,vtsPrac,1,0,1,0,1,,,,,,,,,,,,,,,,,,,,,,,
296341,2022-10-05_12h25.24.880,vts_reward_expectancy,2022.2.4,MacIntel,60.0024001,Chrome,1440,900,,,,,0,648,,,,,,,,,,,,,,,,,B,174,star,1,0,,,2,,,,,,,,,,,,,repeat,letter,lettRpt,d,0.5947,vtsPrac,2,0,2,0,1,,,,,,,,,,,,,,,,,,,,,,,
296341,2022-10-05_12h25.24.880,vts_reward_expectancy,2022.2.4,MacIntel,60.0024001,Chrome,1440,900,,,,,0,648,,,,,,,,,,,,,,,,,F,160,hexagon,1,0,,,2,,,,,,,,,,,,,repeat,letter,lettRpt,d,0.6974,vtsPrac,3,0,3,0,1,,,,,,,,,,,,,,,,,,,,,,,
296341,2022-10-05_12h25.24.880,vts_reward_expectancy,2022.2.4,MacIntel,60.0024001,Chrome,1440,900,,,,,0,648,,,,,,,,,,,,,,,,,S,125,hexagon,1,0,,,2,,,,,,,,,,,,,switch,number,numSwt,j,0.6471,vtsPrac,4,0,4,0,1,,,,,,,,,,,,,,,,,,,,,,,
296341,2022-10-05_12h25.24.880,vts_reward_expectancy,2022.2.4,MacIntel,60.0024001,Chrome,1440,900,,,,,0,648,,,,,,,,,,,,,,,,,Y,167,star,1,0,,,2,,,,,,,,,,,,,repeat,number,numRpt,k,0.8316,vtsPrac,5,0,5,0,1,,,,,,,,,,,,,,,,,,,,,,,
296341,2022-10-05_12h25.24.880,vts_reward_expectancy,2022.2.4,MacIntel,60.0024001,Chrome,1440,900,,,,,0,648,,,,,,,,,,,,,,,,,B,174,triangle,1,0,,,2,,,,,,,,,,,,,repeat,number,numRpt,k,0.6308,vtsPrac,6,0,6,0,1,,,,,,,,,,,,,,,,,,,,,,,
296341,2022-10-05_12h25.24.880,vts_reward_expectancy,2022.2.4,MacIntel,60.0024001,Chrome,1440,900,,,,,0,648,,,,,,,,,,,,,,,,,F,160,star,1,0,,,2,,,,,,,,,,,,,repeat,number,numRpt,k,0.9301,vtsPrac,7,0,7,0,1,,,,,,,,,,,,,,,,,,,,,,,
296341,2022-10-05_12h25.24.880,vts_reward_expectancy,2022.2.4,MacIntel,60.0024001,Chrome,1440,900,,,,,0,648,,,,,,,,,,,,,,,,,S,160,triangle,1,0,,,2,,,,,,,,,,,,,repeat,number,numRpt,k,0.7993,vtsPrac,8,0,8,0,1,,,,,,,,,,,,,,,,,,,,,,,
296341,2022-10-05_12h25.24.880,vts_reward_expectancy,2022.2.4,MacIntel,60.0024001,Chrome,1440,900,,,,,0,648,,,,,,,,,,,,,,,,,H,139,hexagon,1,0,,,2,,,,,,,,,,,,,switch,letter,lettSwt,d,0.6834,vtsPrac,9,0,9,0,1,,,,,,,,,,,,,,,,,,,,,,,
296341,2022-10-05_12h25.24.880,vts_reward_expectancy,2022.2.4,MacIntel,60.0024001,Chrome,1440,900,,,,,0,648,,,,,,,,,,,,,,,,,B,132,triangle,1,0,,,2,,,,,,,,,,,,,switch,number,numSwt,j,0.9148,vtsPrac,10,0,10,0,1,,,,,,,,,,,,,,,,,,,,,,,
296341,2022-10-05_12h25.24.880,vts_reward_expectancy,2022.2.4,MacIntel,60.0024001,Chrome,1440,900,,,,,0,648,,,,,,,,,,,,,,,,,F,167,hexagon,1,0,,,2,,,,,,,,,,,,,repeat,number,numRpt,k,0.6308,vtsPrac,11,0,11,0,1,,,,,,,,,,,,,,,,,,,,,,,
296341,2022-10-05_12h25.24.880,vts_reward_expectancy,2022.2.4,MacIntel,60.0024001,Chrome,1440,900,,,,,0,648,,,,,,,,,,,,,,,,,B,160,star,1,0,,,2,,,,,,,,,,,,,switch,letter,lettSwt,d,0.6647,vtsPrac,12,0,12,0,1,,,,,,,,,,,,,,,,,,,,,,,
296341,2022-10-05_12h25.24.880,vts_reward_expectancy,2022.2.4,MacIntel,60.0024001,Chrome,1440,900,,,,,0,648,,,,,,,,,,,,,,,,,Y,181,circle,1,0,,,2,,,,,,,,,,,,,repeat,letter,lettRpt,f,0.5808,vtsPrac,13,0,13,0,1,,,,,,,,,,,,,,,,,,,,,,,
296341,2022-10-05_12h25.24.880,vts_reward_expectancy,2022.2.4,MacIntel,60.0024001,Chrome,1440,900,,,,,0,648,,,,,,,,,,,,,,,,,S,132,star,1,0,,,2,,,,,,,,,,,,,repeat,letter,lettRpt,f,0.865,vtsPrac,14,0,14,0,1,,,,,,,,,,,,,,,,,,,,,,,
296341,2022-10-05_12h25.24.880,vts_reward_expectancy,2022.2.4,MacIntel,60.0024001,Chrome,1440,900,,,,,0,648,,,,,,,,,,,,,,,,,D,125,triangle,1,0,,,2,,,,,,,,,,,,,repeat,letter,lettRpt,d,0.6626,vtsPrac,15,0,15,0,1,,,,,,,,,,,,,,,,,,,,,,,
296341,2022-10-05_12h25.24.880,vts_reward_expectancy,2022.2.4,MacIntel,60.0024001,Chrome,1440,900,,,,,,,,,,,,,,,,,,,,,,,,,,,,,,,,,,,,,,,,,,,,,,,,,,,,,,,,,,,,,,,,,,,,,,,,,,,,
296341,2022-10-05_12h25.24.880,vts_reward_expectancy,2022.2.4,MacIntel,60.0024001,Chrome,1440,900,,,,,,,,,,,,,,,,,,,,,,,,,,,,,,,,,,,,,,,,,,,,,,,,,,,,,,,,,,,,,,,,,,,,,,,,,,,,
296341,2022-10-05_12h25.24.880,vts_reward_expectancy,2022.2.4,MacIntel,60.0024001,Chrome,1440,900,,,,,0,648,,,,,,,,,,,,,,,,,S,174,hexagon,1,0,,,,,,,,,,,,,,,,repeat,letter,lettRpt,f,0.8152,noRew,,,,,,0,0,0,0,0,1,,,,,,,,,,,,,,,,,
296341,2022-10-05_12h25.24.880,vts_reward_expectancy,2022.2.4,MacIntel,60.0024001,Chrome,1440,900,,,,,0,648,,,,,,,,,,,,,,,,,B,160,star,1,0,,,,,,,,,,,,,,,,repeat,letter,lettRpt,d,0.6142,noRew,,,,,,0,1,0,1,0,1,,,,,,,,,,,,,,,,,
296341,2022-10-05_12h25.24.880,vts_reward_expectancy,2022.2.4,MacIntel,60.0024001,Chrome,1440,900,,,,,0,648,,,,,,,,,,,,,,,,,F,125,hexagon,1,0,,,,,,,,,,,,,,,,switch,number,numSwt,j,1.021,noRew,,,,,,0,2,0,2,0,1,,,,,,,,,,,,,,,,,
296341,2022-10-05_12h25.24.880,vts_reward_expectancy,2022.2.4,MacIntel,60.0024001,Chrome,1440,900,,,,,0,648,,,,,,,,,,,,,,,,,U,139,star,1,0,,,,,,,,,,,,,,,,repeat,number,numRpt,j,0.7202,noRew,,,,,,0,3,0,3,0,1,,,,,,,,,,,,,,,,,
296341,2022-10-05_12h25.24.880,vts_reward_expectancy,2022.2.4,MacIntel,60.0024001,Chrome,1440,900,,,,,0,648,,,,,,,,,,,,,,,,,S,174,triangle,1,0,,,,,,,,,,,,,,,,repeat,number,numRpt,k,0.5475,noRew,,,,,,0,4,0,4,0,1,,,,,,,,,,,,,,,,,
296341,2022-10-05_12h25.24.880,vts_reward_expectancy,2022.2.4,MacIntel,60.0024001,Chrome,1440,900,,,,,0,648,,,,,,,,,,,,,,,,,B,160,star,1,0,,,,,,,,,,,,,,,,switch,letter,lettSwt,d,0.5637,noRew,,,,,,0,5,0,5,0,1,,,,,,,,,,,,,,,,,
296341,2022-10-05_12h25.24.880,vts_reward_expectancy,2022.2.4,MacIntel,60.0024001,Chrome,1440,900,,,,,0,648,,,,,,,,,,,,,,,,,F,125,circle,1,0,,,,,,,,,,,,,,,,repeat,letter,lettRpt,d,0.8143,noRew,,,,,,0,6,0,6,0,1,,,,,,,,,,,,,,,,,
296341,2022-10-05_12h25.24.880,vts_reward_expectancy,2022.2.4,MacIntel,60.0024001,Chrome,1440,900,,,,,0,648,,,,,,,,,,,,,,,,,U,139,triangle,1,0,,,,,,,,,,,,,,,,switch,number,numSwt,j,0.6311,noRew,,,,,,0,7,0,7,0,1,,,,,,,,,,,,,,,,,
296341,2022-10-05_12h25.24.880,vts_reward_expectancy,2022.2.4,MacIntel,60.0024001,Chrome,1440,900,,,,,0,648,,,,,,,,,,,,,,,,,B,181,hexagon,1,0,,,,,,,,,,,,,,,,switch,letter,lettSwt,d,0.6296,noRew,,,,,,0,8,0,8,0,1,,,,,,,,,,,,,,,,,
296341,2022-10-05_12h25.24.880,vts_reward_expectancy,2022.2.4,MacIntel,60.0024001,Chrome,1440,900,,,,,0,648,,,,,,,,,,,,,,,,,H,132,triangle,1,0,,,,,,,,,,,,,,,,repeat,letter,lettRpt,d,0.7815,noRew,,,,,,0,9,0,9,0,1,,,,,,,,,,,,,,,,,
296341,2022-10-05_12h25.24.880,vts_reward_expectancy,2022.2.4,MacIntel,60.0024001,Chrome,1440,900,,,,,0,648,,,,,,,,,,,,,,,,,Y,167,hexagon,1,0,,,,,,,,,,,,,,,,switch,number,numSwt,k,0.8644,noRew,,,,,,0,10,0,10,0,1,,,,,,,,,,,,,,,,,
296341,2022-10-05_12h25.24.880,vts_reward_expectancy,2022.2.4,MacIntel,60.0024001,Chrome,1440,900,,,,,0,648,,,,,,,,,,,,,,,,,U,139,triangle,1,0,,,,,,,,,,,,,,,,repeat,number,numRpt,j,1.2483,noRew,,,,,,0,11,0,11,0,1,,,,,,,,,,,,,,,,,
296341,2022-10-05_12h25.24.880,vts_reward_expectancy,2022.2.4,MacIntel,60.0024001,Chrome,1440,900,,,,,0,648,,,,,,,,,,,,,,,,,B,146,circle,1,0,,,,,,,,,,,,,,,,switch,letter,lettSwt,d,0.8324,noRew,,,,,,0,12,0,12,0,1,,,,,,,,,,,,,,,,,
296341,2022-10-05_12h25.24.880,vts_reward_expectancy,2022.2.4,MacIntel,60.0024001,Chrome,1440,900,,,,,0,648,,,,,,,,,,,,,,,,,W,174,triangle,1,0,,,,,,,,,,,,,,,,switch,number,numSwt,k,0.6302,noRew,,,,,,0,13,0,13,0,1,,,,,,,,,,,,,,,,,
296341,2022-10-05_12h25.24.880,vts_reward_expectancy,2022.2.4,MacIntel,60.0024001,Chrome,1440,900,,,,,0,648,,,,,,,,,,,,,,,,,H,167,hexagon,1,0,,,,,,,,,,,,,,,,repeat,number,numRpt,k,0.6181,noRew,,,,,,0,14,0,14,0,1,,,,,,,,,,,,,,,,,
296341,2022-10-05_12h25.24.880,vts_reward_expectancy,2022.2.4,MacIntel,60.0024001,Chrome,1440,900,,,,,0,648,,,,,,,,,,,,,,,,,F,160,circle,1,0,,,,,,,,,,,,,,,,repeat,number,numRpt,k,0.6315,noRew,,,,,,0,15,0,15,0,1,,,,,,,,,,,,,,,,,
296341,2022-10-05_12h25.24.880,vts_reward_expectancy,2022.2.4,MacIntel,60.0024001,Chrome,1440,900,,,,,0,648,,,,,,,,,,,,,,,,,D,160,triangle,1,0,,,,,,,,,,,,,,,,switch,letter,lettSwt,d,0.6497,noRew,,,,,,0,16,0,16,0,1,,,,,,,,,,,,,,,,,
296341,2022-10-05_12h25.24.880,vts_reward_expectancy,2022.2.4,MacIntel,60.0024001,Chrome,1440,900,,,,,0,648,,,,,,,,,,,,,,,,,W,174,hexagon,1,0,,,,,,,,,,,,,,,,repeat,letter,lettRpt,f,1.5633,noRew,,,,,,0,17,0,17,0,1,,,,,,,,,,,,,,,,,
296341,2022-10-05_12h25.24.880,vts_reward_expectancy,2022.2.4,MacIntel,60.0024001,Chrome,1440,900,,,,,0,648,,,,,,,,,,,,,,,,,U,132,triangle,1,0,,,,,,,,,,,,,,,,switch,number,numSwt,j,0.881,noRew,,,,,,0,18,0,18,0,1,,,,,,,,,,,,,,,,,
296341,2022-10-05_12h25.24.880,vts_reward_expectancy,2022.2.4,MacIntel,60.0024001,Chrome,1440,900,,,,,0,648,,,,,,,,,,,,,,,,,Y,181,hexagon,1,0,,,,,,,,,,,,,,,,switch,letter,lettSwt,f,0.714,noRew,,,,,,0,19,0,19,0,1,,,,,,,,,,,,,,,,,
296341,2022-10-05_12h25.24.880,vts_reward_expectancy,2022.2.4,MacIntel,60.0024001,Chrome,1440,900,,,,,0,648,,,,,,,,,,,,,,,,,H,132,star,1,0,,,,,,,,,,,,,,,,repeat,letter,lettRpt,d,0.8469,noRew,,,,,,0,20,0,20,0,1,,,,,,,,,,,,,,,,,
296341,2022-10-05_12h25.24.880,vts_reward_expectancy,2022.2.4,MacIntel,60.0024001,Chrome,1440,900,,,,,0,648,,,,,,,,,,,,,,,,,W,181,triangle,1,0,,,,,,,,,,,,,,,,switch,number,numSwt,k,0.9536,noRew,,,,,,0,21,0,21,0,1,,,,,,,,,,,,,,,,,
296341,2022-10-05_12h25.24.880,vts_reward_expectancy,2022.2.4,MacIntel,60.0024001,Chrome,1440,900,,,,,0,648,,,,,,,,,,,,,,,,,B,174,triangle,1,0,,,,,,,,,,,,,,,,repeat,number,numRpt,k,0.7466,noRew,,,,,,0,22,0,22,0,1,,,,,,,,,,,,,,,,,
296341,2022-10-05_12h25.24.880,vts_reward_expectancy,2022.2.4,MacIntel,60.0024001,Chrome,1440,900,,,,,0,648,,,,,,,,,,,,,,,,,U,146,circle,1,0,,,,,,,,,,,,,,,,switch,letter,lettSwt,f,0.7362,noRew,,,,,,0,23,0,23,0,1,,,,,,,,,,,,,,,,,
296341,2022-10-05_12h25.24.880,vts_reward_expectancy,2022.2.4,MacIntel,60.0024001,Chrome,1440,900,,,,,0,648,,,,,,,,,,,,,,,,,D,132,circle,1,0,,,,,,,,,,,,,,,,switch,number,numSwt,j,1.0144,noRew,,,,,,0,24,0,24,0,1,,,,,,,,,,,,,,,,,
296341,2022-10-05_12h25.24.880,vts_reward_expectancy,2022.2.4,MacIntel,60.0024001,Chrome,1440,900,,,,,0,648,,,,,,,,,,,,,,,,,U,181,triangle,1,0,,,,,,,,,,,,,,,,switch,letter,lettSwt,f,0.7643,noRew,,,,,,0,25,0,25,0,1,,,,,,,,,,,,,,,,,
296341,2022-10-05_12h25.24.880,vts_reward_expectancy,2022.2.4,MacIntel,60.0024001,Chrome,1440,900,,,,,0,648,,,,,,,,,,,,,,,,,B,125,triangle,1,0,,,,,,,,,,,,,,,,repeat,letter,lettRpt,d,0.8143,noRew,,,,,,0,26,0,26,0,1,,,,,,,,,,,,,,,,,
296341,2022-10-05_12h25.24.880,vts_reward_expectancy,2022.2.4,MacIntel,60.0024001,Chrome,1440,900,,,,,0,648,,,,,,,,,,,,,,,,,S,174,star,1,0,,,,,,,,,,,,,,,,switch,number,numSwt,k,0.8807,noRew,,,,,,0,27,0,27,0,1,,,,,,,,,,,,,,,,,
296341,2022-10-05_12h25.24.880,vts_reward_expectancy,2022.2.4,MacIntel,60.0024001,Chrome,1440,900,,,,,0,648,,,,,,,,,,,,,,,,,B,160,hexagon,1,0,,,,,,,,,,,,,,,,repeat,number,numRpt,k,1.2479,noRew,,,,,,0,28,0,28,0,1,,,,,,,,,,,,,,,,,
296341,2022-10-05_12h25.24.880,vts_reward_expectancy,2022.2.4,MacIntel,60.0024001,Chrome,1440,900,,,,,0,648,,,,,,,,,,,,,,,,,D,125,star,1,0,,,,,,,,,,,,,,,,repeat,number,numRpt,j,0.915,noRew,,,,,,0,29,0,29,0,1,,,,,,,,,,,,,,,,,
296341,2022-10-05_12h25.24.880,vts_reward_expectancy,2022.2.4,MacIntel,60.0024001,Chrome,1440,900,,,,,0,648,,,,,,,,,,,,,,,,,S,181,star,1,0,,,,,,,,,,,,,,,,switch,letter,lettSwt,f,0.9318,noRew,,,,,,0,30,0,30,0,1,,,,,,,,,,,,,,,,,
296341,2022-10-05_12h25.24.880,vts_reward_expectancy,2022.2.4,MacIntel,60.0024001,Chrome,1440,900,,,,,0,648,,,,,,,,,,,,,,,,,U,146,triangle,1,0,,,,,,,,,,,,,,,,switch,number,numSwt,j,1.1303,noRew,,,,,,0,31,0,31,0,1,,,,,,,,,,,,,,,,,
296341,2022-10-05_12h25.24.880,vts_reward_expectancy,2022.2.4,MacIntel,60.0024001,Chrome,1440,900,,,,,0,648,,,,,,,,,,,,,,,,,F,174,star,1,0,,,,,,,,,,,,,,,,repeat,number,numRpt,k,1.1796,noRew,,,,,,0,32,0,32,0,1,,,,,,,,,,,,,,,,,
296341,2022-10-05_12h25.24.880,vts_reward_expectancy,2022.2.4,MacIntel,60.0024001,Chrome,1440,900,,,,,0,648,,,,,,,,,,,,,,,,,D,139,hexagon,1,0,,,,,,,,,,,,,,,,switch,letter,lettSwt,d,0.6802,noRew,,,,,,0,33,0,33,0,1,,,,,,,,,,,,,,,,,
296341,2022-10-05_12h25.24.880,vts_reward_expectancy,2022.2.4,MacIntel,60.0024001,Chrome,1440,900,,,,,0,648,,,,,,,,,,,,,,,,,U,167,star,1,0,,,,,,,,,,,,,,,,repeat,letter,lettRpt,f,0.6964,noRew,,,,,,0,34,0,34,0,1,,,,,,,,,,,,,,,,,
296341,2022-10-05_12h25.24.880,vts_reward_expectancy,2022.2.4,MacIntel,60.0024001,Chrome,1440,900,,,,,0,648,,,,,,,,,,,,,,,,,H,125,triangle,1,0,,,,,,,,,,,,,,,,repeat,letter,lettRpt,d,0.8527,noRew,,,,,,0,35,0,35,0,1,,,,,,,,,,,,,,,,,
296341,2022-10-05_12h25.24.880,vts_reward_expectancy,2022.2.4,MacIntel,60.0024001,Chrome,1440,900,,,,,0,648,,,,,,,,,,,,,,,,,B,167,hexagon,1,0,,,,,,,,,,,,,,,,switch,number,numSwt,k,0.7804,noRew,,,,,,0,36,0,36,0,1,,,,,,,,,,,,,,,,,
296341,2022-10-05_12h25.24.880,vts_reward_expectancy,2022.2.4,MacIntel,60.0024001,Chrome,1440,900,,,,,0,648,,,,,,,,,,,,,,,,,U,181,star,1,0,,,,,,,,,,,,,,,,switch,letter,lettSwt,f,1.047,noRew,,,,,,0,37,0,37,0,1,,,,,,,,,,,,,,,,,
296341,2022-10-05_12h25.24.880,vts_reward_expectancy,2022.2.4,MacIntel,60.0024001,Chrome,1440,900,,,,,0,648,,,,,,,,,,,,,,,,,W,125,hexagon,1,0,,,,,,,,,,,,,,,,switch,number,numSwt,j,0.8642,noRew,,,,,,0,38,0,38,0,1,,,,,,,,,,,,,,,,,
296341,2022-10-05_12h25.24.880,vts_reward_expectancy,2022.2.4,MacIntel,60.0024001,Chrome,1440,900,,,,,0,648,,,,,,,,,,,,,,,,,Y,132,star,1,0,,,,,,,,,,,,,,,,switch,letter,lettSwt,f,0.7807,noRew,,,,,,0,39,0,39,0,1,,,,,,,,,,,,,,,,,
296341,2022-10-05_12h25.24.880,vts_reward_expectancy,2022.2.4,MacIntel,60.0024001,Chrome,1440,900,,,,,0,648,,,,,,,,,,,,,,,,,U,160,star,1,0,,,,,,,,,,,,,,,,repeat,letter,lettRpt,f,0.7126,noRew,,,,,,0,40,0,40,0,1,,,,,,,,,,,,,,,,,
296341,2022-10-05_12h25.24.880,vts_reward_expectancy,2022.2.4,MacIntel,60.0024001,Chrome,1440,900,,,,,0,648,,,,,,,,,,,,,,,,,Y,132,hexagon,1,0,,,,,,,,,,,,,,,,switch,number,numSwt,j,0.7857,noRew,,,,,,0,41,0,41,0,1,,,,,,,,,,,,,,,,,
296341,2022-10-05_12h25.24.880,vts_reward_expectancy,2022.2.4,MacIntel,60.0024001,Chrome,1440,900,,,,,0,648,,,,,,,,,,,,,,,,,F,125,circle,1,0,,,,,,,,,,,,,,,,repeat,number,numRpt,j,0.7133,noRew,,,,,,0,42,0,42,0,1,,,,,,,,,,,,,,,,,
296341,2022-10-05_12h25.24.880,vts_reward_expectancy,2022.2.4,MacIntel,60.0024001,Chrome,1440,900,,,,,0,648,,,,,,,,,,,,,,,,,W,146,triangle,1,0,,,,,,,,,,,,,,,,repeat,number,numRpt,j,1.0499,noRew,,,,,,0,43,0,43,0,1,,,,,,,,,,,,,,,,,
296341,2022-10-05_12h25.24.880,vts_reward_expectancy,2022.2.4,MacIntel,60.0024001,Chrome,1440,900,,,,,0,648,,,,,,,,,,,,,,,,,W,174,circle,1,0,,,,,,,,,,,,,,,,switch,letter,lettSwt,f,0.8356,noRew,,,,,,0,44,0,44,0,1,,,,,,,,,,,,,,,,,
296341,2022-10-05_12h25.24.880,vts_reward_expectancy,2022.2.4,MacIntel,60.0024001,Chrome,1440,900,,,,,0,648,,,,,,,,,,,,,,,,,Y,125,triangle,1,0,,,,,,,,,,,,,,,,repeat,letter,lettRpt,f,0.8469,noRew,,,,,,0,45,0,45,0,1,,,,,,,,,,,,,,,,,
296341,2022-10-05_12h25.24.880,vts_reward_expectancy,2022.2.4,MacIntel,60.0024001,Chrome,1440,900,,,,,0,648,,,,,,,,,,,,,,,,,S,132,circle,1,0,,,,,,,,,,,,,,,,switch,number,numSwt,j,0.8636,noRew,,,,,,0,46,0,46,0,1,,,,,,,,,,,,,,,,,
296341,2022-10-05_12h25.24.880,vts_reward_expectancy,2022.2.4,MacIntel,60.0024001,Chrome,1440,900,,,,,0,648,,,,,,,,,,,,,,,,,D,139,star,1,0,,,,,,,,,,,,,,,,switch,letter,lettSwt,d,0.8035,noRew,,,,,,0,47,0,47,0,1,,,,,,,,,,,,,,,,,
296341,2022-10-05_12h25.24.880,vts_reward_expectancy,2022.2.4,MacIntel,60.0024001,Chrome,1440,900,,,,,0,648,,,,,,,,,,,,,,,,,H,146,circle,1,0,,,,,,,,,,,,,,,,switch,number,numSwt,j,0.9496,noRew,,,,,,0,48,0,48,0,1,,,,,,,,,,,,,,,,,
296341,2022-10-05_12h25.24.880,vts_reward_expectancy,2022.2.4,MacIntel,60.0024001,Chrome,1440,900,,,,,0,648,,,,,,,,,,,,,,,,,D,160,star,1,0,,,,,,,,,,,,,,,,repeat,number,numRpt,k,1.3052,noRew,,,,,,0,49,0,49,0,1,,,,,,,,,,,,,,,,,
296341,2022-10-05_12h25.24.880,vts_reward_expectancy,2022.2.4,MacIntel,60.0024001,Chrome,1440,900,,,,,0,648,,,,,,,,,,,,,,,,,Y,132,triangle,1,0,,,,,,,,,,,,,,,,switch,letter,lettSwt,f,0.8342,noRew,,,,,,0,50,0,50,0,1,,,,,,,,,,,,,,,,,
296341,2022-10-05_12h25.24.880,vts_reward_expectancy,2022.2.4,MacIntel,60.0024001,Chrome,1440,900,,,,,0,648,,,,,,,,,,,,,,,,,S,125,hexagon,1,0,,,,,,,,,,,,,,,,repeat,letter,lettRpt,f,0.7848,noRew,,,,,,0,51,0,51,0,1,,,,,,,,,,,,,,,,,
296341,2022-10-05_12h25.24.880,vts_reward_expectancy,2022.2.4,MacIntel,60.0024001,Chrome,1440,900,,,,,0,648,,,,,,,,,,,,,,,,,U,125,circle,1,0,,,,,,,,,,,,,,,,repeat,letter,lettRpt,f,0.6392,noRew,,,,,,0,52,0,52,0,1,,,,,,,,,,,,,,,,,
296341,2022-10-05_12h25.24.880,vts_reward_expectancy,2022.2.4,MacIntel,60.0024001,Chrome,1440,900,,,,,0,648,,,,,,,,,,,,,,,,,Y,139,star,1,0,,,,,,,,,,,,,,,,repeat,letter,lettRpt,f,0.882,noRew,,,,,,0,53,0,53,0,1,,,,,,,,,,,,,,,,,
296341,2022-10-05_12h25.24.880,vts_reward_expectancy,2022.2.4,MacIntel,60.0024001,Chrome,1440,900,,,,,0,648,,,,,,,,,,,,,,,,,D,181,triangle,1,0,,,,,,,,,,,,,,,,switch,number,numSwt,k,0.8194,noRew,,,,,,0,54,0,54,0,1,,,,,,,,,,,,,,,,,
296341,2022-10-05_12h25.24.880,vts_reward_expectancy,2022.2.4,MacIntel,60.0024001,Chrome,1440,900,,,,,0,648,,,,,,,,,,,,,,,,,B,146,star,1,0,,,,,,,,,,,,,,,,switch,letter,lettSwt,d,0.6984,noRew,,,,,,0,55,0,55,0,1,,,,,,,,,,,,,,,,,
296341,2022-10-05_12h25.24.880,vts_reward_expectancy,2022.2.4,MacIntel,60.0024001,Chrome,1440,900,,,,,0,648,,,,,,,,,,,,,,,,,D,167,triangle,1,0,,,,,,,,,,,,,,,,repeat,letter,lettRpt,d,0.6684,noRew,,,,,,0,56,0,56,0,1,,,,,,,,,,,,,,,,,
296341,2022-10-05_12h25.24.880,vts_reward_expectancy,2022.2.4,MacIntel,60.0024001,Chrome,1440,900,,,,,0,648,,,,,,,,,,,,,,,,,H,139,hexagon,1,0,,,,,,,,,,,,,,,,switch,number,numSwt,j,1.3506,noRew,,,,,,0,57,0,57,0,1,,,,,,,,,,,,,,,,,
296341,2022-10-05_12h25.24.880,vts_reward_expectancy,2022.2.4,MacIntel,60.0024001,Chrome,1440,900,,,,,0,648,,,,,,,,,,,,,,,,,W,146,circle,1,0,,,,,,,,,,,,,,,,repeat,number,numRpt,j,1.02,noRew,,,,,,0,58,0,58,0,1,,,,,,,,,,,,,,,,,
296341,2022-10-05_12h25.24.880,vts_reward_expectancy,2022.2.4,MacIntel,60.0024001,Chrome,1440,900,,,,,0,648,,,,,,,,,,,,,,,,,S,125,hexagon,1,0,,,,,,,,,,,,,,,,repeat,number,numRpt,j,0.8636,noRew,,,,,,0,59,0,59,0,1,,,,,,,,,,,,,,,,,
296341,2022-10-05_12h25.24.880,vts_reward_expectancy,2022.2.4,MacIntel,60.0024001,Chrome,1440,900,,,,,0,648,,,,,,,,,,,,,,,,,B,125,hexagon,1,0,,,,,,,,,,,,,,,,switch,letter,lettSwt,d,0.7647,noRew,,,,,,0,60,0,60,0,1,,,,,,,,,,,,,,,,,
296341,2022-10-05_12h25.24.880,vts_reward_expectancy,2022.2.4,MacIntel,60.0024001,Chrome,1440,900,,,,,0,648,,,,,,,,,,,,,,,,,H,174,star,1,0,,,,,,,,,,,,,,,,switch,number,numSwt,k,1.1311,noRew,,,,,,0,61,0,61,0,1,,,,,,,,,,,,,,,,,
296341,2022-10-05_12h25.24.880,vts_reward_expectancy,2022.2.4,MacIntel,60.0024001,Chrome,1440,900,,,,,0,648,,,,,,,,,,,,,,,,,W,160,triangle,1,0,,,,,,,,,,,,,,,,repeat,number,numRpt,k,0.8975,noRew,,,,,,0,62,0,62,0,1,,,,,,,,,,,,,,,,,
296341,2022-10-05_12h25.24.880,vts_reward_expectancy,2022.2.4,MacIntel,60.0024001,Chrome,1440,900,,,,,0,648,,,,,,,,,,,,,,,,,F,132,circle,1,0,,,,,,,,,,,,,,,,switch,letter,lettSwt,d,0.8324,noRew,,,,,,0,63,0,63,0,1,,,,,,,,,,,,,,,,,
296341,2022-10-05_12h25.24.880,vts_reward_expectancy,2022.2.4,MacIntel,60.0024001,Chrome,1440,900,,,,,,,,,,,,,,,,,,,,,,,,,,,,,,,,,,,,,,,,,,,,,,,,,,,,,,,,,,,,,,,,,,,,,,,,,,,,
296341,2022-10-05_12h25.24.880,vts_reward_expectancy,2022.2.4,MacIntel,60.0024001,Chrome,1440,900,,,,,0,648,,,,,,,,,,,,,,,,,W,139,hexagon,1,0,,,,,,,,,,,,,,,,repeat,letter,lettRpt,f,1.5802,Hi,,,,,,0,,,,,,space,9.2504,high,0,0,0,0,1,,,,,,,,,
296341,2022-10-05_12h25.24.880,vts_reward_expectancy,2022.2.4,MacIntel,60.0024001,Chrome,1440,900,,,,,1,649,,,,,,,,,,,,,,,,,D,160,star,1,0,,,,,,,,,,,,,,,,repeat,letter,lettRpt,d,0.569,Lo,,,,,,0,,,,,,,,high,1,0,1,0,1,,,,,,,,,
296341,2022-10-05_12h25.24.880,vts_reward_expectancy,2022.2.4,MacIntel,60.0024001,Chrome,1440,900,,,,,10,659,,,,,,,,,,,,,,,,,F,174,hexagon,1,0,,,,,,,,,,,,,,,,switch,number,numSwt,k,0.4478,Hi,,,,,,0,,,,,,,,high,2,0,2,0,1,,,,,,,,,
296341,2022-10-05_12h25.24.880,vts_reward_expectancy,2022.2.4,MacIntel,60.0024001,Chrome,1440,900,,,,,10,669,,,,,,,,,,,,,,,,,U,181,star,1,0,,,,,,,,,,,,,,,,switch,letter,lettSwt,f,0.9634,Lo,,,,,,0,,,,,,,,high,3,0,3,0,1,,,,,,,,,
296341,2022-10-05_12h25.24.880,vts_reward_expectancy,2022.2.4,MacIntel,60.0024001,Chrome,1440,900,,,,,0,669,,,,,,,,,,,,,,,,,S,167,hexagon,1,0,,,,,,,,,,,,,,,,switch,number,numSwt,k,0.8642,Hi,,,,,,0,,,,,,,,high,4,0,4,0,1,,,,,,,,,
296341,2022-10-05_12h25.24.880,vts_reward_expectancy,2022.2.4,MacIntel,60.0024001,Chrome,1440,900,,,,,1,670,,,,,,,,,,,,,,,,,H,146,star,1,0,,,,,,,,,,,,,,,,switch,letter,lettSwt,d,0.517,Lo,,,,,,0,,,,,,,,high,5,0,5,0,1,,,,,,,,,
296341,2022-10-05_12h25.24.880,vts_reward_expectancy,2022.2.4,MacIntel,60.0024001,Chrome,1440,900,,,,,1,671,,,,,,,,,,,,,,,,,B,125,star,1,0,,,,,,,,,,,,,,,,switch,number,numSwt,j,0.5306,Lo,,,,,,0,,,,,,,,high,6,0,6,0,1,,,,,,,,,
296341,2022-10-05_12h25.24.880,vts_reward_expectancy,2022.2.4,MacIntel,60.0024001,Chrome,1440,900,,,,,10,681,,,,,,,,,,,,,,,,,Y,132,hexagon,1,0,,,,,,,,,,,,,,,,repeat,number,numRpt,j,0.5681,Hi,,,,,,0,,,,,,,,high,7,0,7,0,1,,,,,,,,,
296341,2022-10-05_12h25.24.880,vts_reward_expectancy,2022.2.4,MacIntel,60.0024001,Chrome,1440,900,,,,,1,682,,,,,,,,,,,,,,,,,W,139,hexagon,1,0,,,,,,,,,,,,,,,,repeat,number,numRpt,j,0.6324,Hi,,,,,,0,,,,,,,,high,8,0,8,0,1,,,,,,,,,
296341,2022-10-05_12h25.24.880,vts_reward_expectancy,2022.2.4,MacIntel,60.0024001,Chrome,1440,900,,,,,10,692,,,,,,,,,,,,,,,,,D,160,star,1,0,,,,,,,,,,,,,,,,switch,letter,lettSwt,d,0.5479,Lo,,,,,,0,,,,,,,,high,9,0,9,0,1,,,,,,,,,
296341,2022-10-05_12h25.24.880,vts_reward_expectancy,2022.2.4,MacIntel,60.0024001,Chrome,1440,900,,,,,10,702,,,,,,,,,,,,,,,,,F,174,star,1,0,,,,,,,,,,,,,,,,repeat,letter,lettRpt,d,0.8473,Lo,,,,,,0,,,,,,,,high,10,0,10,0,1,,,,,,,,,
296341,2022-10-05_12h25.24.880,vts_reward_expectancy,2022.2.4,MacIntel,60.0024001,Chrome,1440,900,,,,,10,712,,,,,,,,,,,,,,,,,U,181,hexagon,1,0,,,,,,,,,,,,,,,,switch,number,numSwt,k,0.6149,Hi,,,,,,0,,,,,,,,high,11,0,11,0,1,,,,,,,,,
296341,2022-10-05_12h25.24.880,vts_reward_expectancy,2022.2.4,MacIntel,60.0024001,Chrome,1440,900,,,,,10,722,,,,,,,,,,,,,,,,,S,167,hexagon,1,0,,,,,,,,,,,,,,,,switch,letter,lettSwt,f,0.5512,Hi,,,,,,0,,,,,,,,high,12,0,12,0,1,,,,,,,,,
296341,2022-10-05_12h25.24.880,vts_reward_expectancy,2022.2.4,MacIntel,60.0024001,Chrome,1440,900,,,,,1,723,,,,,,,,,,,,,,,,,H,146,star,1,0,,,,,,,,,,,,,,,,repeat,letter,lettRpt,d,0.9318,Lo,,,,,,0,,,,,,,,high,13,0,13,0,1,,,,,,,,,
296341,2022-10-05_12h25.24.880,vts_reward_expectancy,2022.2.4,MacIntel,60.0024001,Chrome,1440,900,,,,,10,733,,,,,,,,,,,,,,,,,B,125,hexagon,1,0,,,,,,,,,,,,,,,,switch,number,numSwt,j,0.5516,Hi,,,,,,0,,,,,,,,high,14,0,14,0,1,,,,,,,,,
296341,2022-10-05_12h25.24.880,vts_reward_expectancy,2022.2.4,MacIntel,60.0024001,Chrome,1440,900,,,,,1,734,,,,,,,,,,,,,,,,,Y,132,star,1,0,,,,,,,,,,,,,,,,switch,letter,lettSwt,f,0.6814,Lo,,,,,,0,,,,,,,,high,15,0,15,0,1,,,,,,,,,
296341,2022-10-05_12h25.24.880,vts_reward_expectancy,2022.2.4,MacIntel,60.0024001,Chrome,1440,900,,,,,1,735,,,,,,,,,,,,,,,,,F,174,star,1,0,,,,,,,,,,,,,,,,repeat,letter,lettRpt,d,0.6813,Lo,,,,,,0,,,,,,,,high,16,0,16,0,1,,,,,,,,,
296341,2022-10-05_12h25.24.880,vts_reward_expectancy,2022.2.4,MacIntel,60.0024001,Chrome,1440,900,,,,,10,745,,,,,,,,,,,,,,,,,U,125,hexagon,1,0,,,,,,,,,,,,,,,,switch,number,numSwt,j,0.5804,Hi,,,,,,0,,,,,,,,high,17,0,17,0,1,,,,,,,,,
296341,2022-10-05_12h25.24.880,vts_reward_expectancy,2022.2.4,MacIntel,60.0024001,Chrome,1440,900,,,,,0,745,,,,,,,,,,,,,,,,,B,146,hexagon,1,0,,,,,,,,,,,,,,,,repeat,number,numRpt,j,0.834,Hi,,,,,,0,,,,,,,,high,18,0,18,0,1,,,,,,,,,
296341,2022-10-05_12h25.24.880,vts_reward_expectancy,2022.2.4,MacIntel,60.0024001,Chrome,1440,900,,,,,1,746,,,,,,,,,,,,,,,,,W,181,star,1,0,,,,,,,,,,,,,,,,repeat,number,numRpt,k,0.4679,Lo,,,,,,0,,,,,,,,high,19,0,19,0,1,,,,,,,,,
296341,2022-10-05_12h25.24.880,vts_reward_expectancy,2022.2.4,MacIntel,60.0024001,Chrome,1440,900,,,,,1,747,,,,,,,,,,,,,,,,,D,139,star,1,0,,,,,,,,,,,,,,,,repeat,number,numRpt,j,0.5128,Lo,,,,,,0,,,,,,,,high,20,0,20,0,1,,,,,,,,,
296341,2022-10-05_12h25.24.880,vts_reward_expectancy,2022.2.4,MacIntel,60.0024001,Chrome,1440,900,,,,,10,757,,,,,,,,,,,,,,,,,Y,132,hexagon,1,0,,,,,,,,,,,,,,,,repeat,number,numRpt,j,0.6474,Hi,,,,,,0,,,,,,,,high,21,0,21,0,1,,,,,,,,,
296341,2022-10-05_12h25.24.880,vts_reward_expectancy,2022.2.4,MacIntel,60.0024001,Chrome,1440,900,,,,,10,767,,,,,,,,,,,,,,,,,S,160,hexagon,1,0,,,,,,,,,,,,,,,,repeat,number,numRpt,k,0.5302,Hi,,,,,,0,,,,,,,,high,22,0,22,0,1,,,,,,,,,
296341,2022-10-05_12h25.24.880,vts_reward_expectancy,2022.2.4,MacIntel,60.0024001,Chrome,1440,900,,,,,1,768,,,,,,,,,,,,,,,,,H,167,star,1,0,,,,,,,,,,,,,,,,switch,letter,lettSwt,d,0.5869,Lo,,,,,,0,,,,,,,,high,23,0,23,0,1,,,,,,,,,
296341,2022-10-05_12h25.24.880,vts_reward_expectancy,2022.2.4,MacIntel,60.0024001,Chrome,1440,900,,,,,10,778,,,,,,,,,,,,,,,,,F,181,hexagon,1,0,,,,,,,,,,,,,,,,repeat,letter,lettRpt,d,0.6526,Hi,,,,,,0,,,,,,,,high,24,0,24,0,1,,,,,,,,,
296341,2022-10-05_12h25.24.880,vts_reward_expectancy,2022.2.4,MacIntel,60.0024001,Chrome,1440,900,,,,,1,779,,,,,,,,,,,,,,,,,W,167,star,1,0,,,,,,,,,,,,,,,,repeat,letter,lettRpt,f,0.7141,Lo,,,,,,0,,,,,,,,high,25,0,25,0,1,,,,,,,,,
296341,2022-10-05_12h25.24.880,vts_reward_expectancy,2022.2.4,MacIntel,60.0024001,Chrome,1440,900,,,,,1,780,,,,,,,,,,,,,,,,,S,139,star,1,0,,,,,,,,,,,,,,,,repeat,letter,lettRpt,f,0.6109,Lo,,,,,,0,,,,,,,,high,26,0,26,0,1,,,,,,,,,
296341,2022-10-05_12h25.24.880,vts_reward_expectancy,2022.2.4,MacIntel,60.0024001,Chrome,1440,900,,,,,0,780,,,,,,,,,,,,,,,,,U,160,hexagon,1,0,,,,,,,,,,,,,,,,switch,number,numSwt,k,0.9148,Hi,,,,,,0,,,,,,,,high,27,0,27,0,1,,,,,,,,,
296341,2022-10-05_12h25.24.880,vts_reward_expectancy,2022.2.4,MacIntel,60.0024001,Chrome,1440,900,,,,,10,790,,,,,,,,,,,,,,,,,Y,132,hexagon,1,0,,,,,,,,,,,,,,,,repeat,number,numRpt,j,0.585,Hi,,,,,,0,,,,,,,,high,28,0,28,0,1,,,,,,,,,
296341,2022-10-05_12h25.24.880,vts_reward_expectancy,2022.2.4,MacIntel,60.0024001,Chrome,1440,900,,,,,1,791,,,,,,,,,,,,,,,,,B,174,star,1,0,,,,,,,,,,,,,,,,switch,letter,lettSwt,d,0.4841,Lo,,,,,,0,,,,,,,,high,29,0,29,0,1,,,,,,,,,
296341,2022-10-05_12h25.24.880,vts_reward_expectancy,2022.2.4,MacIntel,60.0024001,Chrome,1440,900,,,,,10,801,,,,,,,,,,,,,,,,,H,125,hexagon,1,0,,,,,,,,,,,,,,,,repeat,letter,lettRpt,d,0.6134,Hi,,,,,,0,,,,,,,,high,30,0,30,0,1,,,,,,,,,
296341,2022-10-05_12h25.24.880,vts_reward_expectancy,2022.2.4,MacIntel,60.0024001,Chrome,1440,900,,,,,10,811,,,,,,,,,,,,,,,,,D,146,star,1,0,,,,,,,,,,,,,,,,switch,number,numSwt,j,0.75,Lo,,,,,,0,,,,,,,,high,31,0,31,0,1,,,,,,,,,
296341,2022-10-05_12h25.24.880,vts_reward_expectancy,2022.2.4,MacIntel,60.0024001,Chrome,1440,900,,,,,1,812,,,,,,,,,,,,,,,,,F,125,circle,1,0,,,,,,,,,,,,,,,,switch,letter,lettSwt,d,0.7818,Lo,,,,,,1,,,,,,space,3.4897,low,0,0,0,0,1,,,,,,,,,
296341,2022-10-05_12h25.24.880,vts_reward_expectancy,2022.2.4,MacIntel,60.0024001,Chrome,1440,900,,,,,0,812,,,,,,,,,,,,,,,,,D,174,triangle,1,0,,,,,,,,,,,,,,,,repeat,letter,lettRpt,d,0.7309,Hi,,,,,,1,,,,,,,,low,1,0,1,0,1,,,,,,,,,
296341,2022-10-05_12h25.24.880,vts_reward_expectancy,2022.2.4,MacIntel,60.0024001,Chrome,1440,900,,,,,1,813,,,,,,,,,,,,,,,,,U,146,circle,1,0,,,,,,,,,,,,,,,,switch,number,numSwt,j,0.7471,Lo,,,,,,1,,,,,,,,low,2,0,2,0,1,,,,,,,,,
296341,2022-10-05_12h25.24.880,vts_reward_expectancy,2022.2.4,MacIntel,60.0024001,Chrome,1440,900,,,,,10,823,,,,,,,,,,,,,,,,,B,181,triangle,1,0,,,,,,,,,,,,,,,,repeat,number,numRpt,k,0.5144,Hi,,,,,,1,,,,,,,,low,3,0,3,0,1,,,,,,,,,
296341,2022-10-05_12h25.24.880,vts_reward_expectancy,2022.2.4,MacIntel,60.0024001,Chrome,1440,900,,,,,10,833,,,,,,,,,,,,,,,,,W,132,triangle,1,0,,,,,,,,,,,,,,,,switch,letter,lettSwt,f,0.5147,Hi,,,,,,1,,,,,,,,low,4,0,4,0,1,,,,,,,,,
296341,2022-10-05_12h25.24.880,vts_reward_expectancy,2022.2.4,MacIntel,60.0024001,Chrome,1440,900,,,,,1,834,,,,,,,,,,,,,,,,,Y,160,circle,1,0,,,,,,,,,,,,,,,,repeat,letter,lettRpt,f,0.6141,Lo,,,,,,1,,,,,,,,low,5,0,5,0,1,,,,,,,,,
296341,2022-10-05_12h25.24.880,vts_reward_expectancy,2022.2.4,MacIntel,60.0024001,Chrome,1440,900,,,,,0,834,,,,,,,,,,,,,,,,,S,167,triangle,1,0,,,,,,,,,,,,,,,,switch,number,numSwt,k,0.6981,Hi,,,,,,1,,,,,,,,low,6,0,6,0,1,,,,,,,,,
296341,2022-10-05_12h25.24.880,vts_reward_expectancy,2022.2.4,MacIntel,60.0024001,Chrome,1440,900,,,,,10,844,,,,,,,,,,,,,,,,,H,139,circle,1,0,,,,,,,,,,,,,,,,repeat,number,numRpt,j,0.765,Lo,,,,,,1,,,,,,,,low,7,0,7,0,1,,,,,,,,,
296341,2022-10-05_12h25.24.880,vts_reward_expectancy,2022.2.4,MacIntel,60.0024001,Chrome,1440,900,,,,,0,844,,,,,,,,,,,,,,,,,F,125,triangle,1,0,,,,,,,,,,,,,,,,repeat,number,numRpt,j,0.7817,Hi,,,,,,1,,,,,,,,low,8,0,8,0,1,,,,,,,,,
296341,2022-10-05_12h25.24.880,vts_reward_expectancy,2022.2.4,MacIntel,60.0024001,Chrome,1440,900,,,,,1,845,,,,,,,,,,,,,,,,,D,174,circle,1,0,,,,,,,,,,,,,,,,switch,letter,lettSwt,d,0.4644,Lo,,,,,,1,,,,,,,,low,9,0,9,0,1,,,,,,,,,
296341,2022-10-05_12h25.24.880,vts_reward_expectancy,2022.2.4,MacIntel,60.0024001,Chrome,1440,900,,,,,10,855,,,,,,,,,,,,,,,,,U,146,circle,1,0,,,,,,,,,,,,,,,,repeat,letter,lettRpt,f,0.5351,Lo,,,,,,1,,,,,,,,low,10,0,10,0,1,,,,,,,,,
296341,2022-10-05_12h25.24.880,vts_reward_expectancy,2022.2.4,MacIntel,60.0024001,Chrome,1440,900,,,,,10,865,,,,,,,,,,,,,,,,,B,181,triangle,1,0,,,,,,,,,,,,,,,,repeat,letter,lettRpt,d,0.5144,Hi,,,,,,1,,,,,,,,low,11,0,11,0,1,,,,,,,,,
296341,2022-10-05_12h25.24.880,vts_reward_expectancy,2022.2.4,MacIntel,60.0024001,Chrome,1440,900,,,,,10,875,,,,,,,,,,,,,,,,,W,132,triangle,1,0,,,,,,,,,,,,,,,,switch,number,numSwt,j,0.4628,Hi,,,,,,1,,,,,,,,low,12,0,12,0,1,,,,,,,,,
296341,2022-10-05_12h25.24.880,vts_reward_expectancy,2022.2.4,MacIntel,60.0024001,Chrome,1440,900,,,,,1,876,,,,,,,,,,,,,,,,,Y,160,circle,1,0,,,,,,,,,,,,,,,,repeat,number,numRpt,k,0.5308,Lo,,,,,,1,,,,,,,,low,13,0,13,0,1,,,,,,,,,
296341,2022-10-05_12h25.24.880,vts_reward_expectancy,2022.2.4,MacIntel,60.0024001,Chrome,1440,900,,,,,1,877,,,,,,,,,,,,,,,,,S,167,circle,1,0,,,,,,,,,,,,,,,,switch,letter,lettSwt,f,0.5875,Lo,,,,,,1,,,,,,,,low,14,0,14,0,1,,,,,,,,,
296341,2022-10-05_12h25.24.880,vts_reward_expectancy,2022.2.4,MacIntel,60.0024001,Chrome,1440,900,,,,,0,877,,,,,,,,,,,,,,,,,H,139,triangle,1,0,,,,,,,,,,,,,,,,switch,number,numSwt,j,0.6564,Hi,,,,,,1,,,,,,,,low,15,0,15,0,1,,,,,,,,,
296341,2022-10-05_12h25.24.880,vts_reward_expectancy,2022.2.4,MacIntel,60.0024001,Chrome,1440,900,,,,,0,877,,,,,,,,,,,,,,,,,Y,146,triangle,1,0,,,,,,,,,,,,,,,,repeat,number,numRpt,j,0.5984,Hi,,,,,,1,,,,,,,,low,16,0,16,0,1,,,,,,,,,
296341,2022-10-05_12h25.24.880,vts_reward_expectancy,2022.2.4,MacIntel,60.0024001,Chrome,1440,900,,,,,0,877,,,,,,,,,,,,,,,,,F,132,circle,0,0,,,,,,,,,,,,,,,,switch,letter,NA,f,0.5135,Hi,,,,,,1,,,,,,,,low,17,0,17,0,1,,,,,,,,,
296341,2022-10-05_12h25.24.880,vts_reward_expectancy,2022.2.4,MacIntel,60.0024001,Chrome,1440,900,,,,,1,878,,,,,,,,,,,,,,,,,H,160,circle,1,1,,,,,,,,,,,,,,,,repeat,letter,lettRpt,d,0.5845,Lo,,,,,,1,,,,,,,,low,18,0,18,0,1,,,,,,,,,
296341,2022-10-05_12h25.24.880,vts_reward_expectancy,2022.2.4,MacIntel,60.0024001,Chrome,1440,900,,,,,10,888,,,,,,,,,,,,,,,,,U,167,triangle,1,0,,,,,,,,,,,,,,,,repeat,letter,lettRpt,f,0.4652,Hi,,,,,,1,,,,,,,,low,19,0,19,0,1,,,,,,,,,
296341,2022-10-05_12h25.24.880,vts_reward_expectancy,2022.2.4,MacIntel,60.0024001,Chrome,1440,900,,,,,10,898,,,,,,,,,,,,,,,,,D,181,circle,1,0,,,,,,,,,,,,,,,,repeat,letter,lettRpt,d,0.5641,Lo,,,,,,1,,,,,,,,low,20,0,20,0,1,,,,,,,,,
296341,2022-10-05_12h25.24.880,vts_reward_expectancy,2022.2.4,MacIntel,60.0024001,Chrome,1440,900,,,,,10,908,,,,,,,,,,,,,,,,,B,125,triangle,1,0,,,,,,,,,,,,,,,,switch,number,numSwt,j,0.5044,Hi,,,,,,1,,,,,,,,low,21,0,21,0,1,,,,,,,,,
296341,2022-10-05_12h25.24.880,vts_reward_expectancy,2022.2.4,MacIntel,60.0024001,Chrome,1440,900,,,,,10,918,,,,,,,,,,,,,,,,,S,139,triangle,1,0,,,,,,,,,,,,,,,,repeat,number,numRpt,j,0.5052,Hi,,,,,,1,,,,,,,,low,22,0,22,0,1,,,,,,,,,
296341,2022-10-05_12h25.24.880,vts_reward_expectancy,2022.2.4,MacIntel,60.0024001,Chrome,1440,900,,,,,1,919,,,,,,,,,,,,,,,,,W,174,circle,1,0,,,,,,,,,,,,,,,,repeat,number,numRpt,k,0.4643,Lo,,,,,,1,,,,,,,,low,23,0,23,0,1,,,,,,,,,
296341,2022-10-05_12h25.24.880,vts_reward_expectancy,2022.2.4,MacIntel,60.0024001,Chrome,1440,900,,,,,0,919,,,,,,,,,,,,,,,,,S,160,triangle,1,0,,,,,,,,,,,,,,,,switch,letter,lettSwt,f,0.6641,Hi,,,,,,1,,,,,,,,low,24,0,24,0,1,,,,,,,,,
296341,2022-10-05_12h25.24.880,vts_reward_expectancy,2022.2.4,MacIntel,60.0024001,Chrome,1440,900,,,,,1,920,,,,,,,,,,,,,,,,,D,167,circle,1,0,,,,,,,,,,,,,,,,repeat,letter,lettRpt,d,0.5016,Lo,,,,,,1,,,,,,,,low,25,0,25,0,1,,,,,,,,,
296341,2022-10-05_12h25.24.880,vts_reward_expectancy,2022.2.4,MacIntel,60.0024001,Chrome,1440,900,,,,,1,921,,,,,,,,,,,,,,,,,B,139,circle,1,0,,,,,,,,,,,,,,,,repeat,letter,lettRpt,d,0.5197,Lo,,,,,,1,,,,,,,,low,26,0,26,0,1,,,,,,,,,
296341,2022-10-05_12h25.24.880,vts_reward_expectancy,2022.2.4,MacIntel,60.0024001,Chrome,1440,900,,,,,0,921,,,,,,,,,,,,,,,,,H,174,triangle,1,0,,,,,,,,,,,,,,,,switch,number,numSwt,k,0.5962,Hi,,,,,,1,,,,,,,,low,27,0,27,0,1,,,,,,,,,
296341,2022-10-05_12h25.24.880,vts_reward_expectancy,2022.2.4,MacIntel,60.0024001,Chrome,1440,900,,,,,0,921,,,,,,,,,,,,,,,,,Y,132,triangle,1,0,,,,,,,,,,,,,,,,repeat,number,numRpt,j,0.5645,Hi,,,,,,1,,,,,,,,low,28,0,28,0,1,,,,,,,,,
296341,2022-10-05_12h25.24.880,vts_reward_expectancy,2022.2.4,MacIntel,60.0024001,Chrome,1440,900,,,,,1,922,,,,,,,,,,,,,,,,,U,181,circle,1,0,,,,,,,,,,,,,,,,repeat,number,numRpt,k,0.5143,Lo,,,,,,1,,,,,,,,low,29,0,29,0,1,,,,,,,,,
296341,2022-10-05_12h25.24.880,vts_reward_expectancy,2022.2.4,MacIntel,60.0024001,Chrome,1440,900,,,,,10,932,,,,,,,,,,,,,,,,,F,146,triangle,1,0,,,,,,,,,,,,,,,,repeat,number,numRpt,j,0.4708,Hi,,,,,,1,,,,,,,,low,30,0,30,0,1,,,,,,,,,
296341,2022-10-05_12h25.24.880,vts_reward_expectancy,2022.2.4,MacIntel,60.0024001,Chrome,1440,900,,,,,1,933,,,,,,,,,,,,,,,,,W,125,circle,1,0,,,,,,,,,,,,,,,,switch,letter,lettSwt,f,0.666,Lo,,,,,,1,,,,,,,,low,31,0,31,0,1,,,,,,,,,
296341,2022-10-05_12h25.24.880,vts_reward_expectancy,2022.2.4,MacIntel,60.0024001,Chrome,1440,900,,,,,0,933,,,,,,,,,,,,,,,,,W,146,triangle,1,0,,,,,,,,,,,,,,,,repeat,letter,lettRpt,f,0.8895,Hi,,,,,,2,,,,,,space,2.5407,low,0,0,0,0,1,,,,,,,,,
296341,2022-10-05_12h25.24.880,vts_reward_expectancy,2022.2.4,MacIntel,60.0024001,Chrome,1440,900,,,,,1,934,,,,,,,,,,,,,,,,,B,160,circle,1,0,,,,,,,,,,,,,,,,repeat,letter,lettRpt,d,0.4051,Lo,,,,,,2,,,,,,,,low,1,0,1,0,1,,,,,,,,,
296341,2022-10-05_12h25.24.880,vts_reward_expectancy,2022.2.4,MacIntel,60.0024001,Chrome,1440,900,,,,,0,934,,,,,,,,,,,,,,,,,U,139,triangle,1,0,,,,,,,,,,,,,,,,switch,number,numSwt,j,0.9986,Hi,,,,,,2,,,,,,,,low,2,0,2,0,1,,,,,,,,,
296341,2022-10-05_12h25.24.880,vts_reward_expectancy,2022.2.4,MacIntel,60.0024001,Chrome,1440,900,,,,,1,935,,,,,,,,,,,,,,,,,F,125,circle,1,0,,,,,,,,,,,,,,,,repeat,number,numRpt,j,0.4472,Lo,,,,,,2,,,,,,,,low,3,0,3,0,1,,,,,,,,,
296341,2022-10-05_12h25.24.880,vts_reward_expectancy,2022.2.4,MacIntel,60.0024001,Chrome,1440,900,,,,,0,935,,,,,,,,,,,,,,,,,H,132,triangle,1,0,,,,,,,,,,,,,,,,switch,letter,lettSwt,d,0.7651,Hi,,,,,,2,,,,,,,,low,4,0,4,0,1,,,,,,,,,
296341,2022-10-05_12h25.24.880,vts_reward_expectancy,2022.2.4,MacIntel,60.0024001,Chrome,1440,900,,,,,1,936,,,,,,,,,,,,,,,,,Y,181,circle,1,0,,,,,,,,,,,,,,,,repeat,letter,lettRpt,f,0.5352,Lo,,,,,,2,,,,,,,,low,5,0,5,0,1,,,,,,,,,
296341,2022-10-05_12h25.24.880,vts_reward_expectancy,2022.2.4,MacIntel,60.0024001,Chrome,1440,900,,,,,1,937,,,,,,,,,,,,,,,,,S,174,triangle,1,0,,,,,,,,,,,,,,,,repeat,letter,lettRpt,f,0.4807,Hi,,,,,,2,,,,,,,,low,6,0,6,0,1,,,,,,,,,
296341,2022-10-05_12h25.24.880,vts_reward_expectancy,2022.2.4,MacIntel,60.0024001,Chrome,1440,900,,,,,10,947,,,,,,,,,,,,,,,,,D,167,circle,1,0,,,,,,,,,,,,,,,,switch,number,numSwt,k,0.4971,Lo,,,,,,2,,,,,,,,low,7,0,7,0,1,,,,,,,,,
296341,2022-10-05_12h25.24.880,vts_reward_expectancy,2022.2.4,MacIntel,60.0024001,Chrome,1440,900,,,,,1,948,,,,,,,,,,,,,,,,,W,146,circle,1,0,,,,,,,,,,,,,,,,switch,letter,lettSwt,f,0.5311,Lo,,,,,,2,,,,,,,,low,8,0,8,0,1,,,,,,,,,
296341,2022-10-05_12h25.24.880,vts_reward_expectancy,2022.2.4,MacIntel,60.0024001,Chrome,1440,900,,,,,10,958,,,,,,,,,,,,,,,,,B,160,triangle,1,0,,,,,,,,,,,,,,,,switch,number,numSwt,k,0.3809,Hi,,,,,,2,,,,,,,,low,9,0,9,0,1,,,,,,,,,
296341,2022-10-05_12h25.24.880,vts_reward_expectancy,2022.2.4,MacIntel,60.0024001,Chrome,1440,900,,,,,1,959,,,,,,,,,,,,,,,,,U,139,triangle,1,0,,,,,,,,,,,,,,,,switch,letter,lettSwt,f,0.4874,Hi,,,,,,2,,,,,,,,low,10,0,10,0,1,,,,,,,,,
296341,2022-10-05_12h25.24.880,vts_reward_expectancy,2022.2.4,MacIntel,60.0024001,Chrome,1440,900,,,,,1,960,,,,,,,,,,,,,,,,,F,125,circle,1,0,,,,,,,,,,,,,,,,switch,number,numSwt,j,0.5664,Lo,,,,,,2,,,,,,,,low,11,0,11,0,1,,,,,,,,,
296341,2022-10-05_12h25.24.880,vts_reward_expectancy,2022.2.4,MacIntel,60.0024001,Chrome,1440,900,,,,,1,961,,,,,,,,,,,,,,,,,H,132,circle,1,0,,,,,,,,,,,,,,,,repeat,number,numRpt,j,0.5315,Lo,,,,,,2,,,,,,,,low,12,0,12,0,1,,,,,,,,,
296341,2022-10-05_12h25.24.880,vts_reward_expectancy,2022.2.4,MacIntel,60.0024001,Chrome,1440,900,,,,,10,971,,,,,,,,,,,,,,,,,Y,181,triangle,1,0,,,,,,,,,,,,,,,,switch,letter,lettSwt,f,0.5005,Hi,,,,,,2,,,,,,,,low,13,0,13,0,1,,,,,,,,,
296341,2022-10-05_12h25.24.880,vts_reward_expectancy,2022.2.4,MacIntel,60.0024001,Chrome,1440,900,,,,,1,972,,,,,,,,,,,,,,,,,S,174,circle,1,0,,,,,,,,,,,,,,,,switch,number,numSwt,k,0.5206,Lo,,,,,,2,,,,,,,,low,14,0,14,0,1,,,,,,,,,
296341,2022-10-05_12h25.24.880,vts_reward_expectancy,2022.2.4,MacIntel,60.0024001,Chrome,1440,900,,,,,0,972,,,,,,,,,,,,,,,,,D,167,triangle,1,0,,,,,,,,,,,,,,,,repeat,number,numRpt,k,0.5817,Hi,,,,,,2,,,,,,,,low,15,0,15,0,1,,,,,,,,,
296341,2022-10-05_12h25.24.880,vts_reward_expectancy,2022.2.4,MacIntel,60.0024001,Chrome,1440,900,,,,,0,972,,,,,,,,,,,,,,,,,H,174,triangle,1,0,,,,,,,,,,,,,,,,repeat,number,numRpt,k,0.5988,Hi,,,,,,2,,,,,,,,low,16,0,16,0,1,,,,,,,,,
296341,2022-10-05_12h25.24.880,vts_reward_expectancy,2022.2.4,MacIntel,60.0024001,Chrome,1440,900,,,,,1,973,,,,,,,,,,,,,,,,,F,139,circle,1,0,,,,,,,,,,,,,,,,repeat,number,numRpt,j,0.4042,Lo,,,,,,2,,,,,,,,low,17,0,17,0,1,,,,,,,,,
296341,2022-10-05_12h25.24.880,vts_reward_expectancy,2022.2.4,MacIntel,60.0024001,Chrome,1440,900,,,,,10,983,,,,,,,,,,,,,,,,,W,125,triangle,1,0,,,,,,,,,,,,,,,,repeat,number,numRpt,j,0.4477,Hi,,,,,,2,,,,,,,,low,18,0,18,0,1,,,,,,,,,
296341,2022-10-05_12h25.24.880,vts_reward_expectancy,2022.2.4,MacIntel,60.0024001,Chrome,1440,900,,,,,1,984,,,,,,,,,,,,,,,,,D,167,circle,1,0,,,,,,,,,,,,,,,,repeat,number,numRpt,k,0.4143,Lo,,,,,,2,,,,,,,,low,19,0,19,0,1,,,,,,,,,
296341,2022-10-05_12h25.24.880,vts_reward_expectancy,2022.2.4,MacIntel,60.0024001,Chrome,1440,900,,,,,1,985,,,,,,,,,,,,,,,,,S,146,circle,1,0,,,,,,,,,,,,,,,,switch,letter,lettSwt,f,0.4641,Lo,,,,,,2,,,,,,,,low,20,0,20,0,1,,,,,,,,,
296341,2022-10-05_12h25.24.880,vts_reward_expectancy,2022.2.4,MacIntel,60.0024001,Chrome,1440,900,,,,,10,995,,,,,,,,,,,,,,,,,B,132,triangle,1,0,,,,,,,,,,,,,,,,repeat,letter,lettRpt,d,0.4361,Hi,,,,,,2,,,,,,,,low,21,0,21,0,1,,,,,,,,,
296341,2022-10-05_12h25.24.880,vts_reward_expectancy,2022.2.4,MacIntel,60.0024001,Chrome,1440,900,,,,,1,996,,,,,,,,,,,,,,,,,U,160,circle,1,0,,,,,,,,,,,,,,,,repeat,letter,lettRpt,f,0.4817,Lo,,,,,,2,,,,,,,,low,22,0,22,0,1,,,,,,,,,
296341,2022-10-05_12h25.24.880,vts_reward_expectancy,2022.2.4,MacIntel,60.0024001,Chrome,1440,900,,,,,10,1006,,,,,,,,,,,,,,,,,Y,181,triangle,1,0,,,,,,,,,,,,,,,,repeat,letter,lettRpt,f,0.4478,Hi,,,,,,2,,,,,,,,low,23,0,23,0,1,,,,,,,,,
296341,2022-10-05_12h25.24.880,vts_reward_expectancy,2022.2.4,MacIntel,60.0024001,Chrome,1440,900,,,,,10,1016,,,,,,,,,,,,,,,,,U,167,triangle,1,0,,,,,,,,,,,,,,,,switch,number,numSwt,k,0.422,Hi,,,,,,2,,,,,,,,low,24,0,24,0,1,,,,,,,,,
296341,2022-10-05_12h25.24.880,vts_reward_expectancy,2022.2.4,MacIntel,60.0024001,Chrome,1440,900,,,,,1,1017,,,,,,,,,,,,,,,,,D,132,circle,1,0,,,,,,,,,,,,,,,,repeat,number,numRpt,j,0.4482,Lo,,,,,,2,,,,,,,,low,25,0,25,0,1,,,,,,,,,
296341,2022-10-05_12h25.24.880,vts_reward_expectancy,2022.2.4,MacIntel,60.0024001,Chrome,1440,900,,,,,10,1027,,,,,,,,,,,,,,,,,S,125,circle,1,0,,,,,,,,,,,,,,,,switch,letter,lettSwt,f,0.4982,Lo,,,,,,2,,,,,,,,low,26,0,26,0,1,,,,,,,,,
296341,2022-10-05_12h25.24.880,vts_reward_expectancy,2022.2.4,MacIntel,60.0024001,Chrome,1440,900,,,,,1,1028,,,,,,,,,,,,,,,,,F,146,triangle,1,0,,,,,,,,,,,,,,,,switch,number,numSwt,j,0.4957,Hi,,,,,,2,,,,,,,,low,27,0,27,0,1,,,,,,,,,
296341,2022-10-05_12h25.24.880,vts_reward_expectancy,2022.2.4,MacIntel,60.0024001,Chrome,1440,900,,,,,10,1038,,,,,,,,,,,,,,,,,H,160,triangle,1,0,,,,,,,,,,,,,,,,repeat,number,numRpt,k,0.4354,Hi,,,,,,2,,,,,,,,low,28,0,28,0,1,,,,,,,,,
296341,2022-10-05_12h25.24.880,vts_reward_expectancy,2022.2.4,MacIntel,60.0024001,Chrome,1440,900,,,,,1,1039,,,,,,,,,,,,,,,,,B,181,circle,1,0,,,,,,,,,,,,,,,,repeat,number,numRpt,k,0.4505,Lo,,,,,,2,,,,,,,,low,29,0,29,0,1,,,,,,,,,
296341,2022-10-05_12h25.24.880,vts_reward_expectancy,2022.2.4,MacIntel,60.0024001,Chrome,1440,900,,,,,1,1040,,,,,,,,,,,,,,,,,W,139,triangle,1,0,,,,,,,,,,,,,,,,switch,letter,lettSwt,f,0.464,Hi,,,,,,2,,,,,,,,low,30,0,30,0,1,,,,,,,,,
296341,2022-10-05_12h25.24.880,vts_reward_expectancy,2022.2.4,MacIntel,60.0024001,Chrome,1440,900,,,,,1,1041,,,,,,,,,,,,,,,,,Y,174,circle,1,0,,,,,,,,,,,,,,,,repeat,letter,lettRpt,f,0.5137,Lo,,,,,,2,,,,,,,,low,31,0,31,0,1,,,,,,,,,
296341,2022-10-05_12h25.24.880,vts_reward_expectancy,2022.2.4,MacIntel,60.0024001,Chrome,1440,900,,,,,0,1041,,,,,,,,,,,,,,,,,B,181,hexagon,1,0,,,,,,,,,,,,,,,,repeat,letter,lettRpt,d,0.5824,Hi,,,,,,3,,,,,,space,3.7915,high,0,0,0,0,1,,,,,,,,,
296341,2022-10-05_12h25.24.880,vts_reward_expectancy,2022.2.4,MacIntel,60.0024001,Chrome,1440,900,,,,,1,1042,,,,,,,,,,,,,,,,,S,160,star,1,0,,,,,,,,,,,,,,,,repeat,letter,lettRpt,f,0.7973,Lo,,,,,,3,,,,,,,,high,1,0,1,0,1,,,,,,,,,
296341,2022-10-05_12h25.24.880,vts_reward_expectancy,2022.2.4,MacIntel,60.0024001,Chrome,1440,900,,,,,0,1042,,,,,,,,,,,,,,,,,U,139,hexagon,1,0,,,,,,,,,,,,,,,,repeat,letter,lettRpt,f,0.4653,Hi,,,,,,3,,,,,,,,high,2,0,2,0,1,,,,,,,,,
296341,2022-10-05_12h25.24.880,vts_reward_expectancy,2022.2.4,MacIntel,60.0024001,Chrome,1440,900,,,,,1,1043,,,,,,,,,,,,,,,,,W,125,star,1,0,,,,,,,,,,,,,,,,repeat,letter,lettRpt,f,0.3974,Lo,,,,,,3,,,,,,,,high,3,0,3,0,1,,,,,,,,,
296341,2022-10-05_12h25.24.880,vts_reward_expectancy,2022.2.4,MacIntel,60.0024001,Chrome,1440,900,,,,,10,1053,,,,,,,,,,,,,,,,,Y,167,hexagon,1,0,,,,,,,,,,,,,,,,switch,number,numSwt,k,0.3971,Hi,,,,,,3,,,,,,,,high,4,0,4,0,1,,,,,,,,,
296341,2022-10-05_12h25.24.880,vts_reward_expectancy,2022.2.4,MacIntel,60.0024001,Chrome,1440,900,,,,,1,1054,,,,,,,,,,,,,,,,,H,174,star,1,0,,,,,,,,,,,,,,,,repeat,number,numRpt,k,0.4169,Lo,,,,,,3,,,,,,,,high,5,0,5,0,1,,,,,,,,,
296341,2022-10-05_12h25.24.880,vts_reward_expectancy,2022.2.4,MacIntel,60.0024001,Chrome,1440,900,,,,,0,1054,,,,,,,,,,,,,,,,,D,146,hexagon,1,0,,,,,,,,,,,,,,,,switch,letter,lettSwt,d,0.5648,Hi,,,,,,3,,,,,,,,high,6,0,6,0,1,,,,,,,,,
296341,2022-10-05_12h25.24.880,vts_reward_expectancy,2022.2.4,MacIntel,60.0024001,Chrome,1440,900,,,,,1,1055,,,,,,,,,,,,,,,,,F,132,star,1,0,,,,,,,,,,,,,,,,repeat,letter,lettRpt,d,0.5976,Lo,,,,,,3,,,,,,,,high,7,0,7,0,1,,,,,,,,,
296341,2022-10-05_12h25.24.880,vts_reward_expectancy,2022.2.4,MacIntel,60.0024001,Chrome,1440,900,,,,,10,1065,,,,,,,,,,,,,,,,,B,181,hexagon,1,0,,,,,,,,,,,,,,,,repeat,letter,lettRpt,d,0.4325,Hi,,,,,,3,,,,,,,,high,8,0,8,0,1,,,,,,,,,
296341,2022-10-05_12h25.24.880,vts_reward_expectancy,2022.2.4,MacIntel,60.0024001,Chrome,1440,900,,,,,1,1066,,,,,,,,,,,,,,,,,S,160,star,1,0,,,,,,,,,,,,,,,,switch,number,numSwt,k,0.4332,Lo,,,,,,3,,,,,,,,high,9,0,9,0,1,,,,,,,,,
296341,2022-10-05_12h25.24.880,vts_reward_expectancy,2022.2.4,MacIntel,60.0024001,Chrome,1440,900,,,,,0,1066,,,,,,,,,,,,,,,,,U,139,hexagon,1,0,,,,,,,,,,,,,,,,repeat,number,numRpt,j,0.5318,Hi,,,,,,3,,,,,,,,high,10,0,10,0,1,,,,,,,,,
296341,2022-10-05_12h25.24.880,vts_reward_expectancy,2022.2.4,MacIntel,60.0024001,Chrome,1440,900,,,,,1,1067,,,,,,,,,,,,,,,,,W,125,star,1,0,,,,,,,,,,,,,,,,repeat,number,numRpt,j,0.4812,Lo,,,,,,3,,,,,,,,high,11,0,11,0,1,,,,,,,,,
296341,2022-10-05_12h25.24.880,vts_reward_expectancy,2022.2.4,MacIntel,60.0024001,Chrome,1440,900,,,,,1,1068,,,,,,,,,,,,,,,,,Y,167,star,1,0,,,,,,,,,,,,,,,,repeat,number,numRpt,k,0.369,Lo,,,,,,3,,,,,,,,high,12,0,12,0,1,,,,,,,,,
296341,2022-10-05_12h25.24.880,vts_reward_expectancy,2022.2.4,MacIntel,60.0024001,Chrome,1440,900,,,,,0,1068,,,,,,,,,,,,,,,,,H,174,hexagon,0,0,,,,,,,,,,,,,,,,repeat,number,NA,j,0.3147,Lo,,,,,,3,,,,,,,,high,13,0,13,0,1,,,,,,,,,
296341,2022-10-05_12h25.24.880,vts_reward_expectancy,2022.2.4,MacIntel,60.0024001,Chrome,1440,900,,,,,10,1078,,,,,,,,,,,,,,,,,D,146,star,1,1,,,,,,,,,,,,,,,,switch,letter,lettSwt,d,0.4518,Lo,,,,,,3,,,,,,,,high,14,0,14,0,1,,,,,,,,,
296341,2022-10-05_12h25.24.880,vts_reward_expectancy,2022.2.4,MacIntel,60.0024001,Chrome,1440,900,,,,,0,1078,,,,,,,,,,,,,,,,,F,132,hexagon,1,0,,,,,,,,,,,,,,,,repeat,letter,lettRpt,d,0.4807,Hi,,,,,,3,,,,,,,,high,15,0,15,0,1,,,,,,,,,
296341,2022-10-05_12h25.24.880,vts_reward_expectancy,2022.2.4,MacIntel,60.0024001,Chrome,1440,900,,,,,0,1078,,,,,,,,,,,,,,,,,H,125,hexagon,1,0,,,,,,,,,,,,,,,,repeat,letter,lettRpt,d,0.4862,Hi,,,,,,3,,,,,,,,high,16,0,16,0,1,,,,,,,,,
296341,2022-10-05_12h25.24.880,vts_reward_expectancy,2022.2.4,MacIntel,60.0024001,Chrome,1440,900,,,,,0,1078,,,,,,,,,,,,,,,,,U,167,star,0,0,,,,,,,,,,,,,,,,repeat,letter,NA,d,0.3646,Hi,,,,,,3,,,,,,,,high,17,0,17,0,1,,,,,,,,,
296341,2022-10-05_12h25.24.880,vts_reward_expectancy,2022.2.4,MacIntel,60.0024001,Chrome,1440,900,,,,,10,1088,,,,,,,,,,,,,,,,,F,139,hexagon,1,1,,,,,,,,,,,,,,,,repeat,letter,lettRpt,d,0.4305,Hi,,,,,,3,,,,,,,,high,18,0,18,0,1,,,,,,,,,
296341,2022-10-05_12h25.24.880,vts_reward_expectancy,2022.2.4,MacIntel,60.0024001,Chrome,1440,900,,,,,1,1089,,,,,,,,,,,,,,,,,B,181,star,1,0,,,,,,,,,,,,,,,,repeat,letter,lettRpt,d,0.4488,Lo,,,,,,3,,,,,,,,high,19,0,19,0,1,,,,,,,,,
296341,2022-10-05_12h25.24.880,vts_reward_expectancy,2022.2.4,MacIntel,60.0024001,Chrome,1440,900,,,,,1,1090,,,,,,,,,,,,,,,,,W,132,star,1,0,,,,,,,,,,,,,,,,switch,number,numSwt,j,0.3987,Lo,,,,,,3,,,,,,,,high,20,0,20,0,1,,,,,,,,,
296341,2022-10-05_12h25.24.880,vts_reward_expectancy,2022.2.4,MacIntel,60.0024001,Chrome,1440,900,,,,,0,1090,,,,,,,,,,,,,,,,,S,160,hexagon,0,0,,,,,,,,,,,,,,,,repeat,number,NA,j,0.4031,Lo,,,,,,3,,,,,,,,high,21,0,21,0,1,,,,,,,,,
296341,2022-10-05_12h25.24.880,vts_reward_expectancy,2022.2.4,MacIntel,60.0024001,Chrome,1440,900,,,,,0,1090,,,,,,,,,,,,,,,,,Y,146,hexagon,1,1,,,,,,,,,,,,,,,,repeat,number,numRpt,j,0.5132,Hi,,,,,,3,,,,,,,,high,22,0,22,0,1,,,,,,,,,
296341,2022-10-05_12h25.24.880,vts_reward_expectancy,2022.2.4,MacIntel,60.0024001,Chrome,1440,900,,,,,1,1091,,,,,,,,,,,,,,,,,D,174,star,1,0,,,,,,,,,,,,,,,,repeat,number,numRpt,k,0.4482,Lo,,,,,,3,,,,,,,,high,23,0,23,0,1,,,,,,,,,
296341,2022-10-05_12h25.24.880,vts_reward_expectancy,2022.2.4,MacIntel,60.0024001,Chrome,1440,900,,,,,10,1101,,,,,,,,,,,,,,,,,U,174,star,1,0,,,,,,,,,,,,,,,,repeat,number,numRpt,k,0.4487,Lo,,,,,,3,,,,,,,,high,24,0,24,0,1,,,,,,,,,
296341,2022-10-05_12h25.24.880,vts_reward_expectancy,2022.2.4,MacIntel,60.0024001,Chrome,1440,900,,,,,10,1111,,,,,,,,,,,,,,,,,W,167,hexagon,1,0,,,,,,,,,,,,,,,,switch,letter,lettSwt,f,0.4052,Hi,,,,,,3,,,,,,,,high,25,0,25,0,1,,,,,,,,,
296341,2022-10-05_12h25.24.880,vts_reward_expectancy,2022.2.4,MacIntel,60.0024001,Chrome,1440,900,,,,,1,1112,,,,,,,,,,,,,,,,,H,146,star,1,0,,,,,,,,,,,,,,,,repeat,letter,lettRpt,d,0.4846,Lo,,,,,,3,,,,,,,,high,26,0,26,0,1,,,,,,,,,
296341,2022-10-05_12h25.24.880,vts_reward_expectancy,2022.2.4,MacIntel,60.0024001,Chrome,1440,900,,,,,10,1122,,,,,,,,,,,,,,,,,F,160,hexagon,1,0,,,,,,,,,,,,,,,,repeat,letter,lettRpt,d,0.415,Hi,,,,,,3,,,,,,,,high,27,0,27,0,1,,,,,,,,,
296341,2022-10-05_12h25.24.880,vts_reward_expectancy,2022.2.4,MacIntel,60.0024001,Chrome,1440,900,,,,,1,1123,,,,,,,,,,,,,,,,,S,139,star,1,0,,,,,,,,,,,,,,,,switch,number,numSwt,j,0.464,Lo,,,,,,3,,,,,,,,high,28,0,28,0,1,,,,,,,,,
296341,2022-10-05_12h25.24.880,vts_reward_expectancy,2022.2.4,MacIntel,60.0024001,Chrome,1440,900,,,,,0,1123,,,,,,,,,,,,,,,,,B,132,hexagon,1,0,,,,,,,,,,,,,,,,repeat,number,numRpt,j,0.6318,Hi,,,,,,3,,,,,,,,high,29,0,29,0,1,,,,,,,,,
296341,2022-10-05_12h25.24.880,vts_reward_expectancy,2022.2.4,MacIntel,60.0024001,Chrome,1440,900,,,,,10,1133,,,,,,,,,,,,,,,,,D,181,hexagon,1,0,,,,,,,,,,,,,,,,repeat,number,numRpt,k,0.4321,Hi,,,,,,3,,,,,,,,high,30,0,30,0,1,,,,,,,,,
296341,2022-10-05_12h25.24.880,vts_reward_expectancy,2022.2.4,MacIntel,60.0024001,Chrome,1440,900,,,,,1,1134,,,,,,,,,,,,,,,,,Y,125,star,1,0,,,,,,,,,,,,,,,,switch,letter,lettSwt,f,0.5467,Lo,,,,,,3,,,,,,,,high,31,0,31,0,1,,,,,,,,,
296341,2022-10-05_12h25.24.880,vts_reward_expectancy,2022.2.4,MacIntel,60.0024001,Chrome,1440,900,,,,,10,1144,,,,,,,,,,,,,,,,,D,167,star,1,0,,,,,,,,,,,,,,,,switch,number,numSwt,k,0.5158,Lo,,,,,,4,,,,,,space,1.6363,high,0,0,0,0,1,,,,,,,,,
296341,2022-10-05_12h25.24.880,vts_reward_expectancy,2022.2.4,MacIntel,60.0024001,Chrome,1440,900,,,,,0,1144,,,,,,,,,,,,,,,,,F,146,hexagon,1,0,,,,,,,,,,,,,,,,repeat,number,numRpt,j,0.5153,Hi,,,,,,4,,,,,,,,high,1,0,1,0,1,,,,,,,,,
296341,2022-10-05_12h25.24.880,vts_reward_expectancy,2022.2.4,MacIntel,60.0024001,Chrome,1440,900,,,,,1,1145,,,,,,,,,,,,,,,,,Y,174,star,1,0,,,,,,,,,,,,,,,,repeat,number,numRpt,k,0.3972,Lo,,,,,,4,,,,,,,,high,2,0,2,0,1,,,,,,,,,
296341,2022-10-05_12h25.24.880,vts_reward_expectancy,2022.2.4,MacIntel,60.0024001,Chrome,1440,900,,,,,10,1155,,,,,,,,,,,,,,,,,U,125,hexagon,1,0,,,,,,,,,,,,,,,,switch,letter,lettSwt,f,0.4311,Hi,,,,,,4,,,,,,,,high,3,0,3,0,1,,,,,,,,,
296341,2022-10-05_12h25.24.880,vts_reward_expectancy,2022.2.4,MacIntel,60.0024001,Chrome,1440,900,,,,,10,1165,,,,,,,,,,,,,,,,,W,160,hexagon,1,0,,,,,,,,,,,,,,,,repeat,letter,lettRpt,f,0.4391,Hi,,,,,,4,,,,,,,,high,4,0,4,0,1,,,,,,,,,
296341,2022-10-05_12h25.24.880,vts_reward_expectancy,2022.2.4,MacIntel,60.0024001,Chrome,1440,900,,,,,0,1165,,,,,,,,,,,,,,,,,H,139,star,0,0,,,,,,,,,,,,,,,,repeat,letter,NA,f,0.3817,Hi,,,,,,4,,,,,,,,high,5,0,5,0,1,,,,,,,,,
296341,2022-10-05_12h25.24.880,vts_reward_expectancy,2022.2.4,MacIntel,60.0024001,Chrome,1440,900,,,,,0,1165,,,,,,,,,,,,,,,,,B,132,hexagon,1,1,,,,,,,,,,,,,,,,repeat,letter,lettRpt,d,0.5814,Hi,,,,,,4,,,,,,,,high,6,0,6,0,1,,,,,,,,,
296341,2022-10-05_12h25.24.880,vts_reward_expectancy,2022.2.4,MacIntel,60.0024001,Chrome,1440,900,,,,,1,1166,,,,,,,,,,,,,,,,,S,181,star,1,0,,,,,,,,,,,,,,,,repeat,letter,lettRpt,f,0.5821,Lo,,,,,,4,,,,,,,,high,7,0,7,0,1,,,,,,,,,
296341,2022-10-05_12h25.24.880,vts_reward_expectancy,2022.2.4,MacIntel,60.0024001,Chrome,1440,900,,,,,0,1166,,,,,,,,,,,,,,,,,D,167,hexagon,1,0,,,,,,,,,,,,,,,,switch,number,numSwt,k,0.453,Hi,,,,,,4,,,,,,,,high,8,0,8,0,1,,,,,,,,,
296341,2022-10-05_12h25.24.880,vts_reward_expectancy,2022.2.4,MacIntel,60.0024001,Chrome,1440,900,,,,,10,1176,,,,,,,,,,,,,,,,,F,146,star,1,0,,,,,,,,,,,,,,,,repeat,number,numRpt,j,0.414,Lo,,,,,,4,,,,,,,,high,9,0,9,0,1,,,,,,,,,
296341,2022-10-05_12h25.24.880,vts_reward_expectancy,2022.2.4,MacIntel,60.0024001,Chrome,1440,900,,,,,0,1176,,,,,,,,,,,,,,,,,Y,174,hexagon,1,0,,,,,,,,,,,,,,,,repeat,number,numRpt,k,0.4659,Hi,,,,,,4,,,,,,,,high,10,0,10,0,1,,,,,,,,,
296341,2022-10-05_12h25.24.880,vts_reward_expectancy,2022.2.4,MacIntel,60.0024001,Chrome,1440,900,,,,,1,1177,,,,,,,,,,,,,,,,,U,125,star,1,0,,,,,,,,,,,,,,,,repeat,number,numRpt,j,0.4632,Lo,,,,,,4,,,,,,,,high,11,0,11,0,1,,,,,,,,,
296341,2022-10-05_12h25.24.880,vts_reward_expectancy,2022.2.4,MacIntel,60.0024001,Chrome,1440,900,,,,,1,1178,,,,,,,,,,,,,,,,,W,160,star,1,0,,,,,,,,,,,,,,,,repeat,number,numRpt,k,0.5141,Lo,,,,,,4,,,,,,,,high,12,0,12,0,1,,,,,,,,,
296341,2022-10-05_12h25.24.880,vts_reward_expectancy,2022.2.4,MacIntel,60.0024001,Chrome,1440,900,,,,,0,1178,,,,,,,,,,,,,,,,,H,139,hexagon,1,0,,,,,,,,,,,,,,,,switch,letter,lettSwt,d,0.5364,Hi,,,,,,4,,,,,,,,high,13,0,13,0,1,,,,,,,,,
296341,2022-10-05_12h25.24.880,vts_reward_expectancy,2022.2.4,MacIntel,60.0024001,Chrome,1440,900,,,,,0,1178,,,,,,,,,,,,,,,,,B,132,hexagon,1,0,,,,,,,,,,,,,,,,repeat,letter,lettRpt,d,0.4474,Hi,,,,,,4,,,,,,,,high,14,0,14,0,1,,,,,,,,,
296341,2022-10-05_12h25.24.880,vts_reward_expectancy,2022.2.4,MacIntel,60.0024001,Chrome,1440,900,,,,,1,1179,,,,,,,,,,,,,,,,,S,181,star,1,0,,,,,,,,,,,,,,,,repeat,letter,lettRpt,f,0.3979,Lo,,,,,,4,,,,,,,,high,15,0,15,0,1,,,,,,,,,
296341,2022-10-05_12h25.24.880,vts_reward_expectancy,2022.2.4,MacIntel,60.0024001,Chrome,1440,900,,,,,1,1180,,,,,,,,,,,,,,,,,Y,181,star,1,0,,,,,,,,,,,,,,,,repeat,letter,lettRpt,f,0.4153,Lo,,,,,,4,,,,,,,,high,16,0,16,0,1,,,,,,,,,
296341,2022-10-05_12h25.24.880,vts_reward_expectancy,2022.2.4,MacIntel,60.0024001,Chrome,1440,900,,,,,0,1180,,,,,,,,,,,,,,,,,U,125,hexagon,1,0,,,,,,,,,,,,,,,,repeat,letter,lettRpt,f,0.4516,Hi,,,,,,4,,,,,,,,high,17,0,17,0,1,,,,,,,,,
296341,2022-10-05_12h25.24.880,vts_reward_expectancy,2022.2.4,MacIntel,60.0024001,Chrome,1440,900,,,,,10,1190,,,,,,,,,,,,,,,,,W,139,hexagon,1,0,,,,,,,,,,,,,,,,repeat,letter,lettRpt,f,0.4357,Hi,,,,,,4,,,,,,,,high,18,0,18,0,1,,,,,,,,,
296341,2022-10-05_12h25.24.880,vts_reward_expectancy,2022.2.4,MacIntel,60.0024001,Chrome,1440,900,,,,,1,1191,,,,,,,,,,,,,,,,,F,174,star,1,0,,,,,,,,,,,,,,,,switch,number,numSwt,k,0.4188,Lo,,,,,,4,,,,,,,,high,19,0,19,0,1,,,,,,,,,
296341,2022-10-05_12h25.24.880,vts_reward_expectancy,2022.2.4,MacIntel,60.0024001,Chrome,1440,900,,,,,0,1191,,,,,,,,,,,,,,,,,B,160,hexagon,0,0,,,,,,,,,,,,,,,,repeat,number,NA,j,0.4487,Lo,,,,,,4,,,,,,,,high,20,0,20,0,1,,,,,,,,,
296341,2022-10-05_12h25.24.880,vts_reward_expectancy,2022.2.4,MacIntel,60.0024001,Chrome,1440,900,,,,,10,1201,,,,,,,,,,,,,,,,,S,146,star,1,1,,,,,,,,,,,,,,,,repeat,number,numRpt,j,0.4808,Lo,,,,,,4,,,,,,,,high,21,0,21,0,1,,,,,,,,,
296341,2022-10-05_12h25.24.880,vts_reward_expectancy,2022.2.4,MacIntel,60.0024001,Chrome,1440,900,,,,,10,1211,,,,,,,,,,,,,,,,,H,167,star,1,0,,,,,,,,,,,,,,,,switch,letter,lettSwt,d,0.4807,Lo,,,,,,4,,,,,,,,high,22,0,22,0,1,,,,,,,,,
296341,2022-10-05_12h25.24.880,vts_reward_expectancy,2022.2.4,MacIntel,60.0024001,Chrome,1440,900,,,,,0,1211,,,,,,,,,,,,,,,,,D,132,hexagon,1,0,,,,,,,,,,,,,,,,switch,number,numSwt,j,0.6478,Hi,,,,,,4,,,,,,,,high,23,0,23,0,1,,,,,,,,,
296341,2022-10-05_12h25.24.880,vts_reward_expectancy,2022.2.4,MacIntel,60.0024001,Chrome,1440,900,,,,,10,1221,,,,,,,,,,,,,,,,,S,167,hexagon,1,0,,,,,,,,,,,,,,,,repeat,number,numRpt,k,0.4358,Hi,,,,,,4,,,,,,,,high,24,0,24,0,1,,,,,,,,,
296341,2022-10-05_12h25.24.880,vts_reward_expectancy,2022.2.4,MacIntel,60.0024001,Chrome,1440,900,,,,,1,1222,,,,,,,,,,,,,,,,,H,139,star,1,0,,,,,,,,,,,,,,,,repeat,number,numRpt,j,0.4134,Lo,,,,,,4,,,,,,,,high,25,0,25,0,1,,,,,,,,,
296341,2022-10-05_12h25.24.880,vts_reward_expectancy,2022.2.4,MacIntel,60.0024001,Chrome,1440,900,,,,,10,1232,,,,,,,,,,,,,,,,,F,174,hexagon,1,0,,,,,,,,,,,,,,,,repeat,number,numRpt,k,0.4306,Hi,,,,,,4,,,,,,,,high,26,0,26,0,1,,,,,,,,,
296341,2022-10-05_12h25.24.880,vts_reward_expectancy,2022.2.4,MacIntel,60.0024001,Chrome,1440,900,,,,,1,1233,,,,,,,,,,,,,,,,,D,181,star,1,0,,,,,,,,,,,,,,,,switch,letter,lettSwt,d,0.4473,Lo,,,,,,4,,,,,,,,high,27,0,27,0,1,,,,,,,,,
296341,2022-10-05_12h25.24.880,vts_reward_expectancy,2022.2.4,MacIntel,60.0024001,Chrome,1440,900,,,,,0,1233,,,,,,,,,,,,,,,,,U,146,hexagon,1,0,,,,,,,,,,,,,,,,repeat,letter,lettRpt,f,0.5153,Hi,,,,,,4,,,,,,,,high,28,0,28,0,1,,,,,,,,,
296341,2022-10-05_12h25.24.880,vts_reward_expectancy,2022.2.4,MacIntel,60.0024001,Chrome,1440,900,,,,,1,1234,,,,,,,,,,,,,,,,,Y,160,star,1,0,,,,,,,,,,,,,,,,repeat,letter,lettRpt,f,0.4802,Lo,,,,,,4,,,,,,,,high,29,0,29,0,1,,,,,,,,,
296341,2022-10-05_12h25.24.880,vts_reward_expectancy,2022.2.4,MacIntel,60.0024001,Chrome,1440,900,,,,,0,1234,,,,,,,,,,,,,,,,,B,125,star,0,0,,,,,,,,,,,,,,,,repeat,letter,NA,f,0.3994,Lo,,,,,,4,,,,,,,,high,30,0,30,0,1,,,,,,,,,
296341,2022-10-05_12h25.24.880,vts_reward_expectancy,2022.2.4,MacIntel,60.0024001,Chrome,1440,900,,,,,1,1235,,,,,,,,,,,,,,,,,W,132,hexagon,1,1,,,,,,,,,,,,,,,,repeat,letter,lettRpt,f,0.381,Hi,,,,,,4,,,,,,,,high,31,0,31,0,1,,,,,,,,,
296341,2022-10-05_12h25.24.880,vts_reward_expectancy,2022.2.4,MacIntel,60.0024001,Chrome,1440,900,,,,,1,1236,,,,,,,,,,,,,,,,,U,139,circle,1,0,,,,,,,,,,,,,,,,repeat,letter,lettRpt,f,0.3817,Lo,,,,,,5,,,,,,space,3.2569,low,0,0,0,0,1,,,,,,,,,
296341,2022-10-05_12h25.24.880,vts_reward_expectancy,2022.2.4,MacIntel,60.0024001,Chrome,1440,900,,,,,0,1236,,,,,,,,,,,,,,,,,W,181,triangle,1,0,,,,,,,,,,,,,,,,repeat,letter,lettRpt,f,0.4986,Hi,,,,,,5,,,,,,,,low,1,0,1,0,1,,,,,,,,,
296341,2022-10-05_12h25.24.880,vts_reward_expectancy,2022.2.4,MacIntel,60.0024001,Chrome,1440,900,,,,,1,1237,,,,,,,,,,,,,,,,,Y,160,circle,1,0,,,,,,,,,,,,,,,,repeat,letter,lettRpt,f,0.4499,Lo,,,,,,5,,,,,,,,low,2,0,2,0,1,,,,,,,,,
296341,2022-10-05_12h25.24.880,vts_reward_expectancy,2022.2.4,MacIntel,60.0024001,Chrome,1440,900,,,,,10,1247,,,,,,,,,,,,,,,,,B,132,triangle,1,0,,,,,,,,,,,,,,,,repeat,letter,lettRpt,d,0.3969,Hi,,,,,,5,,,,,,,,low,3,0,3,0,1,,,,,,,,,
296341,2022-10-05_12h25.24.880,vts_reward_expectancy,2022.2.4,MacIntel,60.0024001,Chrome,1440,900,,,,,0,1247,,,,,,,,,,,,,,,,,F,146,triangle,1,0,,,,,,,,,,,,,,,,switch,number,numSwt,j,0.5059,Hi,,,,,,5,,,,,,,,low,4,0,4,0,1,,,,,,,,,
296341,2022-10-05_12h25.24.880,vts_reward_expectancy,2022.2.4,MacIntel,60.0024001,Chrome,1440,900,,,,,1,1248,,,,,,,,,,,,,,,,,D,174,circle,1,0,,,,,,,,,,,,,,,,repeat,number,numRpt,k,0.381,Lo,,,,,,5,,,,,,,,low,5,0,5,0,1,,,,,,,,,
296341,2022-10-05_12h25.24.880,vts_reward_expectancy,2022.2.4,MacIntel,60.0024001,Chrome,1440,900,,,,,1,1249,,,,,,,,,,,,,,,,,H,125,circle,1,0,,,,,,,,,,,,,,,,repeat,number,numRpt,j,0.3634,Lo,,,,,,5,,,,,,,,low,6,0,6,0,1,,,,,,,,,
296341,2022-10-05_12h25.24.880,vts_reward_expectancy,2022.2.4,MacIntel,60.0024001,Chrome,1440,900,,,,,10,1259,,,,,,,,,,,,,,,,,S,167,triangle,1,0,,,,,,,,,,,,,,,,repeat,number,numRpt,k,0.3976,Hi,,,,,,5,,,,,,,,low,7,0,7,0,1,,,,,,,,,
296341,2022-10-05_12h25.24.880,vts_reward_expectancy,2022.2.4,MacIntel,60.0024001,Chrome,1440,900,,,,,0,1259,,,,,,,,,,,,,,,,,U,139,triangle,1,0,,,,,,,,,,,,,,,,switch,letter,lettSwt,f,0.4534,Hi,,,,,,5,,,,,,,,low,8,0,8,0,1,,,,,,,,,
296341,2022-10-05_12h25.24.880,vts_reward_expectancy,2022.2.4,MacIntel,60.0024001,Chrome,1440,900,,,,,10,1269,,,,,,,,,,,,,,,,,W,181,circle,1,0,,,,,,,,,,,,,,,,repeat,letter,lettRpt,f,0.4137,Lo,,,,,,5,,,,,,,,low,9,0,9,0,1,,,,,,,,,
296341,2022-10-05_12h25.24.880,vts_reward_expectancy,2022.2.4,MacIntel,60.0024001,Chrome,1440,900,,,,,0,1269,,,,,,,,,,,,,,,,,Y,160,triangle,1,0,,,,,,,,,,,,,,,,repeat,letter,lettRpt,f,0.5316,Hi,,,,,,5,,,,,,,,low,10,0,10,0,1,,,,,,,,,
296341,2022-10-05_12h25.24.880,vts_reward_expectancy,2022.2.4,MacIntel,60.0024001,Chrome,1440,900,,,,,10,1279,,,,,,,,,,,,,,,,,B,132,circle,1,0,,,,,,,,,,,,,,,,repeat,letter,lettRpt,d,0.4503,Lo,,,,,,5,,,,,,,,low,11,0,11,0,1,,,,,,,,,
296341,2022-10-05_12h25.24.880,vts_reward_expectancy,2022.2.4,MacIntel,60.0024001,Chrome,1440,900,,,,,1,1280,,,,,,,,,,,,,,,,,F,146,circle,1,0,,,,,,,,,,,,,,,,switch,number,numSwt,j,0.4215,Lo,,,,,,5,,,,,,,,low,12,0,12,0,1,,,,,,,,,
296341,2022-10-05_12h25.24.880,vts_reward_expectancy,2022.2.4,MacIntel,60.0024001,Chrome,1440,900,,,,,10,1290,,,,,,,,,,,,,,,,,D,174,triangle,1,0,,,,,,,,,,,,,,,,repeat,number,numRpt,k,0.3552,Hi,,,,,,5,,,,,,,,low,13,0,13,0,1,,,,,,,,,
296341,2022-10-05_12h25.24.880,vts_reward_expectancy,2022.2.4,MacIntel,60.0024001,Chrome,1440,900,,,,,10,1300,,,,,,,,,,,,,,,,,H,125,triangle,1,0,,,,,,,,,,,,,,,,switch,letter,lettSwt,d,0.4145,Hi,,,,,,5,,,,,,,,low,14,0,14,0,1,,,,,,,,,
296341,2022-10-05_12h25.24.880,vts_reward_expectancy,2022.2.4,MacIntel,60.0024001,Chrome,1440,900,,,,,1,1301,,,,,,,,,,,,,,,,,S,167,circle,1,0,,,,,,,,,,,,,,,,repeat,letter,lettRpt,f,0.5361,Lo,,,,,,5,,,,,,,,low,15,0,15,0,1,,,,,,,,,
296341,2022-10-05_12h25.24.880,vts_reward_expectancy,2022.2.4,MacIntel,60.0024001,Chrome,1440,900,,,,,1,1302,,,,,,,,,,,,,,,,,Y,146,circle,1,0,,,,,,,,,,,,,,,,switch,number,numSwt,j,0.4637,Lo,,,,,,5,,,,,,,,low,16,0,16,0,1,,,,,,,,,
296341,2022-10-05_12h25.24.880,vts_reward_expectancy,2022.2.4,MacIntel,60.0024001,Chrome,1440,900,,,,,0,1302,,,,,,,,,,,,,,,,,H,125,triangle,1,0,,,,,,,,,,,,,,,,repeat,number,numRpt,j,0.4839,Hi,,,,,,5,,,,,,,,low,17,0,17,0,1,,,,,,,,,
296341,2022-10-05_12h25.24.880,vts_reward_expectancy,2022.2.4,MacIntel,60.0024001,Chrome,1440,900,,,,,0,1302,,,,,,,,,,,,,,,,,S,174,triangle,1,0,,,,,,,,,,,,,,,,repeat,number,numRpt,k,0.5318,Hi,,,,,,5,,,,,,,,low,18,0,18,0,1,,,,,,,,,
296341,2022-10-05_12h25.24.880,vts_reward_expectancy,2022.2.4,MacIntel,60.0024001,Chrome,1440,900,,,,,10,1312,,,,,,,,,,,,,,,,,U,132,circle,1,0,,,,,,,,,,,,,,,,repeat,number,numRpt,j,0.4483,Lo,,,,,,5,,,,,,,,low,19,0,19,0,1,,,,,,,,,
296341,2022-10-05_12h25.24.880,vts_reward_expectancy,2022.2.4,MacIntel,60.0024001,Chrome,1440,900,,,,,0,1312,,,,,,,,,,,,,,,,,W,167,triangle,1,0,,,,,,,,,,,,,,,,repeat,number,numRpt,k,0.4316,Hi,,,,,,5,,,,,,,,low,20,0,20,0,1,,,,,,,,,
296341,2022-10-05_12h25.24.880,vts_reward_expectancy,2022.2.4,MacIntel,60.0024001,Chrome,1440,900,,,,,10,1322,,,,,,,,,,,,,,,,,D,181,circle,1,0,,,,,,,,,,,,,,,,repeat,number,numRpt,k,0.3875,Lo,,,,,,5,,,,,,,,low,21,0,21,0,1,,,,,,,,,
296341,2022-10-05_12h25.24.880,vts_reward_expectancy,2022.2.4,MacIntel,60.0024001,Chrome,1440,900,,,,,0,1322,,,,,,,,,,,,,,,,,B,160,circle,0,0,,,,,,,,,,,,,,,,switch,letter,NA,f,0.3662,Lo,,,,,,5,,,,,,,,low,22,0,22,0,1,,,,,,,,,
296341,2022-10-05_12h25.24.880,vts_reward_expectancy,2022.2.4,MacIntel,60.0024001,Chrome,1440,900,,,,,0,1322,,,,,,,,,,,,,,,,,F,139,triangle,0,1,,,,,,,,,,,,,,,,repeat,letter,NA,f,0.4675,Lo,,,,,,5,,,,,,,,low,23,0,23,0,1,,,,,,,,,
296341,2022-10-05_12h25.24.880,vts_reward_expectancy,2022.2.4,MacIntel,60.0024001,Chrome,1440,900,,,,,1,1323,,,,,,,,,,,,,,,,,W,139,circle,1,1,,,,,,,,,,,,,,,,repeat,letter,lettRpt,f,0.3062,Lo,,,,,,5,,,,,,,,low,24,0,24,0,1,,,,,,,,,
296341,2022-10-05_12h25.24.880,vts_reward_expectancy,2022.2.4,MacIntel,60.0024001,Chrome,1440,900,,,,,0,1323,,,,,,,,,,,,,,,,,D,174,triangle,1,0,,,,,,,,,,,,,,,,repeat,letter,lettRpt,d,0.5636,Hi,,,,,,5,,,,,,,,low,25,0,25,0,1,,,,,,,,,
296341,2022-10-05_12h25.24.880,vts_reward_expectancy,2022.2.4,MacIntel,60.0024001,Chrome,1440,900,,,,,1,1324,,,,,,,,,,,,,,,,,B,125,circle,1,0,,,,,,,,,,,,,,,,repeat,letter,lettRpt,d,0.4474,Lo,,,,,,5,,,,,,,,low,26,0,26,0,1,,,,,,,,,
296341,2022-10-05_12h25.24.880,vts_reward_expectancy,2022.2.4,MacIntel,60.0024001,Chrome,1440,900,,,,,10,1334,,,,,,,,,,,,,,,,,U,146,triangle,1,0,,,,,,,,,,,,,,,,switch,number,numSwt,j,0.4467,Hi,,,,,,5,,,,,,,,low,27,0,27,0,1,,,,,,,,,
296341,2022-10-05_12h25.24.880,vts_reward_expectancy,2022.2.4,MacIntel,60.0024001,Chrome,1440,900,,,,,0,1334,,,,,,,,,,,,,,,,,F,181,triangle,1,0,,,,,,,,,,,,,,,,repeat,number,numRpt,k,0.4976,Hi,,,,,,5,,,,,,,,low,28,0,28,0,1,,,,,,,,,
296341,2022-10-05_12h25.24.880,vts_reward_expectancy,2022.2.4,MacIntel,60.0024001,Chrome,1440,900,,,,,1,1335,,,,,,,,,,,,,,,,,S,132,circle,1,0,,,,,,,,,,,,,,,,repeat,number,numRpt,j,0.6038,Lo,,,,,,5,,,,,,,,low,29,0,29,0,1,,,,,,,,,
296341,2022-10-05_12h25.24.880,vts_reward_expectancy,2022.2.4,MacIntel,60.0024001,Chrome,1440,900,,,,,10,1345,,,,,,,,,,,,,,,,,H,167,triangle,1,0,,,,,,,,,,,,,,,,repeat,number,numRpt,k,0.3819,Hi,,,,,,5,,,,,,,,low,30,0,30,0,1,,,,,,,,,
296341,2022-10-05_12h25.24.880,vts_reward_expectancy,2022.2.4,MacIntel,60.0024001,Chrome,1440,900,,,,,1,1346,,,,,,,,,,,,,,,,,Y,160,circle,1,0,,,,,,,,,,,,,,,,repeat,number,numRpt,k,0.8144,Lo,,,,,,5,,,,,,,,low,31,0,31,0,1,,,,,,,,,
296341,2022-10-05_12h25.24.880,vts_reward_expectancy,2022.2.4,MacIntel,60.0024001,Chrome,1440,900,,,,,,,,,,,,,,,,,,,,,,,,,,,,,,,,,,,,,,,,,,,,,,,,,,,,,,6,,,,,,,,,,,,,,"I was asked to differentiate between which numbers, letters, and shapes had the higher or lower value associated with them",2,Which shapes had a higher value,4,2,,2,1440,900
