participant,date,expName,psychopyVersion,OS,frameRate,browser,xResolution,yResolution,key_resp.keys,key_resp.rt,training_resp.keys,training_resp.rt,points_trial,points_cumul,trainBlock,training.thisRepN,training.thisTrialN,training.thisN,training.thisIndex,training.ran,LTriangleOpac,LCircleOpac,LHexagonOpac,LStarOpac,RTriangleOpac,RCircleOpac,RHexagonOpac,RStarOpac,LShape_ID,RShape_ID
297628,2022-11-14_12h14.50,vts_reward_expectancy_bt,2022.2.4,MacIntel,55.55555556,Safari,1280,800,,,,,,,,,,,,,,,,,,,,,,
297628,2022-11-14_12h14.50,vts_reward_expectancy_bt,2022.2.4,MacIntel,55.55555556,Safari,1280,800,space,25.963,,,,,,,,,,,,,,,,,,,,
297628,2022-11-14_12h14.50,vts_reward_expectancy_bt,2022.2.4,MacIntel,55.55555556,Safari,1280,800,,,,,,,,,,,,,,,,,,,,,,
297628,2022-11-14_12h14.50,vts_reward_expectancy_bt,2022.2.4,MacIntel,55.55555556,Safari,1280,800,,,l,1.286,10,10,0,0,0,0,8,1,0,0,1,0,0,0,0,1,hexagon,star
297628,2022-11-14_12h14.50,vts_reward_expectancy_bt,2022.2.4,MacIntel,55.55555556,Safari,1280,800,,,a,0.68,10,20,0,0,1,1,10,1,0,0,0,1,0,1,0,0,star ,circle
297628,2022-11-14_12h14.50,vts_reward_expectancy_bt,2022.2.4,MacIntel,55.55555556,Safari,1280,800,,,a,1.17,1,21,0,0,2,2,3,1,0,1,0,0,1,0,0,0,circle,triangle
297628,2022-11-14_12h14.50,vts_reward_expectancy_bt,2022.2.4,MacIntel,55.55555556,Safari,1280,800,,,l,0.738,10,31,0,0,3,3,7,1,0,0,1,0,0,1,0,0,hexagon,circle
297628,2022-11-14_12h14.50,vts_reward_expectancy_bt,2022.2.4,MacIntel,55.55555556,Safari,1280,800,,,l,0.518,10,41,0,0,4,4,2,1,1,0,0,0,0,0,0,1,triangle,star
297628,2022-11-14_12h14.50,vts_reward_expectancy_bt,2022.2.4,MacIntel,55.55555556,Safari,1280,800,,,a,0.704,1,42,0,0,5,5,1,1,1,0,0,0,0,0,1,0,triangle,hexagon
297628,2022-11-14_12h14.50,vts_reward_expectancy_bt,2022.2.4,MacIntel,55.55555556,Safari,1280,800,,,a,1.637,10,52,0,0,6,6,4,1,0,1,0,0,0,0,1,0,circle,hexagon
297628,2022-11-14_12h14.50,vts_reward_expectancy_bt,2022.2.4,MacIntel,55.55555556,Safari,1280,800,,,l,0.553,1,53,0,0,7,7,5,1,0,1,0,0,0,0,0,1,circle,star
297628,2022-11-14_12h14.50,vts_reward_expectancy_bt,2022.2.4,MacIntel,55.55555556,Safari,1280,800,,,a,0.538,1,54,0,0,8,8,11,1,0,0,0,1,0,0,1,0,star,hexagon
297628,2022-11-14_12h14.50,vts_reward_expectancy_bt,2022.2.4,MacIntel,55.55555556,Safari,1280,800,,,l,0.386,1,55,0,0,9,9,6,1,0,0,1,0,1,0,0,0,hexagon,triangle
297628,2022-11-14_12h14.50,vts_reward_expectancy_bt,2022.2.4,MacIntel,55.55555556,Safari,1280,800,,,l,0.296,1,56,0,0,10,10,0,1,1,0,0,0,0,1,0,0,triangle,circle
297628,2022-11-14_12h14.50,vts_reward_expectancy_bt,2022.2.4,MacIntel,55.55555556,Safari,1280,800,,,a,0.386,10,66,0,0,11,11,9,1,0,0,0,1,1,0,0,0,star,triangle
297628,2022-11-14_12h14.50,vts_reward_expectancy_bt,2022.2.4,MacIntel,55.55555556,Safari,1280,800,,,a,0.465,1,67,0,1,0,12,11,1,0,0,0,1,0,0,1,0,star,hexagon
297628,2022-11-14_12h14.50,vts_reward_expectancy_bt,2022.2.4,MacIntel,55.55555556,Safari,1280,800,,,a,0.684,10,77,0,1,1,13,9,1,0,0,0,1,1,0,0,0,star,triangle
297628,2022-11-14_12h14.50,vts_reward_expectancy_bt,2022.2.4,MacIntel,55.55555556,Safari,1280,800,,,l,0.781,1,78,0,1,2,14,0,1,1,0,0,0,0,1,0,0,triangle,circle
297628,2022-11-14_12h14.50,vts_reward_expectancy_bt,2022.2.4,MacIntel,55.55555556,Safari,1280,800,,,a,1.354,1,79,0,1,3,15,1,1,1,0,0,0,0,0,1,0,triangle,hexagon
297628,2022-11-14_12h14.50,vts_reward_expectancy_bt,2022.2.4,MacIntel,55.55555556,Safari,1280,800,,,l,0.75,10,89,0,1,4,16,2,1,1,0,0,0,0,0,0,1,triangle,star
297628,2022-11-14_12h14.50,vts_reward_expectancy_bt,2022.2.4,MacIntel,55.55555556,Safari,1280,800,,,a,0.884,1,90,0,1,5,17,3,1,0,1,0,0,1,0,0,0,circle,triangle
297628,2022-11-14_12h14.50,vts_reward_expectancy_bt,2022.2.4,MacIntel,55.55555556,Safari,1280,800,,,a,0.67,10,100,0,1,6,18,4,1,0,1,0,0,0,0,1,0,circle,hexagon
297628,2022-11-14_12h14.50,vts_reward_expectancy_bt,2022.2.4,MacIntel,55.55555556,Safari,1280,800,,,a,1.484,10,110,0,1,7,19,7,1,0,0,1,0,0,1,0,0,hexagon,circle
297628,2022-11-14_12h14.50,vts_reward_expectancy_bt,2022.2.4,MacIntel,55.55555556,Safari,1280,800,,,l,0.663,10,120,0,1,8,20,5,1,0,1,0,0,0,0,0,1,circle,star
297628,2022-11-14_12h14.50,vts_reward_expectancy_bt,2022.2.4,MacIntel,55.55555556,Safari,1280,800,,,l,0.57,1,121,0,1,9,21,8,1,0,0,1,0,0,0,0,1,hexagon,star
297628,2022-11-14_12h14.50,vts_reward_expectancy_bt,2022.2.4,MacIntel,55.55555556,Safari,1280,800,,,a,0.369,1,122,0,1,10,22,6,1,0,0,1,0,1,0,0,0,hexagon,triangle
297628,2022-11-14_12h14.50,vts_reward_expectancy_bt,2022.2.4,MacIntel,55.55555556,Safari,1280,800,,,l,0.587,10,132,0,1,11,23,10,1,0,0,0,1,0,1,0,0,star ,circle
297628,2022-11-14_12h14.50,vts_reward_expectancy_bt,2022.2.4,MacIntel,55.55555556,Safari,1280,800,,,l,0.604,10,142,0,2,0,24,0,1,1,0,0,0,0,1,0,0,triangle,circle
297628,2022-11-14_12h14.50,vts_reward_expectancy_bt,2022.2.4,MacIntel,55.55555556,Safari,1280,800,,,a,0.497,10,152,0,2,1,25,10,1,0,0,0,1,0,1,0,0,star ,circle
297628,2022-11-14_12h14.50,vts_reward_expectancy_bt,2022.2.4,MacIntel,55.55555556,Safari,1280,800,,,l,0.555,1,153,0,2,2,26,8,1,0,0,1,0,0,0,0,1,hexagon,star
297628,2022-11-14_12h14.50,vts_reward_expectancy_bt,2022.2.4,MacIntel,55.55555556,Safari,1280,800,,,a,0.297,10,163,0,2,3,27,3,1,0,1,0,0,1,0,0,0,circle,triangle
297628,2022-11-14_12h14.50,vts_reward_expectancy_bt,2022.2.4,MacIntel,55.55555556,Safari,1280,800,,,l,0.33,1,164,0,2,4,28,11,1,0,0,0,1,0,0,1,0,star,hexagon
297628,2022-11-14_12h14.50,vts_reward_expectancy_bt,2022.2.4,MacIntel,55.55555556,Safari,1280,800,,,a,0.335,10,174,0,2,5,29,9,1,0,0,0,1,1,0,0,0,star,triangle
297628,2022-11-14_12h14.50,vts_reward_expectancy_bt,2022.2.4,MacIntel,55.55555556,Safari,1280,800,,,l,0.72,10,184,0,2,6,30,6,1,0,0,1,0,1,0,0,0,hexagon,triangle
297628,2022-11-14_12h14.50,vts_reward_expectancy_bt,2022.2.4,MacIntel,55.55555556,Safari,1280,800,,,a,0.581,1,185,0,2,7,31,7,1,0,0,1,0,0,1,0,0,hexagon,circle
297628,2022-11-14_12h14.50,vts_reward_expectancy_bt,2022.2.4,MacIntel,55.55555556,Safari,1280,800,,,l,0.802,1,186,0,2,8,32,1,1,1,0,0,0,0,0,1,0,triangle,hexagon
297628,2022-11-14_12h14.50,vts_reward_expectancy_bt,2022.2.4,MacIntel,55.55555556,Safari,1280,800,,,a,3.431,10,196,0,2,9,33,5,1,0,1,0,0,0,0,0,1,circle,star
297628,2022-11-14_12h14.50,vts_reward_expectancy_bt,2022.2.4,MacIntel,55.55555556,Safari,1280,800,,,a,0.366,1,197,0,2,10,34,2,1,1,0,0,0,0,0,0,1,triangle,star
297628,2022-11-14_12h14.50,vts_reward_expectancy_bt,2022.2.4,MacIntel,55.55555556,Safari,1280,800,,,l,0.448,1,198,0,2,11,35,4,1,0,1,0,0,0,0,1,0,circle,hexagon
