participant,date,expName,psychopyVersion,OS,frameRate,browser,xResolution,yResolution,key_resp.keys,key_resp.rt,training_resp.keys,training_resp.rt,points_trial,points_cumul,trainBlock,training.thisRepN,training.thisTrialN,training.thisN,training.thisIndex,training.ran,LTriangleOpac,LCircleOpac,LHexagonOpac,LStarOpac,RTriangleOpac,RCircleOpac,RHexagonOpac,RStarOpac,LShape_ID,RShape_ID,curr_topStim,curr_bottStim,curr_shape,acc,E1,target_resp_prac1.keys,pracBlock,task1_prac_trials.thisRepN,task1_prac_trials.thisTrialN,task1_prac_trials.thisN,task1_prac_trials.thisIndex,task1_prac_trials.ran,target_resp_prac1.rt
293854,2022-09-21_15h27.00.406,vts_reward_expectancy,2022.2.4,MacIntel,120.0048002,Chrome,1728,1117,,,,,,,,,,,,,,,,,,,,,,,,,,,,,,,,,,,
293854,2022-09-21_15h27.00.406,vts_reward_expectancy,2022.2.4,MacIntel,120.0048002,Chrome,1728,1117,space,187.4974,,,,,,,,,,,,,,,,,,,,,,,,,,,,,,,,,
293854,2022-09-21_15h27.00.406,vts_reward_expectancy,2022.2.4,MacIntel,120.0048002,Chrome,1728,1117,,,,,,,,,,,,,,,,,,,,,,,,,,,,,,,,,,,
293854,2022-09-21_15h27.00.406,vts_reward_expectancy,2022.2.4,MacIntel,120.0048002,Chrome,1728,1117,,,l,0.9859,1,1,0,0,0,0,11,1,0,0,0,1,0,0,1,0,star,hexagon,,,,,,,,,,,,,
293854,2022-09-21_15h27.00.406,vts_reward_expectancy,2022.2.4,MacIntel,120.0048002,Chrome,1728,1117,,,l,2.0443,1,2,0,0,1,1,10,1,0,0,0,1,0,1,0,0,star ,circle,,,,,,,,,,,,,
293854,2022-09-21_15h27.00.406,vts_reward_expectancy,2022.2.4,MacIntel,120.0048002,Chrome,1728,1117,,,a,0.5903,1,3,0,0,2,2,6,1,0,0,1,0,1,0,0,0,hexagon,triangle,,,,,,,,,,,,,
293854,2022-09-21_15h27.00.406,vts_reward_expectancy,2022.2.4,MacIntel,120.0048002,Chrome,1728,1117,,,a,1.0343,1,4,0,0,3,3,4,1,0,1,0,0,0,0,1,0,circle,hexagon,,,,,,,,,,,,,
293854,2022-09-21_15h27.00.406,vts_reward_expectancy,2022.2.4,MacIntel,120.0048002,Chrome,1728,1117,,,a,1.0472,1,5,0,0,4,4,9,1,0,0,0,1,1,0,0,0,star,triangle,,,,,,,,,,,,,
293854,2022-09-21_15h27.00.406,vts_reward_expectancy,2022.2.4,MacIntel,120.0048002,Chrome,1728,1117,,,a,0.8263,1,6,0,0,5,5,5,1,0,1,0,0,0,0,0,1,circle,star,,,,,,,,,,,,,
293854,2022-09-21_15h27.00.406,vts_reward_expectancy,2022.2.4,MacIntel,120.0048002,Chrome,1728,1117,,,l,1.061,10,16,0,0,6,6,2,1,1,0,0,0,0,0,0,1,triangle,star,,,,,,,,,,,,,
293854,2022-09-21_15h27.00.406,vts_reward_expectancy,2022.2.4,MacIntel,120.0048002,Chrome,1728,1117,,,l,0.8793,1,17,0,0,7,7,3,1,0,1,0,0,1,0,0,0,circle,triangle,,,,,,,,,,,,,
293854,2022-09-21_15h27.00.406,vts_reward_expectancy,2022.2.4,MacIntel,120.0048002,Chrome,1728,1117,,,l,0.9224,1,18,0,0,8,8,0,1,1,0,0,0,0,1,0,0,triangle,circle,,,,,,,,,,,,,
293854,2022-09-21_15h27.00.406,vts_reward_expectancy,2022.2.4,MacIntel,120.0048002,Chrome,1728,1117,,,l,0.7159,1,19,0,0,9,9,1,1,1,0,0,0,0,0,1,0,triangle,hexagon,,,,,,,,,,,,,
293854,2022-09-21_15h27.00.406,vts_reward_expectancy,2022.2.4,MacIntel,120.0048002,Chrome,1728,1117,,,a,0.7782,1,20,0,0,10,10,7,1,0,0,1,0,0,1,0,0,hexagon,circle,,,,,,,,,,,,,
293854,2022-09-21_15h27.00.406,vts_reward_expectancy,2022.2.4,MacIntel,120.0048002,Chrome,1728,1117,,,l,0.609,10,30,0,0,11,11,8,1,0,0,1,0,0,0,0,1,hexagon,star,,,,,,,,,,,,,
293854,2022-09-21_15h27.00.406,vts_reward_expectancy,2022.2.4,MacIntel,120.0048002,Chrome,1728,1117,,,a,0.6383,10,40,0,1,0,12,11,1,0,0,0,1,0,0,1,0,star,hexagon,,,,,,,,,,,,,
293854,2022-09-21_15h27.00.406,vts_reward_expectancy,2022.2.4,MacIntel,120.0048002,Chrome,1728,1117,,,l,0.669,1,41,0,1,1,13,1,1,1,0,0,0,0,0,1,0,triangle,hexagon,,,,,,,,,,,,,
293854,2022-09-21_15h27.00.406,vts_reward_expectancy,2022.2.4,MacIntel,120.0048002,Chrome,1728,1117,,,a,0.5053,1,42,0,1,2,14,10,1,0,0,0,1,0,1,0,0,star ,circle,,,,,,,,,,,,,
293854,2022-09-21_15h27.00.406,vts_reward_expectancy,2022.2.4,MacIntel,120.0048002,Chrome,1728,1117,,,l,0.6085,1,43,0,1,3,15,7,1,0,0,1,0,0,1,0,0,hexagon,circle,,,,,,,,,,,,,
293854,2022-09-21_15h27.00.406,vts_reward_expectancy,2022.2.4,MacIntel,120.0048002,Chrome,1728,1117,,,l,0.5604,10,53,0,1,4,16,8,1,0,0,1,0,0,0,0,1,hexagon,star,,,,,,,,,,,,,
293854,2022-09-21_15h27.00.406,vts_reward_expectancy,2022.2.4,MacIntel,120.0048002,Chrome,1728,1117,,,l,0.6983,10,63,0,1,5,17,3,1,0,1,0,0,1,0,0,0,circle,triangle,,,,,,,,,,,,,
293854,2022-09-21_15h27.00.406,vts_reward_expectancy,2022.2.4,MacIntel,120.0048002,Chrome,1728,1117,,,a,0.6428,1,64,0,1,6,18,0,1,1,0,0,0,0,1,0,0,triangle,circle,,,,,,,,,,,,,
293854,2022-09-21_15h27.00.406,vts_reward_expectancy,2022.2.4,MacIntel,120.0048002,Chrome,1728,1117,,,l,1.2503,10,74,0,1,7,19,6,1,0,0,1,0,1,0,0,0,hexagon,triangle,,,,,,,,,,,,,
293854,2022-09-21_15h27.00.406,vts_reward_expectancy,2022.2.4,MacIntel,120.0048002,Chrome,1728,1117,,,a,0.8183,10,84,0,1,8,20,9,1,0,0,0,1,1,0,0,0,star,triangle,,,,,,,,,,,,,
293854,2022-09-21_15h27.00.406,vts_reward_expectancy,2022.2.4,MacIntel,120.0048002,Chrome,1728,1117,,,l,0.7397,1,85,0,1,9,21,2,1,1,0,0,0,0,0,0,1,triangle,star,,,,,,,,,,,,,
293854,2022-09-21_15h27.00.406,vts_reward_expectancy,2022.2.4,MacIntel,120.0048002,Chrome,1728,1117,,,l,0.6087,10,95,0,1,10,22,5,1,0,1,0,0,0,0,0,1,circle,star,,,,,,,,,,,,,
293854,2022-09-21_15h27.00.406,vts_reward_expectancy,2022.2.4,MacIntel,120.0048002,Chrome,1728,1117,,,a,0.7977,1,96,0,1,11,23,4,1,0,1,0,0,0,0,1,0,circle,hexagon,,,,,,,,,,,,,
293854,2022-09-21_15h27.00.406,vts_reward_expectancy,2022.2.4,MacIntel,120.0048002,Chrome,1728,1117,,,l,0.5824,1,97,0,2,0,24,2,1,1,0,0,0,0,0,0,1,triangle,star,,,,,,,,,,,,,
293854,2022-09-21_15h27.00.406,vts_reward_expectancy,2022.2.4,MacIntel,120.0048002,Chrome,1728,1117,,,l,0.4758,10,107,0,2,1,25,8,1,0,0,1,0,0,0,0,1,hexagon,star,,,,,,,,,,,,,
293854,2022-09-21_15h27.00.406,vts_reward_expectancy,2022.2.4,MacIntel,120.0048002,Chrome,1728,1117,,,a,0.5114,1,108,0,2,2,26,4,1,0,1,0,0,0,0,1,0,circle,hexagon,,,,,,,,,,,,,
293854,2022-09-21_15h27.00.406,vts_reward_expectancy,2022.2.4,MacIntel,120.0048002,Chrome,1728,1117,,,l,0.1056,10,118,0,2,3,27,5,1,0,1,0,0,0,0,0,1,circle,star,,,,,,,,,,,,,
293854,2022-09-21_15h27.00.406,vts_reward_expectancy,2022.2.4,MacIntel,120.0048002,Chrome,1728,1117,,,l,0.99,1,119,0,2,4,28,6,1,0,0,1,0,1,0,0,0,hexagon,triangle,,,,,,,,,,,,,
293854,2022-09-21_15h27.00.406,vts_reward_expectancy,2022.2.4,MacIntel,120.0048002,Chrome,1728,1117,,,a,0.7853,10,129,0,2,5,29,1,1,1,0,0,0,0,0,1,0,triangle,hexagon,,,,,,,,,,,,,
293854,2022-09-21_15h27.00.406,vts_reward_expectancy,2022.2.4,MacIntel,120.0048002,Chrome,1728,1117,,,a,1.0272,10,139,0,2,6,30,7,1,0,0,1,0,0,1,0,0,hexagon,circle,,,,,,,,,,,,,
293854,2022-09-21_15h27.00.406,vts_reward_expectancy,2022.2.4,MacIntel,120.0048002,Chrome,1728,1117,,,a,0.8593,10,149,0,2,7,31,10,1,0,0,0,1,0,1,0,0,star ,circle,,,,,,,,,,,,,
293854,2022-09-21_15h27.00.406,vts_reward_expectancy,2022.2.4,MacIntel,120.0048002,Chrome,1728,1117,,,a,0.0418,10,159,0,2,8,32,0,1,1,0,0,0,0,1,0,0,triangle,circle,,,,,,,,,,,,,
293854,2022-09-21_15h27.00.406,vts_reward_expectancy,2022.2.4,MacIntel,120.0048002,Chrome,1728,1117,,,l,0.4656,10,169,0,2,9,33,3,1,0,1,0,0,1,0,0,0,circle,triangle,,,,,,,,,,,,,
293854,2022-09-21_15h27.00.406,vts_reward_expectancy,2022.2.4,MacIntel,120.0048002,Chrome,1728,1117,,,a,0.9424,10,179,0,2,10,34,11,1,0,0,0,1,0,0,1,0,star,hexagon,,,,,,,,,,,,,
293854,2022-09-21_15h27.00.406,vts_reward_expectancy,2022.2.4,MacIntel,120.0048002,Chrome,1728,1117,,,a,0.3905,10,189,0,2,11,35,9,1,0,0,0,1,1,0,0,0,star,triangle,,,,,,,,,,,,,
293854,2022-09-21_15h27.00.406,vts_reward_expectancy,2022.2.4,MacIntel,120.0048002,Chrome,1728,1117,,,a,0.6977,1,190,1,0,0,0,9,1,0,0,0,1,1,0,0,0,star,triangle,,,,,,,,,,,,,
293854,2022-09-21_15h27.00.406,vts_reward_expectancy,2022.2.4,MacIntel,120.0048002,Chrome,1728,1117,,,l,0.4593,1,191,1,0,1,1,8,1,0,0,1,0,0,0,0,1,hexagon,star,,,,,,,,,,,,,
293854,2022-09-21_15h27.00.406,vts_reward_expectancy,2022.2.4,MacIntel,120.0048002,Chrome,1728,1117,,,a,0.4577,10,201,1,0,2,2,11,1,0,0,0,1,0,0,1,0,star,hexagon,,,,,,,,,,,,,
293854,2022-09-21_15h27.00.406,vts_reward_expectancy,2022.2.4,MacIntel,120.0048002,Chrome,1728,1117,,,l,1.1247,10,211,1,0,3,3,6,1,0,0,1,0,1,0,0,0,hexagon,triangle,,,,,,,,,,,,,
293854,2022-09-21_15h27.00.406,vts_reward_expectancy,2022.2.4,MacIntel,120.0048002,Chrome,1728,1117,,,l,0.7598,10,221,1,0,4,4,4,1,0,1,0,0,0,0,1,0,circle,hexagon,,,,,,,,,,,,,
293854,2022-09-21_15h27.00.406,vts_reward_expectancy,2022.2.4,MacIntel,120.0048002,Chrome,1728,1117,,,a,0.5403,10,231,1,0,5,5,0,1,1,0,0,0,0,1,0,0,triangle,circle,,,,,,,,,,,,,
293854,2022-09-21_15h27.00.406,vts_reward_expectancy,2022.2.4,MacIntel,120.0048002,Chrome,1728,1117,,,l,0.5998,10,241,1,0,6,6,3,1,0,1,0,0,1,0,0,0,circle,triangle,,,,,,,,,,,,,
293854,2022-09-21_15h27.00.406,vts_reward_expectancy,2022.2.4,MacIntel,120.0048002,Chrome,1728,1117,,,a,0.4077,10,251,1,0,7,7,10,1,0,0,0,1,0,1,0,0,star ,circle,,,,,,,,,,,,,
293854,2022-09-21_15h27.00.406,vts_reward_expectancy,2022.2.4,MacIntel,120.0048002,Chrome,1728,1117,,,l,0.4858,1,252,1,0,8,8,1,1,1,0,0,0,0,0,1,0,triangle,hexagon,,,,,,,,,,,,,
293854,2022-09-21_15h27.00.406,vts_reward_expectancy,2022.2.4,MacIntel,120.0048002,Chrome,1728,1117,,,a,0.6504,10,262,1,0,9,9,7,1,0,0,1,0,0,1,0,0,hexagon,circle,,,,,,,,,,,,,
293854,2022-09-21_15h27.00.406,vts_reward_expectancy,2022.2.4,MacIntel,120.0048002,Chrome,1728,1117,,,l,1.4844,10,272,1,0,10,10,2,1,1,0,0,0,0,0,0,1,triangle,star,,,,,,,,,,,,,
293854,2022-09-21_15h27.00.406,vts_reward_expectancy,2022.2.4,MacIntel,120.0048002,Chrome,1728,1117,,,l,1.2236,10,282,1,0,11,11,5,1,0,1,0,0,0,0,0,1,circle,star,,,,,,,,,,,,,
293854,2022-09-21_15h27.00.406,vts_reward_expectancy,2022.2.4,MacIntel,120.0048002,Chrome,1728,1117,,,a,0.5348,1,283,1,1,0,12,1,1,1,0,0,0,0,0,1,0,triangle,hexagon,,,,,,,,,,,,,
293854,2022-09-21_15h27.00.406,vts_reward_expectancy,2022.2.4,MacIntel,120.0048002,Chrome,1728,1117,,,a,0.4862,1,284,1,1,1,13,3,1,0,1,0,0,1,0,0,0,circle,triangle,,,,,,,,,,,,,
293854,2022-09-21_15h27.00.406,vts_reward_expectancy,2022.2.4,MacIntel,120.0048002,Chrome,1728,1117,,,a,0.5668,1,285,1,1,2,14,11,1,0,0,0,1,0,0,1,0,star,hexagon,,,,,,,,,,,,,
293854,2022-09-21_15h27.00.406,vts_reward_expectancy,2022.2.4,MacIntel,120.0048002,Chrome,1728,1117,,,l,0.6694,1,286,1,1,3,15,4,1,0,1,0,0,0,0,1,0,circle,hexagon,,,,,,,,,,,,,
293854,2022-09-21_15h27.00.406,vts_reward_expectancy,2022.2.4,MacIntel,120.0048002,Chrome,1728,1117,,,l,0.5759,10,296,1,1,4,16,2,1,1,0,0,0,0,0,0,1,triangle,star,,,,,,,,,,,,,
293854,2022-09-21_15h27.00.406,vts_reward_expectancy,2022.2.4,MacIntel,120.0048002,Chrome,1728,1117,,,l,1.0904,1,297,1,1,5,17,7,1,0,0,1,0,0,1,0,0,hexagon,circle,,,,,,,,,,,,,
293854,2022-09-21_15h27.00.406,vts_reward_expectancy,2022.2.4,MacIntel,120.0048002,Chrome,1728,1117,,,l,0.5677,10,307,1,1,6,18,8,1,0,0,1,0,0,0,0,1,hexagon,star,,,,,,,,,,,,,
293854,2022-09-21_15h27.00.406,vts_reward_expectancy,2022.2.4,MacIntel,120.0048002,Chrome,1728,1117,,,a,0.6209,1,308,1,1,7,19,6,1,0,0,1,0,1,0,0,0,hexagon,triangle,,,,,,,,,,,,,
293854,2022-09-21_15h27.00.406,vts_reward_expectancy,2022.2.4,MacIntel,120.0048002,Chrome,1728,1117,,,l,0.4855,10,318,1,1,8,20,5,1,0,1,0,0,0,0,0,1,circle,star,,,,,,,,,,,,,
293854,2022-09-21_15h27.00.406,vts_reward_expectancy,2022.2.4,MacIntel,120.0048002,Chrome,1728,1117,,,a,0.4966,10,328,1,1,9,21,10,1,0,0,0,1,0,1,0,0,star ,circle,,,,,,,,,,,,,
293854,2022-09-21_15h27.00.406,vts_reward_expectancy,2022.2.4,MacIntel,120.0048002,Chrome,1728,1117,,,a,0.9955,10,338,1,1,10,22,0,1,1,0,0,0,0,1,0,0,triangle,circle,,,,,,,,,,,,,
293854,2022-09-21_15h27.00.406,vts_reward_expectancy,2022.2.4,MacIntel,120.0048002,Chrome,1728,1117,,,a,0.8392,1,339,1,1,11,23,9,1,0,0,0,1,1,0,0,0,star,triangle,,,,,,,,,,,,,
293854,2022-09-21_15h27.00.406,vts_reward_expectancy,2022.2.4,MacIntel,120.0048002,Chrome,1728,1117,,,l,0.4887,1,340,1,2,0,24,4,1,0,1,0,0,0,0,1,0,circle,hexagon,,,,,,,,,,,,,
293854,2022-09-21_15h27.00.406,vts_reward_expectancy,2022.2.4,MacIntel,120.0048002,Chrome,1728,1117,,,l,0.1976,1,341,1,2,1,25,11,1,0,0,0,1,0,0,1,0,star,hexagon,,,,,,,,,,,,,
293854,2022-09-21_15h27.00.406,vts_reward_expectancy,2022.2.4,MacIntel,120.0048002,Chrome,1728,1117,,,l,0.4095,10,351,1,2,2,26,5,1,0,1,0,0,0,0,0,1,circle,star,,,,,,,,,,,,,
293854,2022-09-21_15h27.00.406,vts_reward_expectancy,2022.2.4,MacIntel,120.0048002,Chrome,1728,1117,,,a,0.2402,1,352,1,2,3,27,9,1,0,0,0,1,1,0,0,0,star,triangle,,,,,,,,,,,,,
293854,2022-09-21_15h27.00.406,vts_reward_expectancy,2022.2.4,MacIntel,120.0048002,Chrome,1728,1117,,,l,0.5271,1,353,1,2,4,28,0,1,1,0,0,0,0,1,0,0,triangle,circle,,,,,,,,,,,,,
293854,2022-09-21_15h27.00.406,vts_reward_expectancy,2022.2.4,MacIntel,120.0048002,Chrome,1728,1117,,,l,0.2797,10,363,1,2,5,29,8,1,0,0,1,0,0,0,0,1,hexagon,star,,,,,,,,,,,,,
293854,2022-09-21_15h27.00.406,vts_reward_expectancy,2022.2.4,MacIntel,120.0048002,Chrome,1728,1117,,,a,0.3176,1,364,1,2,6,30,6,1,0,0,1,0,1,0,0,0,hexagon,triangle,,,,,,,,,,,,,
293854,2022-09-21_15h27.00.406,vts_reward_expectancy,2022.2.4,MacIntel,120.0048002,Chrome,1728,1117,,,l,0.0599,1,365,1,2,7,31,1,1,1,0,0,0,0,0,1,0,triangle,hexagon,,,,,,,,,,,,,
293854,2022-09-21_15h27.00.406,vts_reward_expectancy,2022.2.4,MacIntel,120.0048002,Chrome,1728,1117,,,a,0.3452,1,366,1,2,8,32,7,1,0,0,1,0,0,1,0,0,hexagon,circle,,,,,,,,,,,,,
293854,2022-09-21_15h27.00.406,vts_reward_expectancy,2022.2.4,MacIntel,120.0048002,Chrome,1728,1117,,,l,0.3728,1,367,1,2,9,33,2,1,1,0,0,0,0,0,0,1,triangle,star,,,,,,,,,,,,,
293854,2022-09-21_15h27.00.406,vts_reward_expectancy,2022.2.4,MacIntel,120.0048002,Chrome,1728,1117,,,a,0.3156,1,368,1,2,10,34,10,1,0,0,0,1,0,1,0,0,star ,circle,,,,,,,,,,,,,
293854,2022-09-21_15h27.00.406,vts_reward_expectancy,2022.2.4,MacIntel,120.0048002,Chrome,1728,1117,,,l,0.0208,10,378,1,2,11,35,3,1,0,1,0,0,1,0,0,0,circle,triangle,,,,,,,,,,,,,
293854,2022-09-21_15h27.00.406,vts_reward_expectancy,2022.2.4,MacIntel,120.0048002,Chrome,1728,1117,,,l,1.3035,1,379,2,0,0,0,8,1,0,0,1,0,0,0,0,1,hexagon,star,,,,,,,,,,,,,
293854,2022-09-21_15h27.00.406,vts_reward_expectancy,2022.2.4,MacIntel,120.0048002,Chrome,1728,1117,,,a,0.2716,1,380,2,0,1,1,9,1,0,0,0,1,1,0,0,0,star,triangle,,,,,,,,,,,,,
293854,2022-09-21_15h27.00.406,vts_reward_expectancy,2022.2.4,MacIntel,120.0048002,Chrome,1728,1117,,,a,0.6483,10,390,2,0,2,2,0,1,1,0,0,0,0,1,0,0,triangle,circle,,,,,,,,,,,,,
293854,2022-09-21_15h27.00.406,vts_reward_expectancy,2022.2.4,MacIntel,120.0048002,Chrome,1728,1117,,,l,0.402,10,400,2,0,3,3,2,1,1,0,0,0,0,0,0,1,triangle,star,,,,,,,,,,,,,
293854,2022-09-21_15h27.00.406,vts_reward_expectancy,2022.2.4,MacIntel,120.0048002,Chrome,1728,1117,,,a,0.4408,1,401,2,0,4,4,7,1,0,0,1,0,0,1,0,0,hexagon,circle,,,,,,,,,,,,,
293854,2022-09-21_15h27.00.406,vts_reward_expectancy,2022.2.4,MacIntel,120.0048002,Chrome,1728,1117,,,l,0.5381,10,411,2,0,5,5,6,1,0,0,1,0,1,0,0,0,hexagon,triangle,,,,,,,,,,,,,
293854,2022-09-21_15h27.00.406,vts_reward_expectancy,2022.2.4,MacIntel,120.0048002,Chrome,1728,1117,,,a,0.5899,1,412,2,0,6,6,3,1,0,1,0,0,1,0,0,0,circle,triangle,,,,,,,,,,,,,
293854,2022-09-21_15h27.00.406,vts_reward_expectancy,2022.2.4,MacIntel,120.0048002,Chrome,1728,1117,,,l,1.2904,10,422,2,0,7,7,4,1,0,1,0,0,0,0,1,0,circle,hexagon,,,,,,,,,,,,,
293854,2022-09-21_15h27.00.406,vts_reward_expectancy,2022.2.4,MacIntel,120.0048002,Chrome,1728,1117,,,l,2.2484,10,432,2,0,8,8,1,1,1,0,0,0,0,0,1,0,triangle,hexagon,,,,,,,,,,,,,
293854,2022-09-21_15h27.00.406,vts_reward_expectancy,2022.2.4,MacIntel,120.0048002,Chrome,1728,1117,,,a,0.4138,10,442,2,0,9,9,11,1,0,0,0,1,0,0,1,0,star,hexagon,,,,,,,,,,,,,
293854,2022-09-21_15h27.00.406,vts_reward_expectancy,2022.2.4,MacIntel,120.0048002,Chrome,1728,1117,,,l,0.4811,10,452,2,0,10,10,5,1,0,1,0,0,0,0,0,1,circle,star,,,,,,,,,,,,,
293854,2022-09-21_15h27.00.406,vts_reward_expectancy,2022.2.4,MacIntel,120.0048002,Chrome,1728,1117,,,a,0.3382,10,462,2,0,11,11,10,1,0,0,0,1,0,1,0,0,star ,circle,,,,,,,,,,,,,
293854,2022-09-21_15h27.00.406,vts_reward_expectancy,2022.2.4,MacIntel,120.0048002,Chrome,1728,1117,,,l,1.8317,10,472,2,1,0,12,9,1,0,0,0,1,1,0,0,0,star,triangle,,,,,,,,,,,,,
293854,2022-09-21_15h27.00.406,vts_reward_expectancy,2022.2.4,MacIntel,120.0048002,Chrome,1728,1117,,,l,10.1467,1,473,2,1,1,13,5,1,0,1,0,0,0,0,0,1,circle,star,,,,,,,,,,,,,
293854,2022-09-21_15h27.00.406,vts_reward_expectancy,2022.2.4,MacIntel,120.0048002,Chrome,1728,1117,,,l,0.5294,1,474,2,1,2,14,0,1,1,0,0,0,0,1,0,0,triangle,circle,,,,,,,,,,,,,
293854,2022-09-21_15h27.00.406,vts_reward_expectancy,2022.2.4,MacIntel,120.0048002,Chrome,1728,1117,,,l,1.4479,10,484,2,1,3,15,3,1,0,1,0,0,1,0,0,0,circle,triangle,,,,,,,,,,,,,
293854,2022-09-21_15h27.00.406,vts_reward_expectancy,2022.2.4,MacIntel,120.0048002,Chrome,1728,1117,,,a,1.3451,10,494,2,1,4,16,10,1,0,0,0,1,0,1,0,0,star ,circle,,,,,,,,,,,,,
293854,2022-09-21_15h27.00.406,vts_reward_expectancy,2022.2.4,MacIntel,120.0048002,Chrome,1728,1117,,,a,1.9796,10,504,2,1,5,17,11,1,0,0,0,1,0,0,1,0,star,hexagon,,,,,,,,,,,,,
293854,2022-09-21_15h27.00.406,vts_reward_expectancy,2022.2.4,MacIntel,120.0048002,Chrome,1728,1117,,,l,0.6024,1,505,2,1,6,18,1,1,1,0,0,0,0,0,1,0,triangle,hexagon,,,,,,,,,,,,,
293854,2022-09-21_15h27.00.406,vts_reward_expectancy,2022.2.4,MacIntel,120.0048002,Chrome,1728,1117,,,l,0.3421,10,515,2,1,7,19,6,1,0,0,1,0,1,0,0,0,hexagon,triangle,,,,,,,,,,,,,
293854,2022-09-21_15h27.00.406,vts_reward_expectancy,2022.2.4,MacIntel,120.0048002,Chrome,1728,1117,,,a,0.2913,10,525,2,1,8,20,4,1,0,1,0,0,0,0,1,0,circle,hexagon,,,,,,,,,,,,,
293854,2022-09-21_15h27.00.406,vts_reward_expectancy,2022.2.4,MacIntel,120.0048002,Chrome,1728,1117,,,l,0.1918,10,535,2,1,9,21,8,1,0,0,1,0,0,0,0,1,hexagon,star,,,,,,,,,,,,,
293854,2022-09-21_15h27.00.406,vts_reward_expectancy,2022.2.4,MacIntel,120.0048002,Chrome,1728,1117,,,a,0.4261,10,545,2,1,10,22,2,1,1,0,0,0,0,0,0,1,triangle,star,,,,,,,,,,,,,
293854,2022-09-21_15h27.00.406,vts_reward_expectancy,2022.2.4,MacIntel,120.0048002,Chrome,1728,1117,,,l,6.8944,1,546,2,1,11,23,7,1,0,0,1,0,0,1,0,0,hexagon,circle,,,,,,,,,,,,,
293854,2022-09-21_15h27.00.406,vts_reward_expectancy,2022.2.4,MacIntel,120.0048002,Chrome,1728,1117,,,a,0.251,1,547,2,2,0,24,9,1,0,0,0,1,1,0,0,0,star,triangle,,,,,,,,,,,,,
293854,2022-09-21_15h27.00.406,vts_reward_expectancy,2022.2.4,MacIntel,120.0048002,Chrome,1728,1117,,,l,0.4141,1,548,2,2,1,25,1,1,1,0,0,0,0,0,1,0,triangle,hexagon,,,,,,,,,,,,,
293854,2022-09-21_15h27.00.406,vts_reward_expectancy,2022.2.4,MacIntel,120.0048002,Chrome,1728,1117,,,l,0.0471,10,558,2,2,2,26,3,1,0,1,0,0,1,0,0,0,circle,triangle,,,,,,,,,,,,,
293854,2022-09-21_15h27.00.406,vts_reward_expectancy,2022.2.4,MacIntel,120.0048002,Chrome,1728,1117,,,a,0.0594,10,568,2,2,3,27,7,1,0,0,1,0,0,1,0,0,hexagon,circle,,,,,,,,,,,,,
293854,2022-09-21_15h27.00.406,vts_reward_expectancy,2022.2.4,MacIntel,120.0048002,Chrome,1728,1117,,,l,0.1449,1,569,2,2,4,28,8,1,0,0,1,0,0,0,0,1,hexagon,star,,,,,,,,,,,,,
293854,2022-09-21_15h27.00.406,vts_reward_expectancy,2022.2.4,MacIntel,120.0048002,Chrome,1728,1117,,,l,0.0594,10,579,2,2,5,29,4,1,0,1,0,0,0,0,1,0,circle,hexagon,,,,,,,,,,,,,
293854,2022-09-21_15h27.00.406,vts_reward_expectancy,2022.2.4,MacIntel,120.0048002,Chrome,1728,1117,,,l,2.0855,1,580,2,2,6,30,5,1,0,1,0,0,0,0,0,1,circle,star,,,,,,,,,,,,,
293854,2022-09-21_15h27.00.406,vts_reward_expectancy,2022.2.4,MacIntel,120.0048002,Chrome,1728,1117,,,l,0.7097,1,581,2,2,7,31,0,1,1,0,0,0,0,1,0,0,triangle,circle,,,,,,,,,,,,,
293854,2022-09-21_15h27.00.406,vts_reward_expectancy,2022.2.4,MacIntel,120.0048002,Chrome,1728,1117,,,a,1.9827,10,591,2,2,8,32,11,1,0,0,0,1,0,0,1,0,star,hexagon,,,,,,,,,,,,,
293854,2022-09-21_15h27.00.406,vts_reward_expectancy,2022.2.4,MacIntel,120.0048002,Chrome,1728,1117,,,l,0.2897,10,601,2,2,9,33,6,1,0,0,1,0,1,0,0,0,hexagon,triangle,,,,,,,,,,,,,
293854,2022-09-21_15h27.00.406,vts_reward_expectancy,2022.2.4,MacIntel,120.0048002,Chrome,1728,1117,,,l,0.1492,1,602,2,2,10,34,2,1,1,0,0,0,0,0,0,1,triangle,star,,,,,,,,,,,,,
293854,2022-09-21_15h27.00.406,vts_reward_expectancy,2022.2.4,MacIntel,120.0048002,Chrome,1728,1117,,,a,1.8072,1,603,2,2,11,35,10,1,0,0,0,1,0,1,0,0,star ,circle,,,,,,,,,,,,,
293854,2022-09-21_15h27.00.406,vts_reward_expectancy,2022.2.4,MacIntel,120.0048002,Chrome,1728,1117,,,,,,,,,,,,,,,,,,,,,,,125,F,hexagon,0,0,,0,0,0,0,0,1,
293854,2022-09-21_15h27.00.406,vts_reward_expectancy,2022.2.4,MacIntel,120.0048002,Chrome,1728,1117,,,,,,,,,,,,,,,,,,,,,,,174,B,star,0,1,d,0,1,0,1,0,1,0.7223
293854,2022-09-21_15h27.00.406,vts_reward_expectancy,2022.2.4,MacIntel,120.0048002,Chrome,1728,1117,,,,,,,,,,,,,,,,,,,,,,,132,S,triangle,1,1,d,0,2,0,2,0,1,0.9246
293854,2022-09-21_15h27.00.406,vts_reward_expectancy,2022.2.4,MacIntel,120.0048002,Chrome,1728,1117,,,,,,,,,,,,,,,,,,,,,,,167,H,circle,1,0,f,0,3,0,3,0,1,0.595
293854,2022-09-21_15h27.00.406,vts_reward_expectancy,2022.2.4,MacIntel,120.0048002,Chrome,1728,1117,,,,,,,,,,,,,,,,,,,,,,,160,W,hexagon,1,0,f,0,4,0,4,0,1,0.7288
293854,2022-09-21_15h27.00.406,vts_reward_expectancy,2022.2.4,MacIntel,120.0048002,Chrome,1728,1117,,,,,,,,,,,,,,,,,,,,,,,181,U,star,1,0,f,0,5,0,5,0,1,0.5895
293854,2022-09-21_15h27.00.406,vts_reward_expectancy,2022.2.4,MacIntel,120.0048002,Chrome,1728,1117,,,,,,,,,,,,,,,,,,,,,,,139,Y,triangle,1,0,d,0,6,0,6,0,1,0.6734
293854,2022-09-21_15h27.00.406,vts_reward_expectancy,2022.2.4,MacIntel,120.0048002,Chrome,1728,1117,,,,,,,,,,,,,,,,,,,,,,,146,D,circle,1,0,d,0,7,0,7,0,1,0.8432
293854,2022-09-21_15h27.00.406,vts_reward_expectancy,2022.2.4,MacIntel,120.0048002,Chrome,1728,1117,,,,,,,,,,,,,,,,,,,,,,,125,F,hexagon,1,0,d,0,8,0,8,0,1,0.4968
293854,2022-09-21_15h27.00.406,vts_reward_expectancy,2022.2.4,MacIntel,120.0048002,Chrome,1728,1117,,,,,,,,,,,,,,,,,,,,,,,174,B,circle,1,0,f,0,9,0,9,0,1,0.9214
