LTriangleOpac,LCircleOpac,LHexagonOpac,LStarOpac,RTriangleOpac,RCircleOpac,RHexagonOpac,RStarOpac,LShape_ID,RShape_ID,training_blocks.thisRepN,training_blocks.thisTrialN,training_blocks.thisN,training_blocks.thisIndex,training.thisRepN,training.thisTrialN,training.thisN,training.thisIndex,task1_prac_redo.thisRepN,task1_prac_redo.thisTrialN,task1_prac_redo.thisN,task1_prac_redo.thisIndex,task1_prac_trials.thisRepN,task1_prac_trials.thisTrialN,task1_prac_trials.thisN,task1_prac_trials.thisIndex,key_resp.started,key_resp.keys,key_resp.rt,left_circle.started,right_circle.started,left_triangle.started,right_triangle.started,left_star.started,right_star.started,left_hexagon.started,right_hexagon.started,training_fix.started,training_resp.started,training_resp.keys,training_resp.rt,points_trial,points_cumul,trainBlock,training_feedback_txt.started,training_feedback_txt.stopped,fix.started,fix.stopped,curr_topStim,curr_bottStim,curr_shape,ISI.started,tgt_fix_prac1.started,top_target_prac1.started,bott_target_prac1.started,target_resp_prac1.started,top_target_prac1.stopped,bott_target_prac1.stopped,target_resp_prac1.stopped,acc,E1,target_resp_prac1.keys,pracBlock,prac_fback_text.started,target_resp_prac1.rt,prac_fback_text.stopped,participant,date,expName,psychopyVersion,frameRate,
,,,,,,,,,,,,,,,,,,,,,,,,,,15.438784496858716,space,23.46177901700139,,,,,,,,,,,,,,,,,,,,,,,,,,,,,,,,,,,,,,13674,2022-12-02_09h18.27.173,vts_reward_expectancy_bt_OFFLINE,2022.2.4,59.9701811746619,
1,0,0,0,0,0,1,0,triangle,hexagon,0,0,0,0,0,0,0,1,,,,,,,,,,,,63.0415736916475,63.0415736916475,63.0415736916475,63.0415736916475,63.0415736916475,63.0415736916475,63.0415736916475,63.0415736916475,63.0415736916475,63.0415736916475,l,2.6244113729335368,10,10,0,65.70012441789731,67.19981507584453,67.19981507584453,67.69983307272196,,,,,,,,,,,,,,,,,,,13674,2022-12-02_09h18.27.173,vts_reward_expectancy_bt_OFFLINE,2022.2.4,59.9701811746619,
0,0,0,1,1,0,0,0,star,triangle,0,0,0,0,0,1,1,9,,,,,,,,,,,,67.69983307272196,67.69983307272196,67.69983307272196,67.69983307272196,67.69983307272196,67.69983307272196,67.69983307272196,67.69983307272196,67.69983307272196,67.69983307272196,a,1.307223638985306,10,20,0,69.03562314994633,70.5361360986717,70.5361360986717,71.03651312878355,,,,,,,,,,,,,,,,,,,13674,2022-12-02_09h18.27.173,vts_reward_expectancy_bt_OFFLINE,2022.2.4,59.9701811746619,
0,0,1,0,1,0,0,0,hexagon,triangle,0,0,0,0,0,2,2,6,,,,,,,,,,,,71.03651312878355,71.03651312878355,71.03651312878355,71.03651312878355,71.03651312878355,71.03651312878355,71.03651312878355,71.03651312878355,71.03651312878355,71.03651312878355,a,1.098920516204089,1,21,0,72.1551935817115,,73.6557134790346,,,,,,,,,,,,,,,,,,,,13674,2022-12-02_09h18.27.173,vts_reward_expectancy_bt_OFFLINE,2022.2.4,59.9701811746619,
0,1,0,0,0,0,0,1,circle,star,0,0,0,0,0,3,3,5,,,,,,,,,,,,74.15595405595377,74.15595405595377,74.15595405595377,74.15595405595377,74.15595405595377,74.15595405595377,74.15595405595377,74.15595405595377,74.15595405595377,74.15595405595377,a,2.2434682180173695,1,22,0,76.42356880800799,77.9240831467323,77.9240831467323,78.42382468981668,,,,,,,,,,,,,,,,,,,13674,2022-12-02_09h18.27.173,vts_reward_expectancy_bt_OFFLINE,2022.2.4,59.9701811746619,
1,0,0,0,0,1,0,0,triangle,circle,0,0,0,0,0,4,4,0,,,,,,,,,,,,78.42382468981668,78.42382468981668,78.42382468981668,78.42382468981668,78.42382468981668,78.42382468981668,78.42382468981668,78.42382468981668,78.42382468981668,78.42382468981668,a,2.385074400343001,1,23,0,80.82684254786,82.3273147456348,82.3273147456348,82.82737660966814,,,,,,,,,,,,,,,,,,,13674,2022-12-02_09h18.27.173,vts_reward_expectancy_bt_OFFLINE,2022.2.4,59.9701811746619,
0,0,0,1,0,0,1,0,star,hexagon,0,0,0,0,0,5,5,11,,,,,,,,,,,,82.82737660966814,82.82737660966814,82.82737660966814,82.82737660966814,82.82737660966814,82.82737660966814,82.82737660966814,82.82737660966814,82.82737660966814,82.82737660966814,a,2.572445028927177,1,24,0,85.43049166398123,86.93106843158603,86.93106843158603,87.43083231570199,,,,,,,,,,,,,,,,,,,13674,2022-12-02_09h18.27.173,vts_reward_expectancy_bt_OFFLINE,2022.2.4,59.9701811746619,
0,0,1,0,0,0,0,1,hexagon,star,0,0,0,0,0,6,6,8,,,,,,,,,,,,87.43083231570199,87.43083231570199,87.43083231570199,87.43083231570199,87.43083231570199,87.43083231570199,87.43083231570199,87.43083231570199,87.43083231570199,87.43083231570199,a,1.8384283320046961,1,25,0,89.30029949964955,90.80075037200004,90.80075037200004,91.30084890360013,,,,,,,,,,,,,,,,,,,13674,2022-12-02_09h18.27.173,vts_reward_expectancy_bt_OFFLINE,2022.2.4,59.9701811746619,
0,1,0,0,0,0,1,0,circle,hexagon,0,0,0,0,0,7,7,4,,,,,,,,,,,,91.30084890360013,91.30084890360013,91.30084890360013,91.30084890360013,91.30084890360013,91.30084890360013,91.30084890360013,91.30084890360013,91.30084890360013,91.30084890360013,l,1.2314851749688387,10,35,0,92.5528137399815,,94.05387179693207,,,,,,,,,,,,,,,,,,,,13674,2022-12-02_09h18.27.173,vts_reward_expectancy_bt_OFFLINE,2022.2.4,59.9701811746619,
0,0,1,0,0,1,0,0,hexagon,circle,0,0,0,0,0,8,8,7,,,,,,,,,,,,94.55394814070314,94.55394814070314,94.55394814070314,94.55394814070314,94.55394814070314,94.55394814070314,94.55394814070314,94.55394814070314,94.55394814070314,94.55394814070314,a,1.8709888067096472,1,36,0,96.4561133296229,97.95527669601142,97.95527669601142,98.45518516888842,,,,,,,,,,,,,,,,,,,13674,2022-12-02_09h18.27.173,vts_reward_expectancy_bt_OFFLINE,2022.2.4,59.9701811746619,
1,0,0,0,0,0,0,1,triangle,star,0,0,0,0,0,9,9,2,,,,,,,,,,,,98.45518516888842,98.45518516888842,98.45518516888842,98.45518516888842,98.45518516888842,98.45518516888842,98.45518516888842,98.45518516888842,98.45518516888842,98.45518516888842,l,0.9740221006795764,10,46,0,99.45882779080421,100.9579484895803,100.9579484895803,101.45848577283323,,,,,,,,,,,,,,,,,,,13674,2022-12-02_09h18.27.173,vts_reward_expectancy_bt_OFFLINE,2022.2.4,59.9701811746619,
0,0,0,1,0,1,0,0,star ,circle,0,0,0,0,0,10,10,10,,,,,,,,,,,,101.45848577283323,101.45848577283323,101.45848577283323,101.45848577283323,101.45848577283323,101.45848577283323,101.45848577283323,101.45848577283323,101.45848577283323,101.45848577283323,a,0.8500783061608672,10,56,0,102.32535671489313,,103.8276170026511,,,,,,,,,,,,,,,,,,,,13674,2022-12-02_09h18.27.173,vts_reward_expectancy_bt_OFFLINE,2022.2.4,59.9701811746619,
0,1,0,0,1,0,0,0,circle,triangle,0,0,0,0,0,11,11,3,,,,,,,,,,,,104.32764679985121,104.32764679985121,104.32764679985121,104.32764679985121,104.32764679985121,104.32764679985121,104.32764679985121,104.32764679985121,104.32764679985121,104.32764679985121,a,2.7739077494479716,10,66,0,107.1287608249113,,108.63122799480334,,,,,,,,,,,,,,,,,,,,13674,2022-12-02_09h18.27.173,vts_reward_expectancy_bt_OFFLINE,2022.2.4,59.9701811746619,
1,0,0,0,0,0,1,0,triangle,hexagon,0,0,0,0,1,0,12,1,,,,,,,,,,,,109.13138532685116,109.13138532685116,109.13138532685116,109.13138532685116,109.13138532685116,109.13138532685116,109.13138532685116,109.13138532685116,109.13138532685116,109.13138532685116,l,1.6607798971235752,10,76,0,110.81535683060065,112.31604368565604,112.31604368565604,112.81614148477092,,,,,,,,,,,,,,,,,,,13674,2022-12-02_09h18.27.173,vts_reward_expectancy_bt_OFFLINE,2022.2.4,59.9701811746619,
0,0,1,0,0,0,0,1,hexagon,star,0,0,0,0,1,1,13,8,,,,,,,,,,,,112.81614148477092,112.81614148477092,112.81614148477092,112.81614148477092,112.81614148477092,112.81614148477092,112.81614148477092,112.81614148477092,112.81614148477092,112.81614148477092,l,1.9130715252831578,1,77,0,114.75344281969592,,116.26915580267087,,,,,,,,,,,,,,,,,,,,13674,2022-12-02_09h18.27.173,vts_reward_expectancy_bt_OFFLINE,2022.2.4,59.9701811746619,
0,1,0,0,0,0,1,0,circle,hexagon,0,0,0,0,1,2,14,4,,,,,,,,,,,,116.76924850093201,116.76924850093201,116.76924850093201,116.76924850093201,116.76924850093201,116.76924850093201,116.76924850093201,116.76924850093201,116.76924850093201,116.76924850093201,l,1.9435133999213576,1,78,0,118.73851474095136,120.23904494987801,120.23904494987801,120.73901921091601,,,,,,,,,,,,,,,,,,,13674,2022-12-02_09h18.27.173,vts_reward_expectancy_bt_OFFLINE,2022.2.4,59.9701811746619,
1,0,0,0,0,1,0,0,triangle,circle,0,0,0,0,1,3,15,0,,,,,,,,,,,,120.73901921091601,120.73901921091601,120.73901921091601,120.73901921091601,120.73901921091601,120.73901921091601,120.73901921091601,120.73901921091601,120.73901921091601,120.73901921091601,l,1.3482308238744736,1,79,0,122.1063127447851,,123.60873561585322,,,,,,,,,,,,,,,,,,,,13674,2022-12-02_09h18.27.173,vts_reward_expectancy_bt_OFFLINE,2022.2.4,59.9701811746619,
0,0,0,1,0,1,0,0,star ,circle,0,0,0,0,1,4,16,10,,,,,,,,,,,,124.10919919470325,124.10919919470325,124.10919919470325,124.10919919470325,124.10919919470325,124.10919919470325,124.10919919470325,124.10919919470325,124.10919919470325,124.10919919470325,a,1.6127571603283286,1,80,0,125.74308759579435,127.24360990198329,127.24360990198329,,,,,,,,,,,,,,,,,,,,13674,2022-12-02_09h18.27.173,vts_reward_expectancy_bt_OFFLINE,2022.2.4,59.9701811746619,
0,0,0,1,0,0,1,0,star,hexagon,0,0,0,0,1,5,17,11,,,,,,,,,,,,127.74314115662128,127.74314115662128,127.74314115662128,127.74314115662128,127.74314115662128,127.74314115662128,127.74314115662128,127.74314115662128,127.74314115662128,127.74314115662128,a,1.173156812787056,10,90,0,128.94734717858955,130.446307471022,130.446307471022,130.94672076264396,,,,,,,,,,,,,,,,,,,13674,2022-12-02_09h18.27.173,vts_reward_expectancy_bt_OFFLINE,2022.2.4,59.9701811746619,
0,0,0,1,1,0,0,0,star,triangle,0,0,0,0,1,6,18,9,,,,,,,,,,,,130.94672076264396,130.94672076264396,130.94672076264396,130.94672076264396,130.94672076264396,130.94672076264396,130.94672076264396,130.94672076264396,130.94672076264396,130.94672076264396,a,1.4128653220832348,1,91,0,132.38185642380267,,133.882733495906,,,,,,,,,,,,,,,,,,,,13674,2022-12-02_09h18.27.173,vts_reward_expectancy_bt_OFFLINE,2022.2.4,59.9701811746619,
0,1,0,0,0,0,0,1,circle,star,0,0,0,0,1,7,19,5,,,,,,,,,,,,134.38293958781287,134.38293958781287,134.38293958781287,134.38293958781287,134.38293958781287,134.38293958781287,134.38293958781287,134.38293958781287,134.38293958781287,134.38293958781287,l,1.3401639028452337,10,101,0,135.7518307035789,,137.26730651780963,,,,,,,,,,,,,,,,,,,,13674,2022-12-02_09h18.27.173,vts_reward_expectancy_bt_OFFLINE,2022.2.4,59.9701811746619,
1,0,0,0,0,0,0,1,triangle,star,0,0,0,0,1,8,20,2,,,,,,,,,,,,137.76732587302104,137.76732587302104,137.76732587302104,137.76732587302104,137.76732587302104,137.76732587302104,137.76732587302104,137.76732587302104,137.76732587302104,137.76732587302104,a,1.1856496310792863,10,111,0,138.9700286197476,140.47037279000506,140.47037279000506,140.9705860489048,,,,,,,,,,,,,,,,,,,13674,2022-12-02_09h18.27.173,vts_reward_expectancy_bt_OFFLINE,2022.2.4,59.9701811746619,
0,0,1,0,1,0,0,0,hexagon,triangle,0,0,0,0,1,9,21,6,,,,,,,,,,,,140.9705860489048,140.9705860489048,140.9705860489048,140.9705860489048,140.9705860489048,140.9705860489048,140.9705860489048,140.9705860489048,140.9705860489048,140.9705860489048,a,2.2564677740447223,10,121,0,143.25472486484796,,144.75687416363508,,,,,,,,,,,,,,,,,,,,13674,2022-12-02_09h18.27.173,vts_reward_expectancy_bt_OFFLINE,2022.2.4,59.9701811746619,
0,0,1,0,0,1,0,0,hexagon,circle,0,0,0,0,1,10,22,7,,,,,,,,,,,,145.25718267681077,145.25718267681077,145.25718267681077,145.25718267681077,145.25718267681077,145.25718267681077,145.25718267681077,145.25718267681077,145.25718267681077,145.25718267681077,l,2.335324129089713,1,122,0,147.62571332696825,,149.12720600282773,,,,,,,,,,,,,,,,,,,,13674,2022-12-02_09h18.27.173,vts_reward_expectancy_bt_OFFLINE,2022.2.4,59.9701811746619,
0,1,0,0,1,0,0,0,circle,triangle,0,0,0,0,1,11,23,3,,,,,,,,,,,,149.62748707598075,149.62748707598075,149.62748707598075,149.62748707598075,149.62748707598075,149.62748707598075,149.62748707598075,149.62748707598075,149.62748707598075,149.62748707598075,a,1.835180186200887,10,132,0,151.49540608376265,152.9951256038621,152.9951256038621,153.49528872175142,,,,,,,,,,,,,,,,,,,13674,2022-12-02_09h18.27.173,vts_reward_expectancy_bt_OFFLINE,2022.2.4,59.9701811746619,
0,1,0,0,0,0,0,1,circle,star,0,0,0,0,2,0,24,5,,,,,,,,,,,,153.49528872175142,153.49528872175142,153.49528872175142,153.49528872175142,153.49528872175142,153.49528872175142,153.49528872175142,153.49528872175142,153.49528872175142,153.49528872175142,l,1.0959107833914459,1,133,0,154.61621520202607,,156.13135312590748,,,,,,,,,,,,,,,,,,,,13674,2022-12-02_09h18.27.173,vts_reward_expectancy_bt_OFFLINE,2022.2.4,59.9701811746619,
0,0,0,1,1,0,0,0,star,triangle,0,0,0,0,2,1,25,9,,,,,,,,,,,,156.63156128674746,156.63156128674746,156.63156128674746,156.63156128674746,156.63156128674746,156.63156128674746,156.63156128674746,156.63156128674746,156.63156128674746,156.63156128674746,a,1.0531046600081027,10,143,0,157.71688391687348,,159.21781916776672,,,,,,,,,,,,,,,,,,,,13674,2022-12-02_09h18.27.173,vts_reward_expectancy_bt_OFFLINE,2022.2.4,59.9701811746619,
0,1,0,0,1,0,0,0,circle,triangle,0,0,0,0,2,2,26,3,,,,,,,,,,,,159.71796662267298,159.71796662267298,159.71796662267298,159.71796662267298,159.71796662267298,159.71796662267298,159.71796662267298,159.71796662267298,159.71796662267298,159.71796662267298,l,0.9029514091089368,1,144,0,160.65245974157006,162.15218373481184,162.15218373481184,162.65237758588046,,,,,,,,,,,,,,,,,,,13674,2022-12-02_09h18.27.173,vts_reward_expectancy_bt_OFFLINE,2022.2.4,59.9701811746619,
1,0,0,0,0,0,0,1,triangle,star,0,0,0,0,2,3,27,2,,,,,,,,,,,,162.65237758588046,162.65237758588046,162.65237758588046,162.65237758588046,162.65237758588046,162.65237758588046,162.65237758588046,162.65237758588046,162.65237758588046,162.65237758588046,l,0.691243811044842,1,145,0,163.36936711287126,,164.871658813674,,,,,,,,,,,,,,,,,,,,13674,2022-12-02_09h18.27.173,vts_reward_expectancy_bt_OFFLINE,2022.2.4,59.9701811746619,
0,1,0,0,0,0,1,0,circle,hexagon,0,0,0,0,2,4,28,4,,,,,,,,,,,,165.3717926866375,165.3717926866375,165.3717926866375,165.3717926866375,165.3717926866375,165.3717926866375,165.3717926866375,165.3717926866375,165.3717926866375,165.3717926866375,a,1.1552761709317565,1,146,0,166.55592506658286,168.05614029988647,168.05614029988647,168.5561279747635,,,,,,,,,,,,,,,,,,,13674,2022-12-02_09h18.27.173,vts_reward_expectancy_bt_OFFLINE,2022.2.4,59.9701811746619,
0,0,1,0,0,1,0,0,hexagon,circle,0,0,0,0,2,5,29,7,,,,,,,,,,,,168.5561279747635,168.5561279747635,168.5561279747635,168.5561279747635,168.5561279747635,168.5561279747635,168.5561279747635,168.5561279747635,168.5561279747635,168.5561279747635,l,4.001902896910906,1,147,0,172.57607192359865,,174.07859545573592,,,,,,,,,,,,,,,,,,,,13674,2022-12-02_09h18.27.173,vts_reward_expectancy_bt_OFFLINE,2022.2.4,59.9701811746619,
0,0,1,0,1,0,0,0,hexagon,triangle,0,0,0,0,2,6,30,6,,,,,,,,,,,,174.57885717367753,174.57885717367753,174.57885717367753,174.57885717367753,174.57885717367753,174.57885717367753,174.57885717367753,174.57885717367753,174.57885717367753,174.57885717367753,a,1.5224290899932384,10,157,0,176.13090084586293,177.62993426294997,177.62993426294997,178.12991076987237,,,,,,,,,,,,,,,,,,,13674,2022-12-02_09h18.27.173,vts_reward_expectancy_bt_OFFLINE,2022.2.4,59.9701811746619,
1,0,0,0,0,0,1,0,triangle,hexagon,0,0,0,0,2,7,31,1,,,,,,,,,,,,178.12991076987237,178.12991076987237,178.12991076987237,178.12991076987237,178.12991076987237,178.12991076987237,178.12991076987237,178.12991076987237,178.12991076987237,178.12991076987237,l,2.1460945392027497,1,158,0,180.30187761271372,,181.81673328997567,,,,,,,,,,,,,,,,,,,,13674,2022-12-02_09h18.27.173,vts_reward_expectancy_bt_OFFLINE,2022.2.4,59.9701811746619,
0,0,0,1,0,1,0,0,star ,circle,0,0,0,0,2,8,32,10,,,,,,,,,,,,182.3168295477517,182.3168295477517,182.3168295477517,182.3168295477517,182.3168295477517,182.3168295477517,182.3168295477517,182.3168295477517,182.3168295477517,182.3168295477517,l,2.1999755539000034,10,168,0,184.53801793092862,,186.05318230669945,,,,,,,,,,,,,,,,,,,,13674,2022-12-02_09h18.27.173,vts_reward_expectancy_bt_OFFLINE,2022.2.4,59.9701811746619,
0,0,1,0,0,0,0,1,hexagon,star,0,0,0,0,2,9,33,8,,,,,,,,,,,,186.55367204593495,186.55367204593495,186.55367204593495,186.55367204593495,186.55367204593495,186.55367204593495,186.55367204593495,186.55367204593495,186.55367204593495,186.55367204593495,l,2.890933487098664,10,178,0,189.47296670265496,,190.97368485899642,,,,,,,,,,,,,,,,,,,,13674,2022-12-02_09h18.27.173,vts_reward_expectancy_bt_OFFLINE,2022.2.4,59.9701811746619,
1,0,0,0,0,1,0,0,triangle,circle,0,0,0,0,2,10,34,0,,,,,,,,,,,,191.47372349072248,191.47372349072248,191.47372349072248,191.47372349072248,191.47372349072248,191.47372349072248,191.47372349072248,191.47372349072248,191.47372349072248,191.47372349072248,l,2.493737427983433,10,188,0,193.9931772327982,195.49378633359447,195.49378633359447,195.99390088766813,,,,,,,,,,,,,,,,,,,13674,2022-12-02_09h18.27.173,vts_reward_expectancy_bt_OFFLINE,2022.2.4,59.9701811746619,
0,0,0,1,0,0,1,0,star,hexagon,0,0,0,0,2,11,35,11,,,,,,,,,,,,195.99390088766813,195.99390088766813,195.99390088766813,195.99390088766813,195.99390088766813,195.99390088766813,195.99390088766813,195.99390088766813,195.99390088766813,195.99390088766813,a,1.3709851247258484,1,189,0,197.3962049880065,,198.8967416039668,,,,,,,,,,,,,,,,,,,,13674,2022-12-02_09h18.27.173,vts_reward_expectancy_bt_OFFLINE,2022.2.4,59.9701811746619,
0,0,1,0,0,1,0,0,hexagon,circle,0,0,0,0,3,0,36,7,,,,,,,,,,,,199.39692804496735,199.39692804496735,199.39692804496735,199.39692804496735,199.39692804496735,199.39692804496735,199.39692804496735,199.39692804496735,199.39692804496735,199.39692804496735,a,1.6018990566954017,1,190,0,201.03081304067746,202.5316603127867,202.5316603127867,203.03131232084706,,,,,,,,,,,,,,,,,,,13674,2022-12-02_09h18.27.173,vts_reward_expectancy_bt_OFFLINE,2022.2.4,59.9701811746619,
1,0,0,0,0,0,1,0,triangle,hexagon,0,0,0,0,3,1,37,1,,,,,,,,,,,,203.03131232084706,203.03131232084706,203.03131232084706,203.03131232084706,203.03131232084706,203.03131232084706,203.03131232084706,203.03131232084706,203.03131232084706,203.03131232084706,l,1.2868096721358597,10,200,0,204.35144825372845,205.85097488760948,205.85097488760948,206.35158995259553,,,,,,,,,,,,,,,,,,,13674,2022-12-02_09h18.27.173,vts_reward_expectancy_bt_OFFLINE,2022.2.4,59.9701811746619,
0,0,0,1,1,0,0,0,star,triangle,0,0,0,0,3,2,38,9,,,,,,,,,,,,206.35158995259553,206.35158995259553,206.35158995259553,206.35158995259553,206.35158995259553,206.35158995259553,206.35158995259553,206.35158995259553,206.35158995259553,206.35158995259553,a,0.9936084910295904,1,201,0,207.36996372789145,,208.8706335616298,,,,,,,,,,,,,,,,,,,,13674,2022-12-02_09h18.27.173,vts_reward_expectancy_bt_OFFLINE,2022.2.4,59.9701811746619,
1,0,0,0,0,1,0,0,triangle,circle,0,0,0,0,3,3,39,0,,,,,,,,,,,,209.3708256436512,209.3708256436512,209.3708256436512,209.3708256436512,209.3708256436512,209.3708256436512,209.3708256436512,209.3708256436512,209.3708256436512,209.3708256436512,l,1.3149164048954844,10,211,0,210.70683333463967,,212.22189654177055,,,,,,,,,,,,,,,,,,,,13674,2022-12-02_09h18.27.173,vts_reward_expectancy_bt_OFFLINE,2022.2.4,59.9701811746619,
1,0,0,0,0,0,0,1,triangle,star,0,0,0,0,3,4,40,2,,,,,,,,,,,,212.70533961290494,212.70533961290494,212.70533961290494,212.70533961290494,212.70533961290494,212.70533961290494,212.70533961290494,212.70533961290494,212.70533961290494,212.70533961290494,l,0.8273250828497112,10,221,0,213.55568166077137,,215.05800613574684,,,,,,,,,,,,,,,,,,,,13674,2022-12-02_09h18.27.173,vts_reward_expectancy_bt_OFFLINE,2022.2.4,59.9701811746619,
0,0,1,0,1,0,0,0,hexagon,triangle,0,0,0,0,3,5,41,6,,,,,,,,,,,,215.55829517170787,215.55829517170787,215.55829517170787,215.55829517170787,215.55829517170787,215.55829517170787,215.55829517170787,215.55829517170787,215.55829517170787,215.55829517170787,a,1.5631972048431635,10,231,0,217.1422604136169,,218.6456276299432,,,,,,,,,,,,,,,,,,,,13674,2022-12-02_09h18.27.173,vts_reward_expectancy_bt_OFFLINE,2022.2.4,59.9701811746619,
0,1,0,0,0,0,1,0,circle,hexagon,0,0,0,0,3,6,42,4,,,,,,,,,,,,219.14488098258153,219.14488098258153,219.14488098258153,219.14488098258153,219.14488098258153,219.14488098258153,219.14488098258153,219.14488098258153,219.14488098258153,219.14488098258153,l,1.2051633652299643,1,232,0,220.38027422688901,,221.8957969727926,,,,,,,,,,,,,,,,,,,,13674,2022-12-02_09h18.27.173,vts_reward_expectancy_bt_OFFLINE,2022.2.4,59.9701811746619,
0,0,0,1,0,0,1,0,star,hexagon,0,0,0,0,3,7,43,11,,,,,,,,,,,,222.37902400502935,222.37902400502935,222.37902400502935,222.37902400502935,222.37902400502935,222.37902400502935,222.37902400502935,222.37902400502935,222.37902400502935,222.37902400502935,a,1.3241548500955105,10,242,0,223.733349182643,,225.24868525890633,,,,,,,,,,,,,,,,,,,,13674,2022-12-02_09h18.27.173,vts_reward_expectancy_bt_OFFLINE,2022.2.4,59.9701811746619,
0,1,0,0,0,0,0,1,circle,star,0,0,0,0,3,8,44,5,,,,,,,,,,,,225.74907894758508,225.74907894758508,225.74907894758508,225.74907894758508,225.74907894758508,225.74907894758508,225.74907894758508,225.74907894758508,225.74907894758508,225.74907894758508,a,1.8799508777447045,1,243,0,227.65177488373592,,229.1519458256662,,,,,,,,,,,,,,,,,,,,13674,2022-12-02_09h18.27.173,vts_reward_expectancy_bt_OFFLINE,2022.2.4,59.9701811746619,
0,0,0,1,0,1,0,0,star ,circle,0,0,0,0,3,9,45,10,,,,,,,,,,,,229.6523848567158,229.6523848567158,229.6523848567158,229.6523848567158,229.6523848567158,229.6523848567158,229.6523848567158,229.6523848567158,229.6523848567158,229.6523848567158,a,4.513457573018968,1,244,0,234.18927928665653,235.68946446897462,235.68946446897462,236.18970772484317,,,,,,,,,,,,,,,,,,,13674,2022-12-02_09h18.27.173,vts_reward_expectancy_bt_OFFLINE,2022.2.4,59.9701811746619,
0,0,1,0,0,0,0,1,hexagon,star,0,0,0,0,3,10,46,8,,,,,,,,,,,,236.18970772484317,236.18970772484317,236.18970772484317,236.18970772484317,236.18970772484317,236.18970772484317,236.18970772484317,236.18970772484317,236.18970772484317,236.18970772484317,l,0.7885246342048049,10,254,0,237.0090687959455,,238.52402260061353,,,,,,,,,,,,,,,,,,,,13674,2022-12-02_09h18.27.173,vts_reward_expectancy_bt_OFFLINE,2022.2.4,59.9701811746619,
0,1,0,0,1,0,0,0,circle,triangle,0,0,0,0,3,11,47,3,,,,,,,,,,,,239.00929369963706,239.00929369963706,239.00929369963706,239.00929369963706,239.00929369963706,239.00929369963706,239.00929369963706,239.00929369963706,239.00929369963706,239.00929369963706,l,2.930520883295685,1,255,0,241.9623214127496,,243.47753890184686,,,,,,,,,,,,,,,,,,,,13674,2022-12-02_09h18.27.173,vts_reward_expectancy_bt_OFFLINE,2022.2.4,59.9701811746619,
0,0,1,0,1,0,0,0,hexagon,triangle,1,0,1,0,0,0,0,6,,,,,,,,,,,,248.1754039595835,248.1754039595835,248.1754039595835,248.1754039595835,248.1754039595835,248.1754039595835,248.1754039595835,248.1754039595835,248.1754039595835,248.1754039595835,a,1.5271154781803489,10,265,1,249.7358338437043,,251.2505340417847,,,,,,,,,,,,,,,,,,,,13674,2022-12-02_09h18.27.173,vts_reward_expectancy_bt_OFFLINE,2022.2.4,59.9701811746619,
0,1,0,0,1,0,0,0,circle,triangle,1,0,1,0,0,1,1,3,,,,,,,,,,,,251.75072062481195,251.75072062481195,251.75072062481195,251.75072062481195,251.75072062481195,251.75072062481195,251.75072062481195,251.75072062481195,251.75072062481195,251.75072062481195,a,3.0154816629365087,10,275,1,254.7872126949951,256.2877077800222,256.2877077800222,,,,,,,,,,,,,,,,,,,,13674,2022-12-02_09h18.27.173,vts_reward_expectancy_bt_OFFLINE,2022.2.4,59.9701811746619,
1,0,0,0,0,0,1,0,triangle,hexagon,1,0,1,0,0,2,2,1,,,,,,,,,,,,256.7876762296073,256.7876762296073,256.7876762296073,256.7876762296073,256.7876762296073,256.7876762296073,256.7876762296073,256.7876762296073,256.7876762296073,256.7876762296073,l,1.9615688468329608,1,276,1,258.7758400309831,,260.29121025977656,,,,,,,,,,,,,,,,,,,,13674,2022-12-02_09h18.27.173,vts_reward_expectancy_bt_OFFLINE,2022.2.4,59.9701811746619,
0,0,1,0,0,0,0,1,hexagon,star,1,0,1,0,0,3,3,8,,,,,,,,,,,,260.79111168487,260.79111168487,260.79111168487,260.79111168487,260.79111168487,260.79111168487,260.79111168487,260.79111168487,260.79111168487,260.79111168487,l,1.3103045360185206,1,277,1,262.1250178096816,263.62537833768874,263.62537833768874,,,,,,,,,,,,,,,,,,,,13674,2022-12-02_09h18.27.173,vts_reward_expectancy_bt_OFFLINE,2022.2.4,59.9701811746619,
0,0,0,1,0,1,0,0,star ,circle,1,0,1,0,0,4,4,10,,,,,,,,,,,,264.12733036698774,264.12733036698774,264.12733036698774,264.12733036698774,264.12733036698774,264.12733036698774,264.12733036698774,264.12733036698774,264.12733036698774,264.12733036698774,l,1.5969339678995311,10,287,1,265.74695466272533,,267.26193842757493,,,,,,,,,,,,,,,,,,,,13674,2022-12-02_09h18.27.173,vts_reward_expectancy_bt_OFFLINE,2022.2.4,59.9701811746619,
1,0,0,0,0,0,0,1,triangle,star,1,0,1,0,0,5,5,2,,,,,,,,,,,,267.761933718808,267.761933718808,267.761933718808,267.761933718808,267.761933718808,267.761933718808,267.761933718808,267.761933718808,267.761933718808,267.761933718808,a,2.0679863709956408,10,297,1,269.84794294880703,271.34852390689775,271.34852390689775,,,,,,,,,,,,,,,,,,,,13674,2022-12-02_09h18.27.173,vts_reward_expectancy_bt_OFFLINE,2022.2.4,59.9701811746619,
0,0,0,1,0,0,1,0,star,hexagon,1,0,1,0,0,6,6,11,,,,,,,,,,,,271.84864455088973,271.84864455088973,271.84864455088973,271.84864455088973,271.84864455088973,271.84864455088973,271.84864455088973,271.84864455088973,271.84864455088973,271.84864455088973,l,2.1003175182268023,10,307,1,273.96838973881677,275.4684315836057,275.4684315836057,,,,,,,,,,,,,,,,,,,,13674,2022-12-02_09h18.27.173,vts_reward_expectancy_bt_OFFLINE,2022.2.4,59.9701811746619,
0,0,1,0,0,1,0,0,hexagon,circle,1,0,1,0,0,7,7,7,,,,,,,,,,,,275.9690381968394,275.9690381968394,275.9690381968394,275.9690381968394,275.9690381968394,275.9690381968394,275.9690381968394,275.9690381968394,275.9690381968394,275.9690381968394,l,1.263971112202853,1,308,1,277.25463390769437,,278.75494590587914,,,,,,,,,,,,,,,,,,,,13674,2022-12-02_09h18.27.173,vts_reward_expectancy_bt_OFFLINE,2022.2.4,59.9701811746619,
0,0,0,1,1,0,0,0,star,triangle,1,0,1,0,0,8,8,9,,,,,,,,,,,,279.25506297685206,279.25506297685206,279.25506297685206,279.25506297685206,279.25506297685206,279.25506297685206,279.25506297685206,279.25506297685206,279.25506297685206,279.25506297685206,a,2.2876497390680015,10,318,1,281.5746576245874,,283.0898314206861,,,,,,,,,,,,,,,,,,,,13674,2022-12-02_09h18.27.173,vts_reward_expectancy_bt_OFFLINE,2022.2.4,59.9701811746619,
0,1,0,0,0,0,1,0,circle,hexagon,1,0,1,0,0,9,9,4,,,,,,,,,,,,283.5732349269092,283.5732349269092,283.5732349269092,283.5732349269092,283.5732349269092,283.5732349269092,283.5732349269092,283.5732349269092,283.5732349269092,283.5732349269092,a,1.4676569709554315,1,319,1,285.0612862878479,,286.57632813975215,,,,,,,,,,,,,,,,,,,,13674,2022-12-02_09h18.27.173,vts_reward_expectancy_bt_OFFLINE,2022.2.4,59.9701811746619,
0,1,0,0,0,0,0,1,circle,star,1,0,1,0,0,10,10,5,,,,,,,,,,,,287.0763518898748,287.0763518898748,287.0763518898748,287.0763518898748,287.0763518898748,287.0763518898748,287.0763518898748,287.0763518898748,287.0763518898748,287.0763518898748,l,0.7997575150802732,10,329,1,287.895823685918,,289.39573769271374,,,,,,,,,,,,,,,,,,,,13674,2022-12-02_09h18.27.173,vts_reward_expectancy_bt_OFFLINE,2022.2.4,59.9701811746619,
1,0,0,0,0,1,0,0,triangle,circle,1,0,1,0,0,11,11,0,,,,,,,,,,,,289.89594478160143,289.89594478160143,289.89594478160143,289.89594478160143,289.89594478160143,289.89594478160143,289.89594478160143,289.89594478160143,289.89594478160143,289.89594478160143,a,1.5240218099206686,10,339,1,291.44668086990714,292.9468816528097,292.9468816528097,293.4471909846179,,,,,,,,,,,,,,,,,,,13674,2022-12-02_09h18.27.173,vts_reward_expectancy_bt_OFFLINE,2022.2.4,59.9701811746619,
0,0,1,0,0,0,0,1,hexagon,star,1,0,1,0,1,0,12,8,,,,,,,,,,,,293.4471909846179,293.4471909846179,293.4471909846179,293.4471909846179,293.4471909846179,293.4471909846179,293.4471909846179,293.4471909846179,293.4471909846179,293.4471909846179,a,1.6967849200591445,10,349,1,295.1665744166821,296.6668322319165,296.6668322319165,297.16710977302864,,,,,,,,,,,,,,,,,,,13674,2022-12-02_09h18.27.173,vts_reward_expectancy_bt_OFFLINE,2022.2.4,59.9701811746619,
0,1,0,0,1,0,0,0,circle,triangle,1,0,1,0,1,1,13,3,,,,,,,,,,,,297.16710977302864,297.16710977302864,297.16710977302864,297.16710977302864,297.16710977302864,297.16710977302864,297.16710977302864,297.16710977302864,297.16710977302864,297.16710977302864,a,1.409191473852843,1,350,1,298.6030432586558,,300.10351979592815,,,,,,,,,,,,,,,,,,,,13674,2022-12-02_09h18.27.173,vts_reward_expectancy_bt_OFFLINE,2022.2.4,59.9701811746619,
0,0,0,1,0,1,0,0,star ,circle,1,0,1,0,1,2,14,10,,,,,,,,,,,,300.6037164106965,300.6037164106965,300.6037164106965,300.6037164106965,300.6037164106965,300.6037164106965,300.6037164106965,300.6037164106965,300.6037164106965,300.6037164106965,l,1.8759514959529042,10,360,1,302.50637200381607,,304.00660144072026,,,,,,,,,,,,,,,,,,,,13674,2022-12-02_09h18.27.173,vts_reward_expectancy_bt_OFFLINE,2022.2.4,59.9701811746619,
1,0,0,0,0,0,1,0,triangle,hexagon,1,0,1,0,1,3,15,1,,,,,,,,,,,,304.5067495899275,304.5067495899275,304.5067495899275,304.5067495899275,304.5067495899275,304.5067495899275,304.5067495899275,304.5067495899275,304.5067495899275,304.5067495899275,l,3.3167013828642666,1,361,1,307.8432062389329,,309.343809092883,,,,,,,,,,,,,,,,,,,,13674,2022-12-02_09h18.27.173,vts_reward_expectancy_bt_OFFLINE,2022.2.4,59.9701811746619,
0,0,0,1,0,0,1,0,star,hexagon,1,0,1,0,1,4,16,11,,,,,,,,,,,,309.8436125838198,309.8436125838198,309.8436125838198,309.8436125838198,309.8436125838198,309.8436125838198,309.8436125838198,309.8436125838198,309.8436125838198,309.8436125838198,a,2.2442813962697983,10,371,1,312.1135917468928,,313.62869947962463,,,,,,,,,,,,,,,,,,,,13674,2022-12-02_09h18.27.173,vts_reward_expectancy_bt_OFFLINE,2022.2.4,59.9701811746619,
1,0,0,0,0,0,0,1,triangle,star,1,0,1,0,1,5,17,2,,,,,,,,,,,,314.1139520527795,314.1139520527795,314.1139520527795,314.1139520527795,314.1139520527795,314.1139520527795,314.1139520527795,314.1139520527795,314.1139520527795,314.1139520527795,a,1.4733009212650359,1,372,1,315.6167912459932,,317.13142716977745,,,,,,,,,,,,,,,,,,,,13674,2022-12-02_09h18.27.173,vts_reward_expectancy_bt_OFFLINE,2022.2.4,59.9701811746619,
0,1,0,0,0,0,0,1,circle,star,1,0,1,0,1,6,18,5,,,,,,,,,,,,317.63168263761327,317.63168263761327,317.63168263761327,317.63168263761327,317.63168263761327,317.63168263761327,317.63168263761327,317.63168263761327,317.63168263761327,317.63168263761327,a,1.7572505320422351,10,382,1,319.4196869856678,,320.93490655580536,,,,,,,,,,,,,,,,,,,,13674,2022-12-02_09h18.27.173,vts_reward_expectancy_bt_OFFLINE,2022.2.4,59.9701811746619,
1,0,0,0,0,1,0,0,triangle,circle,1,0,1,0,1,7,19,0,,,,,,,,,,,,321.4347038939595,321.4347038939595,321.4347038939595,321.4347038939595,321.4347038939595,321.4347038939595,321.4347038939595,321.4347038939595,321.4347038939595,321.4347038939595,l,2.195732807740569,1,383,1,323.65467921458185,,325.1548254736699,,,,,,,,,,,,,,,,,,,,13674,2022-12-02_09h18.27.173,vts_reward_expectancy_bt_OFFLINE,2022.2.4,59.9701811746619,
0,0,0,1,1,0,0,0,star,triangle,1,0,1,0,1,8,20,9,,,,,,,,,,,,325.6552019249648,325.6552019249648,325.6552019249648,325.6552019249648,325.6552019249648,325.6552019249648,325.6552019249648,325.6552019249648,325.6552019249648,325.6552019249648,a,0.8337720260024071,1,384,1,326.52219729777426,328.02260371670127,328.02260371670127,328.5225401269272,,,,,,,,,,,,,,,,,,,13674,2022-12-02_09h18.27.173,vts_reward_expectancy_bt_OFFLINE,2022.2.4,59.9701811746619,
0,1,0,0,0,0,1,0,circle,hexagon,1,0,1,0,1,9,21,4,,,,,,,,,,,,328.5225401269272,328.5225401269272,328.5225401269272,328.5225401269272,328.5225401269272,328.5225401269272,328.5225401269272,328.5225401269272,328.5225401269272,328.5225401269272,l,1.1278293011710048,10,394,1,329.67731067864224,,331.192260148935,,,,,,,,,,,,,,,,,,,,13674,2022-12-02_09h18.27.173,vts_reward_expectancy_bt_OFFLINE,2022.2.4,59.9701811746619,
0,0,1,0,0,1,0,0,hexagon,circle,1,0,1,0,1,10,22,7,,,,,,,,,,,,331.69262005668133,331.69262005668133,331.69262005668133,331.69262005668133,331.69262005668133,331.69262005668133,331.69262005668133,331.69262005668133,331.69262005668133,331.69262005668133,a,0.8821774693205953,1,395,1,332.5950354048982,,334.0950193470344,,,,,,,,,,,,,,,,,,,,13674,2022-12-02_09h18.27.173,vts_reward_expectancy_bt_OFFLINE,2022.2.4,59.9701811746619,
0,0,1,0,1,0,0,0,hexagon,triangle,1,0,1,0,1,11,23,6,,,,,,,,,,,,334.595213629771,334.595213629771,334.595213629771,334.595213629771,334.595213629771,334.595213629771,334.595213629771,334.595213629771,334.595213629771,334.595213629771,l,3.852864142972976,1,396,1,338.47982143284753,339.9822274046019,339.9822274046019,,,,,,,,,,,,,,,,,,,,13674,2022-12-02_09h18.27.173,vts_reward_expectancy_bt_OFFLINE,2022.2.4,59.9701811746619,
0,0,1,0,1,0,0,0,hexagon,triangle,1,0,1,0,2,0,24,6,,,,,,,,,,,,340.48259636899456,340.48259636899456,340.48259636899456,340.48259636899456,340.48259636899456,340.48259636899456,340.48259636899456,340.48259636899456,340.48259636899456,340.48259636899456,a,0.722489963285625,10,406,1,341.2352092526853,,342.75012630363926,,,,,,,,,,,,,,,,,,,,13674,2022-12-02_09h18.27.173,vts_reward_expectancy_bt_OFFLINE,2022.2.4,59.9701811746619,
0,1,0,0,0,0,0,1,circle,star,1,0,1,0,2,1,25,5,,,,,,,,,,,,343.2500026789494,343.2500026789494,343.2500026789494,343.2500026789494,343.2500026789494,343.2500026789494,343.2500026789494,343.2500026789494,343.2500026789494,343.2500026789494,a,1.262721424922347,1,407,1,344.5379386129789,,346.05316214077175,,,,,,,,,,,,,,,,,,,,13674,2022-12-02_09h18.27.173,vts_reward_expectancy_bt_OFFLINE,2022.2.4,59.9701811746619,
0,0,0,1,0,0,1,0,star,hexagon,1,0,1,0,2,2,26,11,,,,,,,,,,,,346.5532466727309,346.5532466727309,346.5532466727309,346.5532466727309,346.5532466727309,346.5532466727309,346.5532466727309,346.5532466727309,346.5532466727309,346.5532466727309,a,1.2440875140018761,1,408,1,347.8208419117145,,349.322776815854,,,,,,,,,,,,,,,,,,,,13674,2022-12-02_09h18.27.173,vts_reward_expectancy_bt_OFFLINE,2022.2.4,59.9701811746619,
0,0,1,0,0,1,0,0,hexagon,circle,1,0,1,0,2,3,27,7,,,,,,,,,,,,349.8229309339076,349.8229309339076,349.8229309339076,349.8229309339076,349.8229309339076,349.8229309339076,349.8229309339076,349.8229309339076,349.8229309339076,349.8229309339076,l,1.7992835571058095,10,418,1,351.6423337645829,,353.157193179708,,,,,,,,,,,,,,,,,,,,13674,2022-12-02_09h18.27.173,vts_reward_expectancy_bt_OFFLINE,2022.2.4,59.9701811746619,
1,0,0,0,0,1,0,0,triangle,circle,1,0,1,0,2,4,28,0,,,,,,,,,,,,353.6407749527134,353.6407749527134,353.6407749527134,353.6407749527134,353.6407749527134,353.6407749527134,353.6407749527134,353.6407749527134,353.6407749527134,353.6407749527134,a,1.267232063692063,10,428,1,354.92732195276767,356.42711454164237,356.42711454164237,356.9271420217119,,,,,,,,,,,,,,,,,,,13674,2022-12-02_09h18.27.173,vts_reward_expectancy_bt_OFFLINE,2022.2.4,59.9701811746619,
0,1,0,0,0,0,1,0,circle,hexagon,1,0,1,0,2,5,29,4,,,,,,,,,,,,356.9271420217119,356.9271420217119,356.9271420217119,356.9271420217119,356.9271420217119,356.9271420217119,356.9271420217119,356.9271420217119,356.9271420217119,356.9271420217119,a,2.7051943452097476,10,438,1,359.6632906948216,361.16403839783743,361.16403839783743,361.6641621789895,,,,,,,,,,,,,,,,,,,13674,2022-12-02_09h18.27.173,vts_reward_expectancy_bt_OFFLINE,2022.2.4,59.9701811746619,
0,0,0,1,0,1,0,0,star ,circle,1,0,1,0,2,6,30,10,,,,,,,,,,,,361.6641621789895,361.6641621789895,361.6641621789895,361.6641621789895,361.6641621789895,361.6641621789895,361.6641621789895,361.6641621789895,361.6641621789895,361.6641621789895,l,2.3338443329557776,1,439,1,364.01998311281204,,365.53408660274,,,,,,,,,,,,,,,,,,,,13674,2022-12-02_09h18.27.173,vts_reward_expectancy_bt_OFFLINE,2022.2.4,59.9701811746619,
0,0,0,1,1,0,0,0,star,triangle,1,0,1,0,2,7,31,9,,,,,,,,,,,,366.03428474394605,366.03428474394605,366.03428474394605,366.03428474394605,366.03428474394605,366.03428474394605,366.03428474394605,366.03428474394605,366.03428474394605,366.03428474394605,l,1.2719487268477678,1,440,1,367.3351925127208,,368.83730674162507,,,,,,,,,,,,,,,,,,,,13674,2022-12-02_09h18.27.173,vts_reward_expectancy_bt_OFFLINE,2022.2.4,59.9701811746619,
1,0,0,0,0,0,1,0,triangle,hexagon,1,0,1,0,2,8,32,1,,,,,,,,,,,,369.3373115058057,369.3373115058057,369.3373115058057,369.3373115058057,369.3373115058057,369.3373115058057,369.3373115058057,369.3373115058057,369.3373115058057,369.3373115058057,a,1.860753650777042,10,450,1,371.2235599709675,,372.73862197296694,,,,,,,,,,,,,,,,,,,,13674,2022-12-02_09h18.27.173,vts_reward_expectancy_bt_OFFLINE,2022.2.4,59.9701811746619,
0,0,1,0,0,0,0,1,hexagon,star,1,0,1,0,2,9,33,8,,,,,,,,,,,,373.22193854674697,373.22193854674697,373.22193854674697,373.22193854674697,373.22193854674697,373.22193854674697,373.22193854674697,373.22193854674697,373.22193854674697,373.22193854674697,a,2.746400451287627,10,460,1,375.99190982058644,377.49193983199075,377.49193983199075,,,,,,,,,,,,,,,,,,,,13674,2022-12-02_09h18.27.173,vts_reward_expectancy_bt_OFFLINE,2022.2.4,59.9701811746619,
0,1,0,0,1,0,0,0,circle,triangle,1,0,1,0,2,10,34,3,,,,,,,,,,,,377.99222028581426,377.99222028581426,377.99222028581426,377.99222028581426,377.99222028581426,377.99222028581426,377.99222028581426,377.99222028581426,377.99222028581426,377.99222028581426,l,1.9473720649257302,1,461,1,379.9637880907394,,381.4785817679949,,,,,,,,,,,,,,,,,,,,13674,2022-12-02_09h18.27.173,vts_reward_expectancy_bt_OFFLINE,2022.2.4,59.9701811746619,
1,0,0,0,0,0,0,1,triangle,star,1,0,1,0,2,11,35,2,,,,,,,,,,,,381.97883090982214,381.97883090982214,381.97883090982214,381.97883090982214,381.97883090982214,381.97883090982214,381.97883090982214,381.97883090982214,381.97883090982214,381.97883090982214,a,1.820139295887202,1,462,1,383.83149051386863,385.3321175388992,385.3321175388992,385.83227270282805,,,,,,,,,,,,,,,,,,,13674,2022-12-02_09h18.27.173,vts_reward_expectancy_bt_OFFLINE,2022.2.4,59.9701811746619,
0,0,0,1,1,0,0,0,star,triangle,1,0,1,0,3,0,36,9,,,,,,,,,,,,385.83227270282805,385.83227270282805,385.83227270282805,385.83227270282805,385.83227270282805,385.83227270282805,385.83227270282805,385.83227270282805,385.83227270282805,385.83227270282805,a,3.6365981469862163,10,472,1,389.4882966238074,,391.0027892095968,,,,,,,,,,,,,,,,,,,,13674,2022-12-02_09h18.27.173,vts_reward_expectancy_bt_OFFLINE,2022.2.4,59.9701811746619,
0,1,0,0,0,0,1,0,circle,hexagon,1,0,1,0,3,1,37,4,,,,,,,,,,,,391.5026408028789,391.5026408028789,391.5026408028789,391.5026408028789,391.5026408028789,391.5026408028789,391.5026408028789,391.5026408028789,391.5026408028789,391.5026408028789,a,1.668434633873403,1,473,1,393.20421375567093,,394.7056303708814,,,,,,,,,,,,,,,,,,,,13674,2022-12-02_09h18.27.173,vts_reward_expectancy_bt_OFFLINE,2022.2.4,59.9701811746619,
1,0,0,0,0,0,0,1,triangle,star,1,0,1,0,3,2,38,2,,,,,,,,,,,,395.20581322163343,395.20581322163343,395.20581322163343,395.20581322163343,395.20581322163343,395.20581322163343,395.20581322163343,395.20581322163343,395.20581322163343,395.20581322163343,l,1.1598685197532177,1,474,1,396.390140327625,397.8901823158376,397.8901823158376,398.38991891685873,,,,,,,,,,,,,,,,,,,13674,2022-12-02_09h18.27.173,vts_reward_expectancy_bt_OFFLINE,2022.2.4,59.9701811746619,
0,0,1,0,0,0,0,1,hexagon,star,1,0,1,0,3,3,39,8,,,,,,,,,,,,398.38991891685873,398.38991891685873,398.38991891685873,398.38991891685873,398.38991891685873,398.38991891685873,398.38991891685873,398.38991891685873,398.38991891685873,398.38991891685873,a,2.5448562200181186,1,475,1,400.9601994808763,402.46008304692805,402.46008304692805,,,,,,,,,,,,,,,,,,,,13674,2022-12-02_09h18.27.173,vts_reward_expectancy_bt_OFFLINE,2022.2.4,59.9701811746619,
1,0,0,0,0,1,0,0,triangle,circle,1,0,1,0,3,4,40,0,,,,,,,,,,,,402.9603880816139,402.9603880816139,402.9603880816139,402.9603880816139,402.9603880816139,402.9603880816139,402.9603880816139,402.9603880816139,402.9603880816139,402.9603880816139,a,1.393306092824787,1,476,1,404.38027522480115,405.87992791086435,405.87992791086435,406.380015140865,,,,,,,,,,,,,,,,,,,13674,2022-12-02_09h18.27.173,vts_reward_expectancy_bt_OFFLINE,2022.2.4,59.9701811746619,
0,1,0,0,1,0,0,0,circle,triangle,1,0,1,0,3,5,41,3,,,,,,,,,,,,406.380015140865,406.380015140865,406.380015140865,406.380015140865,406.380015140865,406.380015140865,406.380015140865,406.380015140865,406.380015140865,406.380015140865,l,0.9897562330588698,10,486,1,407.3995414916426,,408.899304585997,,,,,,,,,,,,,,,,,,,,13674,2022-12-02_09h18.27.173,vts_reward_expectancy_bt_OFFLINE,2022.2.4,59.9701811746619,
0,0,1,0,0,1,0,0,hexagon,circle,1,0,1,0,3,6,42,7,,,,,,,,,,,,409.3995547397062,409.3995547397062,409.3995547397062,409.3995547397062,409.3995547397062,409.3995547397062,409.3995547397062,409.3995547397062,409.3995547397062,409.3995547397062,l,1.570099491160363,10,496,1,411.0007111947052,412.50115919765085,412.50115919765085,413.0008970866911,,,,,,,,,,,,,,,,,,,13674,2022-12-02_09h18.27.173,vts_reward_expectancy_bt_OFFLINE,2022.2.4,59.9701811746619,
1,0,0,0,0,0,1,0,triangle,hexagon,1,0,1,0,3,7,43,1,,,,,,,,,,,,413.0008970866911,413.0008970866911,413.0008970866911,413.0008970866911,413.0008970866911,413.0008970866911,413.0008970866911,413.0008970866911,413.0008970866911,413.0008970866911,l,0.9505152069032192,10,506,1,413.97046042978764,415.4704249696806,415.4704249696806,415.97082729591057,,,,,,,,,,,,,,,,,,,13674,2022-12-02_09h18.27.173,vts_reward_expectancy_bt_OFFLINE,2022.2.4,59.9701811746619,
0,0,0,1,0,1,0,0,star ,circle,1,0,1,0,3,8,44,10,,,,,,,,,,,,415.97082729591057,415.97082729591057,415.97082729591057,415.97082729591057,415.97082729591057,415.97082729591057,415.97082729591057,415.97082729591057,415.97082729591057,415.97082729591057,a,0.6122078229673207,10,516,1,416.6047790655866,418.10482897702605,418.10482897702605,,,,,,,,,,,,,,,,,,,,13674,2022-12-02_09h18.27.173,vts_reward_expectancy_bt_OFFLINE,2022.2.4,59.9701811746619,
0,0,1,0,1,0,0,0,hexagon,triangle,1,0,1,0,3,9,45,6,,,,,,,,,,,,418.6047297245823,418.6047297245823,418.6047297245823,418.6047297245823,418.6047297245823,418.6047297245823,418.6047297245823,418.6047297245823,418.6047297245823,418.6047297245823,a,0.4764495799317956,10,526,1,419.10737488791347,420.60742308665067,420.60742308665067,,,,,,,,,,,,,,,,,,,,13674,2022-12-02_09h18.27.173,vts_reward_expectancy_bt_OFFLINE,2022.2.4,59.9701811746619,
0,1,0,0,0,0,0,1,circle,star,1,0,1,0,3,10,46,5,,,,,,,,,,,,421.107675160747,421.107675160747,421.107675160747,421.107675160747,421.107675160747,421.107675160747,421.107675160747,421.107675160747,421.107675160747,421.107675160747,a,0.4037587479688227,1,527,1,421.5433535967022,,423.05865963269025,,,,,,,,,,,,,,,,,,,,13674,2022-12-02_09h18.27.173,vts_reward_expectancy_bt_OFFLINE,2022.2.4,59.9701811746619,
0,0,0,1,0,0,1,0,star,hexagon,1,0,1,0,3,11,47,11,,,,,,,,,,,,423.5419203960337,423.5419203960337,423.5419203960337,423.5419203960337,423.5419203960337,423.5419203960337,423.5419203960337,423.5419203960337,423.5419203960337,423.5419203960337,l,0.8377287029288709,10,537,1,424.41286731977016,,425.92751138983294,,,,,,,,,,,,,,,,,,,,13674,2022-12-02_09h18.27.173,vts_reward_expectancy_bt_OFFLINE,2022.2.4,59.9701811746619,
0,1,0,0,0,0,1,0,circle,hexagon,2,0,2,0,0,0,0,4,,,,,,,,,,,,429.19213432399556,429.19213432399556,429.19213432399556,429.19213432399556,429.19213432399556,429.19213432399556,429.19213432399556,429.19213432399556,429.19213432399556,429.19213432399556,l,1.4662588299252093,10,547,2,430.68220668192953,432.18177648680285,432.18177648680285,432.6823366796598,,,,,,,,,,,,,,,,,,,13674,2022-12-02_09h18.27.173,vts_reward_expectancy_bt_OFFLINE,2022.2.4,59.9701811746619,
0,0,1,0,1,0,0,0,hexagon,triangle,2,0,2,0,0,1,1,6,,,,,,,,,,,,432.6823366796598,432.6823366796598,432.6823366796598,432.6823366796598,432.6823366796598,432.6823366796598,432.6823366796598,432.6823366796598,432.6823366796598,432.6823366796598,a,0.2934115151874721,10,557,2,432.99950607679784,,434.5011423667893,,,,,,,,,,,,,,,,,,,,13674,2022-12-02_09h18.27.173,vts_reward_expectancy_bt_OFFLINE,2022.2.4,59.9701811746619,
0,1,0,0,0,0,0,1,circle,star,2,0,2,0,0,2,2,5,,,,,,,,,,,,435.00163127994165,435.00163127994165,435.00163127994165,435.00163127994165,435.00163127994165,435.00163127994165,435.00163127994165,435.00163127994165,435.00163127994165,435.00163127994165,a,0.30303775798529387,1,558,2,435.34950208384544,,436.8522035498172,,,,,,,,,,,,,,,,,,,,13674,2022-12-02_09h18.27.173,vts_reward_expectancy_bt_OFFLINE,2022.2.4,59.9701811746619,
1,0,0,0,0,0,1,0,triangle,hexagon,2,0,2,0,0,3,3,1,,,,,,,,,,,,437.3522880068049,437.3522880068049,437.3522880068049,437.3522880068049,437.3522880068049,437.3522880068049,437.3522880068049,437.3522880068049,437.3522880068049,437.3522880068049,l,0.36018299078568816,10,568,2,437.73850277857855,,439.2382044158876,,,,,,,,,,,,,,,,,,,,13674,2022-12-02_09h18.27.173,vts_reward_expectancy_bt_OFFLINE,2022.2.4,59.9701811746619,
1,0,0,0,0,1,0,0,triangle,circle,2,0,2,0,0,4,4,0,,,,,,,,,,,,439.73831514595076,439.73831514595076,439.73831514595076,439.73831514595076,439.73831514595076,439.73831514595076,439.73831514595076,439.73831514595076,439.73831514595076,439.73831514595076,l,0.41570766223594546,1,569,2,440.1743152686395,,441.6891011688858,,,,,,,,,,,,,,,,,,,,13674,2022-12-02_09h18.27.173,vts_reward_expectancy_bt_OFFLINE,2022.2.4,59.9701811746619,
0,0,0,1,0,1,0,0,star ,circle,2,0,2,0,0,5,5,10,,,,,,,,,,,,442.18891518888995,442.18891518888995,442.18891518888995,442.18891518888995,442.18891518888995,442.18891518888995,442.18891518888995,442.18891518888995,442.18891518888995,442.18891518888995,l,1.3843418038450181,1,570,2,443.6064165867865,,445.10895789787173,,,,,,,,,,,,,,,,,,,,13674,2022-12-02_09h18.27.173,vts_reward_expectancy_bt_OFFLINE,2022.2.4,59.9701811746619,
0,0,0,1,0,0,1,0,star,hexagon,2,0,2,0,0,6,6,11,,,,,,,,,,,,445.6088200737722,445.6088200737722,445.6088200737722,445.6088200737722,445.6088200737722,445.6088200737722,445.6088200737722,445.6088200737722,445.6088200737722,445.6088200737722,a,0.7327647833153605,10,580,2,446.36196845490485,,447.8766497927718,,,,,,,,,,,,,,,,,,,,13674,2022-12-02_09h18.27.173,vts_reward_expectancy_bt_OFFLINE,2022.2.4,59.9701811746619,
0,0,0,1,1,0,0,0,star,triangle,2,0,2,0,0,7,7,9,,,,,,,,,,,,448.37648480571806,448.37648480571806,448.37648480571806,448.37648480571806,448.37648480571806,448.37648480571806,448.37648480571806,448.37648480571806,448.37648480571806,448.37648480571806,a,0.3942312761209905,10,590,2,448.78851819597185,,450.2959572817199,,,,,,,,,,,,,,,,,,,,13674,2022-12-02_09h18.27.173,vts_reward_expectancy_bt_OFFLINE,2022.2.4,59.9701811746619,
0,0,1,0,0,1,0,0,hexagon,circle,2,0,2,0,0,8,8,7,,,,,,,,,,,,450.79605279071257,450.79605279071257,450.79605279071257,450.79605279071257,450.79605279071257,450.79605279071257,450.79605279071257,450.79605279071257,450.79605279071257,450.79605279071257,a,0.5066302856430411,10,600,2,451.330384909641,452.83027585875243,452.83027585875243,,,,,,,,,,,,,,,,,,,,13674,2022-12-02_09h18.27.173,vts_reward_expectancy_bt_OFFLINE,2022.2.4,59.9701811746619,
1,0,0,0,0,0,0,1,triangle,star,2,0,2,0,0,9,9,2,,,,,,,,,,,,453.3303045919165,453.3303045919165,453.3303045919165,453.3303045919165,453.3303045919165,453.3303045919165,453.3303045919165,453.3303045919165,453.3303045919165,453.3303045919165,l,0.3686330998316407,10,610,2,453.7307901359163,455.2327924966812,455.2327924966812,455.73294196184725,,,,,,,,,,,,,,,,,,,13674,2022-12-02_09h18.27.173,vts_reward_expectancy_bt_OFFLINE,2022.2.4,59.9701811746619,
0,1,0,0,1,0,0,0,circle,triangle,2,0,2,0,0,10,10,3,,,,,,,,,,,,455.73294196184725,455.73294196184725,455.73294196184725,455.73294196184725,455.73294196184725,455.73294196184725,455.73294196184725,455.73294196184725,455.73294196184725,455.73294196184725,l,0.47488515637815,10,620,2,456.23383758962154,457.7336594206281,457.7336594206281,458.23383274301887,,,,,,,,,,,,,,,,,,,13674,2022-12-02_09h18.27.173,vts_reward_expectancy_bt_OFFLINE,2022.2.4,59.9701811746619,
0,0,1,0,0,0,0,1,hexagon,star,2,0,2,0,0,11,11,8,,,,,,,,,,,,458.23383274301887,458.23383274301887,458.23383274301887,458.23383274301887,458.23383274301887,458.23383274301887,458.23383274301887,458.23383274301887,458.23383274301887,458.23383274301887,l,0.3924650540575385,1,621,2,458.6534038889222,,460.15306989569217,,,,,,,,,,,,,,,,,,,,13674,2022-12-02_09h18.27.173,vts_reward_expectancy_bt_OFFLINE,2022.2.4,59.9701811746619,
1,0,0,0,0,0,0,1,triangle,star,2,0,2,0,1,0,12,2,,,,,,,,,,,,460.65331269660965,460.65331269660965,460.65331269660965,460.65331269660965,460.65331269660965,460.65331269660965,460.65331269660965,460.65331269660965,460.65331269660965,460.65331269660965,a,0.4494362068362534,1,622,2,461.12081194575876,462.6205462147482,462.6205462147482,463.12063472159207,,,,,,,,,,,,,,,,,,,13674,2022-12-02_09h18.27.173,vts_reward_expectancy_bt_OFFLINE,2022.2.4,59.9701811746619,
0,0,1,0,0,1,0,0,hexagon,circle,2,0,2,0,1,1,13,7,,,,,,,,,,,,463.12063472159207,463.12063472159207,463.12063472159207,463.12063472159207,463.12063472159207,463.12063472159207,463.12063472159207,463.12063472159207,463.12063472159207,463.12063472159207,l,0.7146944128908217,1,623,2,463.85733234276995,465.35675340984017,465.35675340984017,465.8568204897456,,,,,,,,,,,,,,,,,,,13674,2022-12-02_09h18.27.173,vts_reward_expectancy_bt_OFFLINE,2022.2.4,59.9701811746619,
0,0,1,0,1,0,0,0,hexagon,triangle,2,0,2,0,1,2,14,6,,,,,,,,,,,,465.8568204897456,465.8568204897456,465.8568204897456,465.8568204897456,465.8568204897456,465.8568204897456,465.8568204897456,465.8568204897456,465.8568204897456,465.8568204897456,a,0.33047212939709425,10,633,2,466.20932504488155,,467.70752515178174,,,,,,,,,,,,,,,,,,,,13674,2022-12-02_09h18.27.173,vts_reward_expectancy_bt_OFFLINE,2022.2.4,59.9701811746619,
1,0,0,0,0,1,0,0,triangle,circle,2,0,2,0,1,3,15,0,,,,,,,,,,,,468.20769119402394,468.20769119402394,468.20769119402394,468.20769119402394,468.20769119402394,468.20769119402394,468.20769119402394,468.20769119402394,468.20769119402394,468.20769119402394,a,0.44388861302286386,10,643,2,468.6756421807222,,470.1769517855719,,,,,,,,,,,,,,,,,,,,13674,2022-12-02_09h18.27.173,vts_reward_expectancy_bt_OFFLINE,2022.2.4,59.9701811746619,
1,0,0,0,0,0,1,0,triangle,hexagon,2,0,2,0,1,4,16,1,,,,,,,,,,,,470.6774814268574,470.6774814268574,470.6774814268574,470.6774814268574,470.6774814268574,470.6774814268574,470.6774814268574,470.6774814268574,470.6774814268574,470.6774814268574,a,0.4823964396491647,10,653,2,471.1781690795906,472.6779767498374,472.6779767498374,,,,,,,,,,,,,,,,,,,,13674,2022-12-02_09h18.27.173,vts_reward_expectancy_bt_OFFLINE,2022.2.4,59.9701811746619,
0,0,0,1,0,1,0,0,star ,circle,2,0,2,0,1,5,17,10,,,,,,,,,,,,473.177942014765,473.177942014765,473.177942014765,473.177942014765,473.177942014765,473.177942014765,473.177942014765,473.177942014765,473.177942014765,473.177942014765,l,0.5134003660641611,1,654,2,473.714598425664,,475.21418903488666,,,,,,,,,,,,,,,,,,,,13674,2022-12-02_09h18.27.173,vts_reward_expectancy_bt_OFFLINE,2022.2.4,59.9701811746619,
0,1,0,0,0,0,1,0,circle,hexagon,2,0,2,0,1,6,18,4,,,,,,,,,,,,475.71431854274124,475.71431854274124,475.71431854274124,475.71431854274124,475.71431854274124,475.71431854274124,475.71431854274124,475.71431854274124,475.71431854274124,475.71431854274124,l,0.45257364492863417,1,655,2,476.197670110967,477.6981674185954,477.6981674185954,478.19823278067634,,,,,,,,,,,,,,,,,,,13674,2022-12-02_09h18.27.173,vts_reward_expectancy_bt_OFFLINE,2022.2.4,59.9701811746619,
0,1,0,0,0,0,0,1,circle,star,2,0,2,0,1,7,19,5,,,,,,,,,,,,478.19823278067634,478.19823278067634,478.19823278067634,478.19823278067634,478.19823278067634,478.19823278067634,478.19823278067634,478.19823278067634,478.19823278067634,478.19823278067634,l,0.36447686003521085,10,665,2,478.59649364463985,,480.0842769476585,,,,,,,,,,,,,,,,,,,,13674,2022-12-02_09h18.27.173,vts_reward_expectancy_bt_OFFLINE,2022.2.4,59.9701811746619,
0,0,1,0,0,0,0,1,hexagon,star,2,0,2,0,1,8,20,8,,,,,,,,,,,,480.58446487784386,480.58446487784386,480.58446487784386,480.58446487784386,480.58446487784386,480.58446487784386,480.58446487784386,480.58446487784386,480.58446487784386,480.58446487784386,a,0.3974322169087827,1,666,2,481.0038034506142,,482.5186171159148,,,,,,,,,,,,,,,,,,,,13674,2022-12-02_09h18.27.173,vts_reward_expectancy_bt_OFFLINE,2022.2.4,59.9701811746619,
0,0,0,1,1,0,0,0,star,triangle,2,0,2,0,1,9,21,9,,,,,,,,,,,,483.0184693490155,483.0184693490155,483.0184693490155,483.0184693490155,483.0184693490155,483.0184693490155,483.0184693490155,483.0184693490155,483.0184693490155,483.0184693490155,a,0.3938387669622898,10,676,2,483.45016628084704,,484.93790141958743,,,,,,,,,,,,,,,,,,,,13674,2022-12-02_09h18.27.173,vts_reward_expectancy_bt_OFFLINE,2022.2.4,59.9701811746619,
0,1,0,0,1,0,0,0,circle,triangle,2,0,2,0,1,10,22,3,,,,,,,,,,,,485.43787899194285,485.43787899194285,485.43787899194285,485.43787899194285,485.43787899194285,485.43787899194285,485.43787899194285,485.43787899194285,485.43787899194285,485.43787899194285,l,0.37071378994733095,1,677,2,485.8410837017,,487.35544769791886,,,,,,,,,,,,,,,,,,,,13674,2022-12-02_09h18.27.173,vts_reward_expectancy_bt_OFFLINE,2022.2.4,59.9701811746619,
0,0,0,1,0,0,1,0,star,hexagon,2,0,2,0,1,11,23,11,,,,,,,,,,,,487.8552070846781,487.8552070846781,487.8552070846781,487.8552070846781,487.8552070846781,487.8552070846781,487.8552070846781,487.8552070846781,487.8552070846781,487.8552070846781,a,0.3264039778150618,1,678,2,488.2065050029196,,489.70784284966066,,,,,,,,,,,,,,,,,,,,13674,2022-12-02_09h18.27.173,vts_reward_expectancy_bt_OFFLINE,2022.2.4,59.9701811746619,
0,0,1,0,1,0,0,0,hexagon,triangle,2,0,2,0,2,0,24,6,,,,,,,,,,,,490.2083346080035,490.2083346080035,490.2083346080035,490.2083346080035,490.2083346080035,490.2083346080035,490.2083346080035,490.2083346080035,490.2083346080035,490.2083346080035,l,0.4947162223979831,1,679,2,490.7258702898398,,492.2256187177263,492.7255939259194,,,,,,,,,,,,,,,,,,,13674,2022-12-02_09h18.27.173,vts_reward_expectancy_bt_OFFLINE,2022.2.4,59.9701811746619,
1,0,0,0,0,0,1,0,triangle,hexagon,2,0,2,0,2,1,25,1,,,,,,,,,,,,492.7255939259194,492.7255939259194,492.7255939259194,492.7255939259194,492.7255939259194,492.7255939259194,492.7255939259194,492.7255939259194,492.7255939259194,492.7255939259194,l,1.3071953458711505,10,689,2,494.06442355085164,,495.57874769577757,,,,,,,,,,,,,,,,,,,,13674,2022-12-02_09h18.27.173,vts_reward_expectancy_bt_OFFLINE,2022.2.4,59.9701811746619,
0,0,1,0,0,1,0,0,hexagon,circle,2,0,2,0,2,2,26,7,,,,,,,,,,,,496.0789624969475,496.0789624969475,496.0789624969475,496.0789624969475,496.0789624969475,496.0789624969475,496.0789624969475,496.0789624969475,496.0789624969475,496.0789624969475,l,2.048232756089419,10,699,2,498.14724804461,,499.648640176747,,,,,,,,,,,,,,,,,,,,13674,2022-12-02_09h18.27.173,vts_reward_expectancy_bt_OFFLINE,2022.2.4,59.9701811746619,
1,0,0,0,0,1,0,0,triangle,circle,2,0,2,0,2,3,27,0,,,,,,,,,,,,500.14894393784925,500.14894393784925,500.14894393784925,500.14894393784925,500.14894393784925,500.14894393784925,500.14894393784925,500.14894393784925,500.14894393784925,500.14894393784925,l,0.5997402770444751,10,709,2,500.76679683383554,502.2660897290334,502.2660897290334,502.76612247759476,,,,,,,,,,,,,,,,,,,13674,2022-12-02_09h18.27.173,vts_reward_expectancy_bt_OFFLINE,2022.2.4,59.9701811746619,
1,0,0,0,0,0,0,1,triangle,star,2,0,2,0,2,4,28,2,,,,,,,,,,,,502.76612247759476,502.76612247759476,502.76612247759476,502.76612247759476,502.76612247759476,502.76612247759476,502.76612247759476,502.76612247759476,502.76612247759476,502.76612247759476,a,1.538410452194512,10,719,2,504.33556516468525,505.83589349268004,505.83589349268004,506.33603564091027,,,,,,,,,,,,,,,,,,,13674,2022-12-02_09h18.27.173,vts_reward_expectancy_bt_OFFLINE,2022.2.4,59.9701811746619,
0,1,0,0,1,0,0,0,circle,triangle,2,0,2,0,2,5,29,3,,,,,,,,,,,,506.33603564091027,506.33603564091027,506.33603564091027,506.33603564091027,506.33603564091027,506.33603564091027,506.33603564091027,506.33603564091027,506.33603564091027,506.33603564091027,a,2.1642246819101274,1,720,2,508.5236793109216,,510.0227595549077,,,,,,,,,,,,,,,,,,,,13674,2022-12-02_09h18.27.173,vts_reward_expectancy_bt_OFFLINE,2022.2.4,59.9701811746619,
0,0,0,1,1,0,0,0,star,triangle,2,0,2,0,2,6,30,9,,,,,,,,,,,,510.52294301381335,510.52294301381335,510.52294301381335,510.52294301381335,510.52294301381335,510.52294301381335,510.52294301381335,510.52294301381335,510.52294301381335,510.52294301381335,a,2.0622482202015817,10,730,2,512.6094818897545,,514.1093893349171,,,,,,,,,,,,,,,,,,,,13674,2022-12-02_09h18.27.173,vts_reward_expectancy_bt_OFFLINE,2022.2.4,59.9701811746619,
0,1,0,0,0,0,1,0,circle,hexagon,2,0,2,0,2,7,31,4,,,,,,,,,,,,514.6096248449758,514.6096248449758,514.6096248449758,514.6096248449758,514.6096248449758,514.6096248449758,514.6096248449758,514.6096248449758,514.6096248449758,514.6096248449758,a,1.429808387067169,1,731,2,516.0631715399213,,517.5773305515759,,,,,,,,,,,,,,,,,,,,13674,2022-12-02_09h18.27.173,vts_reward_expectancy_bt_OFFLINE,2022.2.4,59.9701811746619,
0,1,0,0,0,0,0,1,circle,star,2,0,2,0,2,8,32,5,,,,,,,,,,,,518.0772257228382,518.0772257228382,518.0772257228382,518.0772257228382,518.0772257228382,518.0772257228382,518.0772257228382,518.0772257228382,518.0772257228382,518.0772257228382,l,0.3811235036700964,10,741,2,518.4806925347075,,519.9799534576014,,,,,,,,,,,,,,,,,,,,13674,2022-12-02_09h18.27.173,vts_reward_expectancy_bt_OFFLINE,2022.2.4,59.9701811746619,
0,0,1,0,0,0,0,1,hexagon,star,2,0,2,0,2,9,33,8,,,,,,,,,,,,520.4799935547635,520.4799935547635,520.4799935547635,520.4799935547635,520.4799935547635,520.4799935547635,520.4799935547635,520.4799935547635,520.4799935547635,520.4799935547635,l,0.9702543690800667,10,751,2,521.4815233279951,522.9812147058547,522.9812147058547,523.4809204866178,,,,,,,,,,,,,,,,,,,13674,2022-12-02_09h18.27.173,vts_reward_expectancy_bt_OFFLINE,2022.2.4,59.9701811746619,
0,0,0,1,0,1,0,0,star ,circle,2,0,2,0,2,10,34,10,,,,,,,,,,,,523.4809204866178,523.4809204866178,523.4809204866178,523.4809204866178,523.4809204866178,523.4809204866178,523.4809204866178,523.4809204866178,523.4809204866178,523.4809204866178,a,2.671477295923978,10,761,2,526.1846490767784,527.6844613016583,527.6844613016583,528.1845410116948,,,,,,,,,,,,,,,,,,,13674,2022-12-02_09h18.27.173,vts_reward_expectancy_bt_OFFLINE,2022.2.4,59.9701811746619,
0,0,0,1,0,0,1,0,star,hexagon,2,0,2,0,2,11,35,11,,,,,,,,,,,,528.1845410116948,528.1845410116948,528.1845410116948,528.1845410116948,528.1845410116948,528.1845410116948,528.1845410116948,528.1845410116948,528.1845410116948,528.1845410116948,a,1.6027166857384145,1,762,2,529.8070779517293,,531.3211885336787,,,,,,,,,,,,,,,,,,,,13674,2022-12-02_09h18.27.173,vts_reward_expectancy_bt_OFFLINE,2022.2.4,59.9701811746619,
0,0,1,0,0,0,0,1,hexagon,star,2,0,2,0,3,0,36,8,,,,,,,,,,,,531.821129377,531.821129377,531.821129377,531.821129377,531.821129377,531.821129377,531.821129377,531.821129377,531.821129377,531.821129377,l,0.5426645558327436,1,763,2,532.3895945237018,,533.8904711049981,,,,,,,,,,,,,,,,,,,,13674,2022-12-02_09h18.27.173,vts_reward_expectancy_bt_OFFLINE,2022.2.4,59.9701811746619,
1,0,0,0,0,0,0,1,triangle,star,2,0,2,0,3,1,37,2,,,,,,,,,,,,534.3904913426377,534.3904913426377,534.3904913426377,534.3904913426377,534.3904913426377,534.3904913426377,534.3904913426377,534.3904913426377,534.3904913426377,534.3904913426377,a,0.3346944344229996,10,773,2,534.7597199399024,,536.2748283008114,,,,,,,,,,,,,,,,,,,,13674,2022-12-02_09h18.27.173,vts_reward_expectancy_bt_OFFLINE,2022.2.4,59.9701811746619,
0,0,1,0,1,0,0,0,hexagon,triangle,2,0,2,0,3,2,38,6,,,,,,,,,,,,536.7747720498592,536.7747720498592,536.7747720498592,536.7747720498592,536.7747720498592,536.7747720498592,536.7747720498592,536.7747720498592,536.7747720498592,536.7747720498592,l,0.52800189005211,10,783,2,537.326010979712,538.825638114009,538.825638114009,,,,,,,,,,,,,,,,,,,,13674,2022-12-02_09h18.27.173,vts_reward_expectancy_bt_OFFLINE,2022.2.4,59.9701811746619,
0,0,0,1,0,0,1,0,star,hexagon,2,0,2,0,3,3,39,11,,,,,,,,,,,,539.3275716258213,539.3275716258213,539.3275716258213,539.3275716258213,539.3275716258213,539.3275716258213,539.3275716258213,539.3275716258213,539.3275716258213,539.3275716258213,l,0.4156467327848077,10,793,2,539.7623508307151,541.2615758175962,541.2615758175962,541.7618341967463,,,,,,,,,,,,,,,,,,,13674,2022-12-02_09h18.27.173,vts_reward_expectancy_bt_OFFLINE,2022.2.4,59.9701811746619,
0,1,0,0,0,0,0,1,circle,star,2,0,2,0,3,4,40,5,,,,,,,,,,,,541.7618341967463,541.7618341967463,541.7618341967463,541.7618341967463,541.7618341967463,541.7618341967463,541.7618341967463,541.7618341967463,541.7618341967463,541.7618341967463,a,0.2884750119410455,1,794,2,542.081816019956,,543.5957771549001,,,,,,,,,,,,,,,,,,,,13674,2022-12-02_09h18.27.173,vts_reward_expectancy_bt_OFFLINE,2022.2.4,59.9701811746619,
0,0,0,1,0,1,0,0,star ,circle,2,0,2,0,3,5,41,10,,,,,,,,,,,,544.0812173229642,544.0812173229642,544.0812173229642,544.0812173229642,544.0812173229642,544.0812173229642,544.0812173229642,544.0812173229642,544.0812173229642,544.0812173229642,l,0.3205670714378357,1,795,2,544.4325768579729,545.9317113296129,545.9317113296129,546.4320243368857,,,,,,,,,,,,,,,,,,,13674,2022-12-02_09h18.27.173,vts_reward_expectancy_bt_OFFLINE,2022.2.4,59.9701811746619,
0,1,0,0,0,0,1,0,circle,hexagon,2,0,2,0,3,6,42,4,,,,,,,,,,,,546.4320243368857,546.4320243368857,546.4320243368857,546.4320243368857,546.4320243368857,546.4320243368857,546.4320243368857,546.4320243368857,546.4320243368857,546.4320243368857,a,0.3888846351765096,1,796,2,546.8499733125791,548.3494480429217,548.3494480429217,548.8465368398465,,,,,,,,,,,,,,,,,,,13674,2022-12-02_09h18.27.173,vts_reward_expectancy_bt_OFFLINE,2022.2.4,59.9701811746619,
0,1,0,0,1,0,0,0,circle,triangle,2,0,2,0,3,7,43,3,,,,,,,,,,,,548.8465368398465,548.8465368398465,548.8465368398465,548.8465368398465,548.8465368398465,548.8465368398465,548.8465368398465,548.8465368398465,548.8465368398465,548.8465368398465,l,0.5048561771400273,1,797,2,549.3697213758714,,550.8857663809322,,,,,,,,,,,,,,,,,,,,13674,2022-12-02_09h18.27.173,vts_reward_expectancy_bt_OFFLINE,2022.2.4,59.9701811746619,
0,0,1,0,0,1,0,0,hexagon,circle,2,0,2,0,3,8,44,7,,,,,,,,,,,,551.3856272287667,551.3856272287667,551.3856272287667,551.3856272287667,551.3856272287667,551.3856272287667,551.3856272287667,551.3856272287667,551.3856272287667,551.3856272287667,l,0.3064627731218934,1,798,2,551.720136643853,,553.2196679087356,553.7197767905891,,,,,,,,,,,,,,,,,,,13674,2022-12-02_09h18.27.173,vts_reward_expectancy_bt_OFFLINE,2022.2.4,59.9701811746619,
1,0,0,0,0,1,0,0,triangle,circle,2,0,2,0,3,9,45,0,,,,,,,,,,,,553.7197767905891,553.7197767905891,553.7197767905891,553.7197767905891,553.7197767905891,553.7197767905891,553.7197767905891,553.7197767905891,553.7197767905891,553.7197767905891,a,1.3804780272766948,1,799,2,555.1234994498082,556.6223180256784,556.6223180256784,557.1226870790124,,,,,,,,,,,,,,,,,,,13674,2022-12-02_09h18.27.173,vts_reward_expectancy_bt_OFFLINE,2022.2.4,59.9701811746619,
1,0,0,0,0,0,1,0,triangle,hexagon,2,0,2,0,3,10,46,1,,,,,,,,,,,,557.1226870790124,557.1226870790124,557.1226870790124,557.1226870790124,557.1226870790124,557.1226870790124,557.1226870790124,557.1226870790124,557.1226870790124,557.1226870790124,l,1.1401536879129708,1,800,2,558.2912807208486,,559.7923212819733,,,,,,,,,,,,,,,,,,,,13674,2022-12-02_09h18.27.173,vts_reward_expectancy_bt_OFFLINE,2022.2.4,59.9701811746619,
0,0,0,1,1,0,0,0,star,triangle,2,0,2,0,3,11,47,9,,,,,,,,,,,,560.2925761709921,560.2925761709921,560.2925761709921,560.2925761709921,560.2925761709921,560.2925761709921,560.2925761709921,560.2925761709921,560.2925761709921,560.2925761709921,a,0.489628987852484,10,810,2,560.812695406843,,562.3262165617198,,,,,,,,,,,,,,,,,,,,13674,2022-12-02_09h18.27.173,vts_reward_expectancy_bt_OFFLINE,2022.2.4,59.9701811746619,
,,,,,,,,,,,,,,,,,,0,0,0,0,0,0,0,0,,,,,,,,,,,,,,,,,,,,,596.7684382027946,,H,146,triangle,0.0019914498552680016,590.7607076247223,592.24815857457,592.24815857457,592.24815857457,595.2513989065774,595.2513989065774,595.2513989065774,0,0,None,0,595.2689441507682,,,13674,2022-12-02_09h18.27.173,vts_reward_expectancy_bt_OFFLINE,2022.2.4,59.9701811746619,
,,,,,,,,,,,,,,,,,,0,0,0,0,1,0,1,0,,,,,,,,,,,,,,,,,,,,,601.7051789239049,,U,125,circle,0.005930964834988117,597.7646736949682,599.2545572356321,599.2545572356321,599.2545572356321,,,,1,1,f,0,600.1914754416794,0.9053549701347947,,13674,2022-12-02_09h18.27.173,vts_reward_expectancy_bt_OFFLINE,2022.2.4,59.9701811746619,
,,,,,,,,,,,,,,,,,,0,0,0,0,2,0,2,0,,,,,,,,,,,,,,,,,,,,,606.5755774215795,607.0758204539306,F,181,star,0.0033515491522848606,602.6863234699704,604.1747660106048,604.1747660106048,604.1747660106048,,,,1,0,d,0,605.0760620716028,0.878202335909009,606.5755774215795,13674,2022-12-02_09h18.27.173,vts_reward_expectancy_bt_OFFLINE,2022.2.4,59.9701811746619,
,,,,,,,,,,,,,,,,,,0,0,0,0,3,0,3,0,,,,,,,,,,,,,,,,,,,,,611.3956978288479,,S,160,hexagon,0.0004381542094051838,607.5714523368515,609.0617961529642,609.0617961529642,609.0617961529642,,,,1,0,f,0,609.8803766029887,0.7962617250159383,,13674,2022-12-02_09h18.27.173,vts_reward_expectancy_bt_OFFLINE,2022.2.4,59.9701811746619,
,,,,,,,,,,,,,,,,,,0,0,0,0,4,0,4,0,,,,,,,,,,,,,,,,,,,,,618.3838112927042,,W,139,hexagon,0.016487739980220795,612.3922232738696,613.8634345126338,613.8634345126338,613.8634345126338,616.8662930959836,616.8662930959836,616.8662930959836,0,0,None,0,616.8832795727067,,,13674,2022-12-02_09h18.27.173,vts_reward_expectancy_bt_OFFLINE,2022.2.4,59.9701811746619,
,,,,,,,,,,,,,,,,,,0,0,0,0,5,0,5,0,,,,,,,,,,,,,,,,,,,,,623.3207719898783,,Y,167,circle,0.004514893051236868,619.3797111120075,620.8697031997144,620.8697031997144,620.8697031997144,,,,1,1,f,0,621.806747846771,0.9131628796458244,,13674,2022-12-02_09h18.27.173,vts_reward_expectancy_bt_OFFLINE,2022.2.4,59.9701811746619,
,,,,,,,,,,,,,,,,,,0,0,0,0,6,0,6,0,,,,,,,,,,,,,,,,,,,,,627.9406653526239,,D,174,star,0.017032532952725887,624.3166981670074,625.7899491437711,625.7899491437711,625.7899491437711,,,,1,0,d,0,626.4414795478806,0.6281887092627585,,13674,2022-12-02_09h18.27.173,vts_reward_expectancy_bt_OFFLINE,2022.2.4,59.9701811746619,
,,,,,,,,,,,,,,,,,,0,0,0,0,7,0,7,0,,,,,,,,,,,,,,,,,,,,,632.8443000758998,,B,132,triangle,0.0003202706575393677,628.9367190059274,630.4267747518606,630.4267747518606,630.4267747518606,,,,1,0,d,0,631.3288106387481,0.8747246689163148,,13674,2022-12-02_09h18.27.173,vts_reward_expectancy_bt_OFFLINE,2022.2.4,59.9701811746619,
,,,,,,,,,,,,,,,,,,0,0,0,0,8,0,8,0,,,,,,,,,,,,,,,,,,,,,638.4314450556412,,H,146,triangle,0.016664685215801,633.8401157176122,635.3138037156314,635.3138037156314,635.3138037156314,,,,1,0,d,0,636.9319422617555,1.5899429991841316,638.4314450556412,13674,2022-12-02_09h18.27.173,vts_reward_expectancy_bt_OFFLINE,2022.2.4,59.9701811746619,
,,,,,,,,,,,,,,,,,,0,0,0,0,9,0,9,0,,,,,,,,,,,,,,,,,,,,,643.2849630475976,643.7929763868451,U,125,circle,0.009439101908355951,639.4304673857987,640.917658126913,640.917658126913,640.917658126913,,,,1,0,f,0,641.784685219638,0.8346359981223941,643.2849630475976,13674,2022-12-02_09h18.27.173,vts_reward_expectancy_bt_OFFLINE,2022.2.4,59.9701811746619,
