LTriangleOpac,LCircleOpac,LHexagonOpac,LStarOpac,RTriangleOpac,RCircleOpac,RHexagonOpac,RStarOpac,LShape_ID,RShape_ID,training_blocks.thisRepN,training_blocks.thisTrialN,training_blocks.thisN,training_blocks.thisIndex,training.thisRepN,training.thisTrialN,training.thisN,training.thisIndex,task1_prac_redo.thisRepN,task1_prac_redo.thisTrialN,task1_prac_redo.thisN,task1_prac_redo.thisIndex,task1_prac_trials.thisRepN,task1_prac_trials.thisTrialN,task1_prac_trials.thisN,task1_prac_trials.thisIndex,key_resp.started,key_resp.keys,key_resp.rt,left_circle.started,right_circle.started,left_triangle.started,right_triangle.started,left_star.started,right_star.started,left_hexagon.started,right_hexagon.started,training_fix.started,training_resp.started,training_resp.keys,training_resp.rt,points_trial,points_cumul,trainBlock,training_feedback_txt.started,fix.started,training_feedback_txt.stopped,fix.stopped,curr_topStim,curr_bottStim,curr_shape,ISI.started,tgt_fix_prac1.started,top_target_prac1.started,bott_target_prac1.started,target_resp_prac1.started,top_target_prac1.stopped,bott_target_prac1.stopped,target_resp_prac1.stopped,acc,E1,target_resp_prac1.keys,pracBlock,prac_fback_text.started,target_resp_prac1.rt,prac_fback_text.stopped,participant,date,expName,psychopyVersion,frameRate,
,,,,,,,,,,,,,,,,,,,,,,,,,,13.439287008950487,space,24.55917558609508,,,,,,,,,,,,,,,,,,,,,,,,,,,,,,,,,,,,,,13699,2022-11-10_13h52.18.329,vts_reward_expectancy_bt_OFFLINE,2022.2.4,60.07443784462158,
0,0,1,0,0,1,0,0,hexagon,circle,0,0,0,0,0,0,0,7,,,,,,,,,,,,61.223149514058605,61.223149514058605,61.223149514058605,61.223149514058605,61.223149514058605,61.223149514058605,61.223149514058605,61.223149514058605,61.223149514058605,61.223149514058605,a,1.527419910999015,10,10,0,62.78231267398223,64.29721452505328,,,,,,,,,,,,,,,,,,,,,13699,2022-11-10_13h52.18.329,vts_reward_expectancy_bt_OFFLINE,2022.2.4,60.07443784462158,
0,0,0,1,0,0,1,0,star,hexagon,0,0,0,0,0,1,1,11,,,,,,,,,,,,64.7973755269777,64.7973755269777,64.7973755269777,64.7973755269777,64.7973755269777,64.7973755269777,64.7973755269777,64.7973755269777,64.7973755269777,64.7973755269777,a,0.8888398880371824,1,11,0,65.71512032696046,67.2154508830281,,,,,,,,,,,,,,,,,,,,,13699,2022-11-10_13h52.18.329,vts_reward_expectancy_bt_OFFLINE,2022.2.4,60.07443784462158,
0,1,0,0,1,0,0,0,circle,triangle,0,0,0,0,0,2,2,3,,,,,,,,,,,,67.71744024404325,67.71744024404325,67.71744024404325,67.71744024404325,67.71744024404325,67.71744024404325,67.71744024404325,67.71744024404325,67.71744024404325,67.71744024404325,a,1.2771504160482436,1,12,0,69.01767670398112,70.51824263599701,70.51824263599701,71.0184538459871,,,,,,,,,,,,,,,,,,,13699,2022-11-10_13h52.18.329,vts_reward_expectancy_bt_OFFLINE,2022.2.4,60.07443784462158,
0,0,1,0,0,0,0,1,hexagon,star,0,0,0,0,0,3,3,8,,,,,,,,,,,,71.0184538459871,71.0184538459871,71.0184538459871,71.0184538459871,71.0184538459871,71.0184538459871,71.0184538459871,71.0184538459871,71.0184538459871,71.0184538459871,a,1.4640898610232398,10,22,0,72.50464496505447,74.00442380597815,74.00442380597815,74.50471400702372,,,,,,,,,,,,,,,,,,,13699,2022-11-10_13h52.18.329,vts_reward_expectancy_bt_OFFLINE,2022.2.4,60.07443784462158,
0,1,0,0,0,0,1,0,circle,hexagon,0,0,0,0,0,4,4,4,,,,,,,,,,,,74.50471400702372,74.50471400702372,74.50471400702372,74.50471400702372,74.50471400702372,74.50471400702372,74.50471400702372,74.50471400702372,74.50471400702372,74.50471400702372,l,1.0932480989722535,10,32,0,75.6219323379919,77.12259075103793,77.12259075103793,,,,,,,,,,,,,,,,,,,,13699,2022-11-10_13h52.18.329,vts_reward_expectancy_bt_OFFLINE,2022.2.4,60.07443784462158,
1,0,0,0,0,0,1,0,triangle,hexagon,0,0,0,0,0,5,5,1,,,,,,,,,,,,77.62465812300798,77.62465812300798,77.62465812300798,77.62465812300798,77.62465812300798,77.62465812300798,77.62465812300798,77.62465812300798,77.62465812300798,77.62465812300798,l,1.4731155469780788,10,42,0,79.12498564994894,80.62555467698257,80.62555467698257,,,,,,,,,,,,,,,,,,,,13699,2022-11-10_13h52.18.329,vts_reward_expectancy_bt_OFFLINE,2022.2.4,60.07443784462158,
0,0,1,0,1,0,0,0,hexagon,triangle,0,0,0,0,0,6,6,6,,,,,,,,,,,,81.12563905096613,81.12563905096613,81.12563905096613,81.12563905096613,81.12563905096613,81.12563905096613,81.12563905096613,81.12563905096613,81.12563905096613,81.12563905096613,a,0.7729289140552282,10,52,0,81.9260770509718,83.42844622104894,,,,,,,,,,,,,,,,,,,,,13699,2022-11-10_13h52.18.329,vts_reward_expectancy_bt_OFFLINE,2022.2.4,60.07443784462158,
1,0,0,0,0,1,0,0,triangle,circle,0,0,0,0,0,7,7,0,,,,,,,,,,,,83.92857128602918,83.92857128602918,83.92857128602918,83.92857128602918,83.92857128602918,83.92857128602918,83.92857128602918,83.92857128602918,83.92857128602918,83.92857128602918,a,1.5697904190747067,1,53,0,85.52976051205769,87.02975238196086,87.02975238196086,,,,,,,,,,,,,,,,,,,,13699,2022-11-10_13h52.18.329,vts_reward_expectancy_bt_OFFLINE,2022.2.4,60.07443784462158,
0,0,0,1,0,1,0,0,star ,circle,0,0,0,0,0,8,8,10,,,,,,,,,,,,87.53183620504569,87.53183620504569,87.53183620504569,87.53183620504569,87.53183620504569,87.53183620504569,87.53183620504569,87.53183620504569,87.53183620504569,87.53183620504569,l,1.1172158200060949,10,63,0,88.68217109201942,90.18254806799814,90.18254806799814,90.68278552603442,,,,,,,,,,,,,,,,,,,13699,2022-11-10_13h52.18.329,vts_reward_expectancy_bt_OFFLINE,2022.2.4,60.07443784462158,
0,0,0,1,1,0,0,0,star,triangle,0,0,0,0,0,9,9,9,,,,,,,,,,,,90.68278552603442,90.68278552603442,90.68278552603442,90.68278552603442,90.68278552603442,90.68278552603442,90.68278552603442,90.68278552603442,90.68278552603442,90.68278552603442,l,1.206606748048216,10,73,0,91.91634503100067,93.41890392499045,,,,,,,,,,,,,,,,,,,,,13699,2022-11-10_13h52.18.329,vts_reward_expectancy_bt_OFFLINE,2022.2.4,60.07443784462158,
1,0,0,0,0,0,0,1,triangle,star,0,0,0,0,0,10,10,2,,,,,,,,,,,,93.91923346603289,93.91923346603289,93.91923346603289,93.91923346603289,93.91923346603289,93.91923346603289,93.91923346603289,93.91923346603289,93.91923346603289,93.91923346603289,a,1.0520199741004035,10,83,0,95.00291546899825,96.50306651601568,96.50306651601568,97.00322401500307,,,,,,,,,,,,,,,,,,,13699,2022-11-10_13h52.18.329,vts_reward_expectancy_bt_OFFLINE,2022.2.4,60.07443784462158,
0,1,0,0,0,0,0,1,circle,star,0,0,0,0,0,11,11,5,,,,,,,,,,,,97.00322401500307,97.00322401500307,97.00322401500307,97.00322401500307,97.00322401500307,97.00322401500307,97.00322401500307,97.00322401500307,97.00322401500307,97.00322401500307,a,1.0742851780960336,1,84,0,98.10658336803317,99.60632621403784,99.60632621403784,100.10657535505015,,,,,,,,,,,,,,,,,,,13699,2022-11-10_13h52.18.329,vts_reward_expectancy_bt_OFFLINE,2022.2.4,60.07443784462158,
0,0,1,0,1,0,0,0,hexagon,triangle,0,0,0,0,1,0,12,6,,,,,,,,,,,,100.10657535505015,100.10657535505015,100.10657535505015,100.10657535505015,100.10657535505015,100.10657535505015,100.10657535505015,100.10657535505015,100.10657535505015,100.10657535505015,a,0.6140644700499251,10,94,0,100.74118443694897,102.24071107804775,102.24071107804775,,,,,,,,,,,,,,,,,,,,13699,2022-11-10_13h52.18.329,vts_reward_expectancy_bt_OFFLINE,2022.2.4,60.07443784462158,
0,0,0,1,1,0,0,0,star,triangle,0,0,0,0,1,1,13,9,,,,,,,,,,,,102.74280634406023,102.74280634406023,102.74280634406023,102.74280634406023,102.74280634406023,102.74280634406023,102.74280634406023,102.74280634406023,102.74280634406023,102.74280634406023,l,1.2635707530425861,10,104,0,104.02619839599356,105.52680220303591,105.52680220303591,106.02683208801318,,,,,,,,,,,,,,,,,,,13699,2022-11-10_13h52.18.329,vts_reward_expectancy_bt_OFFLINE,2022.2.4,60.07443784462158,
0,0,1,0,0,1,0,0,hexagon,circle,0,0,0,0,1,2,14,7,,,,,,,,,,,,106.02683208801318,106.02683208801318,106.02683208801318,106.02683208801318,106.02683208801318,106.02683208801318,106.02683208801318,106.02683208801318,106.02683208801318,106.02683208801318,a,0.44259388209320605,10,114,0,106.49415035999846,107.99646889197174,,,,,,,,,,,,,,,,,,,,,13699,2022-11-10_13h52.18.329,vts_reward_expectancy_bt_OFFLINE,2022.2.4,60.07443784462158,
1,0,0,0,0,0,1,0,triangle,hexagon,0,0,0,0,1,3,15,1,,,,,,,,,,,,108.49681838101242,108.49681838101242,108.49681838101242,108.49681838101242,108.49681838101242,108.49681838101242,108.49681838101242,108.49681838101242,108.49681838101242,108.49681838101242,l,0.8191665271297097,10,124,0,109.34705631702673,110.84752253105398,110.84752253105398,111.3478320579743,,,,,,,,,,,,,,,,,,,13699,2022-11-10_13h52.18.329,vts_reward_expectancy_bt_OFFLINE,2022.2.4,60.07443784462158,
0,1,0,0,1,0,0,0,circle,triangle,0,0,0,0,1,4,16,3,,,,,,,,,,,,111.3478320579743,111.3478320579743,111.3478320579743,111.3478320579743,111.3478320579743,111.3478320579743,111.3478320579743,111.3478320579743,111.3478320579743,111.3478320579743,l,0.860121499048546,1,125,0,112.23179692297708,113.73361833801027,,,,,,,,,,,,,,,,,,,,,13699,2022-11-10_13h52.18.329,vts_reward_expectancy_bt_OFFLINE,2022.2.4,60.07443784462158,
1,0,0,0,0,1,0,0,triangle,circle,0,0,0,0,1,5,17,0,,,,,,,,,,,,114.23371298902202,114.23371298902202,114.23371298902202,114.23371298902202,114.23371298902202,114.23371298902202,114.23371298902202,114.23371298902202,114.23371298902202,114.23371298902202,a,1.179920997004956,1,126,0,115.43419043102767,116.93493579595815,116.93493579595815,,,,,,,,,,,,,,,,,,,,13699,2022-11-10_13h52.18.329,vts_reward_expectancy_bt_OFFLINE,2022.2.4,60.07443784462158,
0,0,0,1,0,0,1,0,star,hexagon,0,0,0,0,1,6,18,11,,,,,,,,,,,,117.43689567502588,117.43689567502588,117.43689567502588,117.43689567502588,117.43689567502588,117.43689567502588,117.43689567502588,117.43689567502588,117.43689567502588,117.43689567502588,l,1.0267264840658754,10,136,0,118.48779698600993,119.98770233697724,119.98770233697724,120.4877864960581,,,,,,,,,,,,,,,,,,,13699,2022-11-10_13h52.18.329,vts_reward_expectancy_bt_OFFLINE,2022.2.4,60.07443784462158,
0,1,0,0,0,0,0,1,circle,star,0,0,0,0,1,7,19,5,,,,,,,,,,,,120.4877864960581,120.4877864960581,120.4877864960581,120.4877864960581,120.4877864960581,120.4877864960581,120.4877864960581,120.4877864960581,120.4877864960581,120.4877864960581,a,1.789900525007397,1,137,0,122.3058166509727,123.80781450797804,,,,,,,,,,,,,,,,,,,,,13699,2022-11-10_13h52.18.329,vts_reward_expectancy_bt_OFFLINE,2022.2.4,60.07443784462158,
0,0,1,0,0,0,0,1,hexagon,star,0,0,0,0,1,8,20,8,,,,,,,,,,,,124.30797941295896,124.30797941295896,124.30797941295896,124.30797941295896,124.30797941295896,124.30797941295896,124.30797941295896,124.30797941295896,124.30797941295896,124.30797941295896,a,0.7372259651310742,10,147,0,125.07575128902681,126.57521822105628,126.57521822105628,127.07552615005989,,,,,,,,,,,,,,,,,,,13699,2022-11-10_13h52.18.329,vts_reward_expectancy_bt_OFFLINE,2022.2.4,60.07443784462158,
0,0,0,1,0,1,0,0,star ,circle,0,0,0,0,1,9,21,10,,,,,,,,,,,,127.07552615005989,127.07552615005989,127.07552615005989,127.07552615005989,127.07552615005989,127.07552615005989,127.07552615005989,127.07552615005989,127.07552615005989,127.07552615005989,a,1.2993819410912693,10,157,0,128.39426718105096,129.89501547405962,129.89501547405962,,,,,,,,,,,,,,,,,,,,13699,2022-11-10_13h52.18.329,vts_reward_expectancy_bt_OFFLINE,2022.2.4,60.07443784462158,
1,0,0,0,0,0,0,1,triangle,star,0,0,0,0,1,10,22,2,,,,,,,,,,,,130.39503508002963,130.39503508002963,130.39503508002963,130.39503508002963,130.39503508002963,130.39503508002963,130.39503508002963,130.39503508002963,130.39503508002963,130.39503508002963,l,1.0400634011020884,1,158,0,131.4630303030135,132.96476338000502,,,,,,,,,,,,,,,,,,,,,13699,2022-11-10_13h52.18.329,vts_reward_expectancy_bt_OFFLINE,2022.2.4,60.07443784462158,
0,1,0,0,0,0,1,0,circle,hexagon,0,0,0,0,1,11,23,4,,,,,,,,,,,,133.46486787998583,133.46486787998583,133.46486787998583,133.46486787998583,133.46486787998583,133.46486787998583,133.46486787998583,133.46486787998583,133.46486787998583,133.46486787998583,l,1.0074381821323186,10,168,0,134.4988241350511,135.99890876503196,135.99890876503196,136.499080737005,,,,,,,,,,,,,,,,,,,13699,2022-11-10_13h52.18.329,vts_reward_expectancy_bt_OFFLINE,2022.2.4,60.07443784462158,
1,0,0,0,0,1,0,0,triangle,circle,0,0,0,0,2,0,24,0,,,,,,,,,,,,136.499080737005,136.499080737005,136.499080737005,136.499080737005,136.499080737005,136.499080737005,136.499080737005,136.499080737005,136.499080737005,136.499080737005,a,1.067050207988359,1,169,0,137.58571136498358,139.08539055404253,139.08539055404253,139.5852351860376,,,,,,,,,,,,,,,,,,,13699,2022-11-10_13h52.18.329,vts_reward_expectancy_bt_OFFLINE,2022.2.4,60.07443784462158,
0,0,0,1,1,0,0,0,star,triangle,0,0,0,0,2,1,25,9,,,,,,,,,,,,139.5852351860376,139.5852351860376,139.5852351860376,139.5852351860376,139.5852351860376,139.5852351860376,139.5852351860376,139.5852351860376,139.5852351860376,139.5852351860376,a,1.6263882661005482,1,170,0,141.2358234920539,142.73820243705995,,,,,,,,,,,,,,,,,,,,,13699,2022-11-10_13h52.18.329,vts_reward_expectancy_bt_OFFLINE,2022.2.4,60.07443784462158,
1,0,0,0,0,0,1,0,triangle,hexagon,0,0,0,0,2,2,26,1,,,,,,,,,,,,143.23840466304682,143.23840466304682,143.23840466304682,143.23840466304682,143.23840466304682,143.23840466304682,143.23840466304682,143.23840466304682,143.23840466304682,143.23840466304682,l,0.8313368000090122,1,171,0,144.08881752600428,145.5891389469616,145.5891389469616,146.08951163804159,,,,,,,,,,,,,,,,,,,13699,2022-11-10_13h52.18.329,vts_reward_expectancy_bt_OFFLINE,2022.2.4,60.07443784462158,
0,0,1,0,0,0,0,1,hexagon,star,0,0,0,0,2,3,27,8,,,,,,,,,,,,146.08951163804159,146.08951163804159,146.08951163804159,146.08951163804159,146.08951163804159,146.08951163804159,146.08951163804159,146.08951163804159,146.08951163804159,146.08951163804159,l,0.7478733230382204,1,172,0,146.8562297859462,148.35882776102517,,,,,,,,,,,,,,,,,,,,,13699,2022-11-10_13h52.18.329,vts_reward_expectancy_bt_OFFLINE,2022.2.4,60.07443784462158,
0,0,1,0,0,1,0,0,hexagon,circle,0,0,0,0,2,4,28,7,,,,,,,,,,,,148.8591192959575,148.8591192959575,148.8591192959575,148.8591192959575,148.8591192959575,148.8591192959575,148.8591192959575,148.8591192959575,148.8591192959575,148.8591192959575,a,0.610670029069297,1,173,0,149.4926356120268,150.9929846220184,150.9929846220184,151.493068199954,,,,,,,,,,,,,,,,,,,13699,2022-11-10_13h52.18.329,vts_reward_expectancy_bt_OFFLINE,2022.2.4,60.07443784462158,
0,1,0,0,1,0,0,0,circle,triangle,0,0,0,0,2,5,29,3,,,,,,,,,,,,151.493068199954,151.493068199954,151.493068199954,151.493068199954,151.493068199954,151.493068199954,151.493068199954,151.493068199954,151.493068199954,151.493068199954,l,1.9254720780299976,10,183,0,153.4470778319519,154.9464151400607,154.9464151400607,155.44654390099458,,,,,,,,,,,,,,,,,,,13699,2022-11-10_13h52.18.329,vts_reward_expectancy_bt_OFFLINE,2022.2.4,60.07443784462158,
0,0,0,1,0,0,1,0,star,hexagon,0,0,0,0,2,6,30,11,,,,,,,,,,,,155.44654390099458,155.44654390099458,155.44654390099458,155.44654390099458,155.44654390099458,155.44654390099458,155.44654390099458,155.44654390099458,155.44654390099458,155.44654390099458,a,1.144310440053232,1,184,0,156.61461180401966,158.11596039298456,,,,,,,,,,,,,,,,,,,,,13699,2022-11-10_13h52.18.329,vts_reward_expectancy_bt_OFFLINE,2022.2.4,60.07443784462158,
1,0,0,0,0,0,0,1,triangle,star,0,0,0,0,2,7,31,2,,,,,,,,,,,,158.61630535300355,158.61630535300355,158.61630535300355,158.61630535300355,158.61630535300355,158.61630535300355,158.61630535300355,158.61630535300355,158.61630535300355,158.61630535300355,a,1.6648487419588491,10,194,0,160.30146753205918,161.8006675769575,161.8006675769575,162.3008027980104,,,,,,,,,,,,,,,,,,,13699,2022-11-10_13h52.18.329,vts_reward_expectancy_bt_OFFLINE,2022.2.4,60.07443784462158,
0,1,0,0,0,0,0,1,circle,star,0,0,0,0,2,8,32,5,,,,,,,,,,,,162.3008027980104,162.3008027980104,162.3008027980104,162.3008027980104,162.3008027980104,162.3008027980104,162.3008027980104,162.3008027980104,162.3008027980104,162.3008027980104,a,2.166253644041717,10,204,0,164.48710195999593,165.9876891040476,165.9876891040476,,,,,,,,,,,,,,,,,,,,13699,2022-11-10_13h52.18.329,vts_reward_expectancy_bt_OFFLINE,2022.2.4,60.07443784462158,
0,0,1,0,1,0,0,0,hexagon,triangle,0,0,0,0,2,9,33,6,,,,,,,,,,,,166.4880879849661,166.4880879849661,166.4880879849661,166.4880879849661,166.4880879849661,166.4880879849661,166.4880879849661,166.4880879849661,166.4880879849661,166.4880879849661,a,1.3309979670448229,10,214,0,167.84019669797271,169.34074874396902,169.34074874396902,169.84063900401816,,,,,,,,,,,,,,,,,,,13699,2022-11-10_13h52.18.329,vts_reward_expectancy_bt_OFFLINE,2022.2.4,60.07443784462158,
0,0,0,1,0,1,0,0,star ,circle,0,0,0,0,2,10,34,10,,,,,,,,,,,,169.84063900401816,169.84063900401816,169.84063900401816,169.84063900401816,169.84063900401816,169.84063900401816,169.84063900401816,169.84063900401816,169.84063900401816,169.84063900401816,l,2.0295044539961964,1,215,0,171.89289328700397,173.39368120394647,,,,,,,,,,,,,,,,,,,,,13699,2022-11-10_13h52.18.329,vts_reward_expectancy_bt_OFFLINE,2022.2.4,60.07443784462158,
0,1,0,0,0,0,1,0,circle,hexagon,0,0,0,0,2,11,35,4,,,,,,,,,,,,173.8940595149761,173.8940595149761,173.8940595149761,173.8940595149761,173.8940595149761,173.8940595149761,173.8940595149761,173.8940595149761,173.8940595149761,173.8940595149761,a,1.3501608229707927,10,225,0,175.26420968596358,176.77850074600428,,,,,,,,,,,,,,,,,,,,,13699,2022-11-10_13h52.18.329,vts_reward_expectancy_bt_OFFLINE,2022.2.4,60.07443784462158,
0,0,0,1,0,0,1,0,star,hexagon,0,0,0,0,3,0,36,11,,,,,,,,,,,,177.27863695600536,177.27863695600536,177.27863695600536,177.27863695600536,177.27863695600536,177.27863695600536,177.27863695600536,177.27863695600536,177.27863695600536,177.27863695600536,a,1.3749480250990018,1,226,0,178.68172004597727,180.18146298499778,180.18146298499778,180.68169478105847,,,,,,,,,,,,,,,,,,,13699,2022-11-10_13h52.18.329,vts_reward_expectancy_bt_OFFLINE,2022.2.4,60.07443784462158,
1,0,0,0,0,0,0,1,triangle,star,0,0,0,0,3,1,37,2,,,,,,,,,,,,180.68169478105847,180.68169478105847,180.68169478105847,180.68169478105847,180.68169478105847,180.68169478105847,180.68169478105847,180.68169478105847,180.68169478105847,180.68169478105847,a,0.8190766150364652,10,236,0,181.53508260904346,183.05097313399892,,,,,,,,,,,,,,,,,,,,,13699,2022-11-10_13h52.18.329,vts_reward_expectancy_bt_OFFLINE,2022.2.4,60.07443784462158,
0,0,1,0,0,1,0,0,hexagon,circle,0,0,0,0,3,2,38,7,,,,,,,,,,,,183.55147265805863,183.55147265805863,183.55147265805863,183.55147265805863,183.55147265805863,183.55147265805863,183.55147265805863,183.55147265805863,183.55147265805863,183.55147265805863,l,1.098473352030851,1,237,0,184.66953180800192,186.16870212904178,186.16870212904178,186.6687709420221,,,,,,,,,,,,,,,,,,,13699,2022-11-10_13h52.18.329,vts_reward_expectancy_bt_OFFLINE,2022.2.4,60.07443784462158,
0,0,0,1,0,1,0,0,star ,circle,0,0,0,0,3,3,39,10,,,,,,,,,,,,186.6687709420221,186.6687709420221,186.6687709420221,186.6687709420221,186.6687709420221,186.6687709420221,186.6687709420221,186.6687709420221,186.6687709420221,186.6687709420221,a,0.626071336097084,1,238,0,187.3190768440254,188.82147100800648,,,,,,,,,,,,,,,,,,,,,13699,2022-11-10_13h52.18.329,vts_reward_expectancy_bt_OFFLINE,2022.2.4,60.07443784462158,
0,0,1,0,0,0,0,1,hexagon,star,0,0,0,0,3,4,40,8,,,,,,,,,,,,189.3217523220228,189.3217523220228,189.3217523220228,189.3217523220228,189.3217523220228,189.3217523220228,189.3217523220228,189.3217523220228,189.3217523220228,189.3217523220228,a,0.875326031120494,10,248,0,190.22309376497287,191.72269421303645,191.72269421303645,192.22261740802787,,,,,,,,,,,,,,,,,,,13699,2022-11-10_13h52.18.329,vts_reward_expectancy_bt_OFFLINE,2022.2.4,60.07443784462158,
1,0,0,0,0,0,1,0,triangle,hexagon,0,0,0,0,3,5,41,1,,,,,,,,,,,,192.22261740802787,192.22261740802787,192.22261740802787,192.22261740802787,192.22261740802787,192.22261740802787,192.22261740802787,192.22261740802787,192.22261740802787,192.22261740802787,a,1.1468158770585433,10,258,0,193.39171883894596,194.89221515099052,194.89221515099052,195.39215514902025,,,,,,,,,,,,,,,,,,,13699,2022-11-10_13h52.18.329,vts_reward_expectancy_bt_OFFLINE,2022.2.4,60.07443784462158,
1,0,0,0,0,1,0,0,triangle,circle,0,0,0,0,3,6,42,0,,,,,,,,,,,,195.39215514902025,195.39215514902025,195.39215514902025,195.39215514902025,195.39215514902025,195.39215514902025,195.39215514902025,195.39215514902025,195.39215514902025,195.39215514902025,l,1.2283271041233093,1,259,0,196.64403716498055,198.14516647800338,,,,,,,,,,,,,,,,,,,,,13699,2022-11-10_13h52.18.329,vts_reward_expectancy_bt_OFFLINE,2022.2.4,60.07443784462158,
0,1,0,0,1,0,0,0,circle,triangle,0,0,0,0,3,7,43,3,,,,,,,,,,,,198.64553695404902,198.64553695404902,198.64553695404902,198.64553695404902,198.64553695404902,198.64553695404902,198.64553695404902,198.64553695404902,198.64553695404902,198.64553695404902,l,0.6644789499696344,10,269,0,199.33028093795292,200.82946891803294,200.82946891803294,201.32959334505722,,,,,,,,,,,,,,,,,,,13699,2022-11-10_13h52.18.329,vts_reward_expectancy_bt_OFFLINE,2022.2.4,60.07443784462158,
0,1,0,0,0,0,0,1,circle,star,0,0,0,0,3,8,44,5,,,,,,,,,,,,201.32959334505722,201.32959334505722,201.32959334505722,201.32959334505722,201.32959334505722,201.32959334505722,201.32959334505722,201.32959334505722,201.32959334505722,201.32959334505722,a,2.423591498984024,1,270,0,203.78345234994777,205.2826638489496,205.2826638489496,205.7828829929931,,,,,,,,,,,,,,,,,,,13699,2022-11-10_13h52.18.329,vts_reward_expectancy_bt_OFFLINE,2022.2.4,60.07443784462158,
0,0,1,0,1,0,0,0,hexagon,triangle,0,0,0,0,3,9,45,6,,,,,,,,,,,,205.7828829929931,205.7828829929931,205.7828829929931,205.7828829929931,205.7828829929931,205.7828829929931,205.7828829929931,205.7828829929931,205.7828829929931,205.7828829929931,l,1.1429931280435994,10,280,0,206.9537709649885,208.45270605001133,,,,,,,,,,,,,,,,,,,,,13699,2022-11-10_13h52.18.329,vts_reward_expectancy_bt_OFFLINE,2022.2.4,60.07443784462158,
0,1,0,0,0,0,1,0,circle,hexagon,0,0,0,0,3,10,46,4,,,,,,,,,,,,208.9529045530362,208.9529045530362,208.9529045530362,208.9529045530362,208.9529045530362,208.9529045530362,208.9529045530362,208.9529045530362,208.9529045530362,208.9529045530362,a,2.2377769079757854,1,281,0,211.22143082797993,212.72271003294736,,,,,,,,,,,,,,,,,,,,,13699,2022-11-10_13h52.18.329,vts_reward_expectancy_bt_OFFLINE,2022.2.4,60.07443784462158,
0,0,0,1,1,0,0,0,star,triangle,0,0,0,0,3,11,47,9,,,,,,,,,,,,213.2230672009755,213.2230672009755,213.2230672009755,213.2230672009755,213.2230672009755,213.2230672009755,213.2230672009755,213.2230672009755,213.2230672009755,213.2230672009755,a,0.6788927939487621,1,282,0,213.92346778104547,215.4239872560138,215.4239872560138,215.9296941430075,,,,,,,,,,,,,,,,,,,13699,2022-11-10_13h52.18.329,vts_reward_expectancy_bt_OFFLINE,2022.2.4,60.07443784462158,
0,0,1,0,1,0,0,0,hexagon,triangle,1,0,1,0,0,0,0,6,,,,,,,,,,,,371.0804581430275,371.0804581430275,371.0804581430275,371.0804581430275,371.0804581430275,371.0804581430275,371.0804581430275,371.0804581430275,371.0804581430275,371.0804581430275,l,1.8485837311018258,1,283,1,372.95597796398215,374.45638227602467,374.45638227602467,374.9565933679696,,,,,,,,,,,,,,,,,,,13699,2022-11-10_13h52.18.329,vts_reward_expectancy_bt_OFFLINE,2022.2.4,60.07443784462158,
0,1,0,0,1,0,0,0,circle,triangle,1,0,1,0,0,1,1,3,,,,,,,,,,,,374.9565933679696,374.9565933679696,374.9565933679696,374.9565933679696,374.9565933679696,374.9565933679696,374.9565933679696,374.9565933679696,374.9565933679696,374.9565933679696,a,0.5375564381247386,1,284,1,375.5234567259904,377.02376170502976,377.02376170502976,377.5242845589528,,,,,,,,,,,,,,,,,,,13699,2022-11-10_13h52.18.329,vts_reward_expectancy_bt_OFFLINE,2022.2.4,60.07443784462158,
0,0,1,0,0,0,0,1,hexagon,star,1,0,1,0,0,2,2,8,,,,,,,,,,,,377.5242845589528,377.5242845589528,377.5242845589528,377.5242845589528,377.5242845589528,377.5242845589528,377.5242845589528,377.5242845589528,377.5242845589528,377.5242845589528,a,1.4691228360170498,10,294,1,379.0114156990312,380.52698139403947,,,,,,,,,,,,,,,,,,,,,13699,2022-11-10_13h52.18.329,vts_reward_expectancy_bt_OFFLINE,2022.2.4,60.07443784462158,
0,1,0,0,0,0,1,0,circle,hexagon,1,0,1,0,0,3,3,4,,,,,,,,,,,,381.02705441997387,381.02705441997387,381.02705441997387,381.02705441997387,381.02705441997387,381.02705441997387,381.02705441997387,381.02705441997387,381.02705441997387,381.02705441997387,l,0.9580649510025978,10,304,1,382.01110188895836,383.51325564901344,,,,,,,,,,,,,,,,,,,,,13699,2022-11-10_13h52.18.329,vts_reward_expectancy_bt_OFFLINE,2022.2.4,60.07443784462158,
0,0,0,1,1,0,0,0,star,triangle,1,0,1,0,0,4,4,9,,,,,,,,,,,,384.01364917703904,384.01364917703904,384.01364917703904,384.01364917703904,384.01364917703904,384.01364917703904,384.01364917703904,384.01364917703904,384.01364917703904,384.01364917703904,a,2.0001355740241706,1,305,1,386.03228368097916,387.54809511301573,,,,,,,,,,,,,,,,,,,,,13699,2022-11-10_13h52.18.329,vts_reward_expectancy_bt_OFFLINE,2022.2.4,60.07443784462158,
1,0,0,0,0,0,0,1,triangle,star,1,0,1,0,0,5,5,2,,,,,,,,,,,,388.03344312903937,388.03344312903937,388.03344312903937,388.03344312903937,388.03344312903937,388.03344312903937,388.03344312903937,388.03344312903937,388.03344312903937,388.03344312903937,l,1.0281329030403867,1,306,1,389.0837112800218,390.5842322850367,390.5842322850367,,,,,,,,,,,,,,,,,,,,13699,2022-11-10_13h52.18.329,vts_reward_expectancy_bt_OFFLINE,2022.2.4,60.07443784462158,
1,0,0,0,0,1,0,0,triangle,circle,1,0,1,0,0,6,6,0,,,,,,,,,,,,391.0844294669805,391.0844294669805,391.0844294669805,391.0844294669805,391.0844294669805,391.0844294669805,391.0844294669805,391.0844294669805,391.0844294669805,391.0844294669805,a,1.6558476571226493,10,316,1,392.77202133403625,394.2874260969693,,,,,,,,,,,,,,,,,,,,,13699,2022-11-10_13h52.18.329,vts_reward_expectancy_bt_OFFLINE,2022.2.4,60.07443784462158,
0,0,1,0,0,1,0,0,hexagon,circle,1,0,1,0,0,7,7,7,,,,,,,,,,,,394.78769398096483,394.78769398096483,394.78769398096483,394.78769398096483,394.78769398096483,394.78769398096483,394.78769398096483,394.78769398096483,394.78769398096483,394.78769398096483,a,0.7997598950751126,1,317,1,395.606344743981,397.1217377439607,,,,,,,,,,,,,,,,,,,,,13699,2022-11-10_13h52.18.329,vts_reward_expectancy_bt_OFFLINE,2022.2.4,60.07443784462158,
0,0,0,1,0,0,1,0,star,hexagon,1,0,1,0,0,8,8,11,,,,,,,,,,,,397.6111490520416,397.6111490520416,397.6111490520416,397.6111490520416,397.6111490520416,397.6111490520416,397.6111490520416,397.6111490520416,397.6111490520416,397.6111490520416,a,1.295683820033446,1,318,1,398.92441477801185,400.42473407799844,400.42473407799844,400.9251574049704,,,,,,,,,,,,,,,,,,,13699,2022-11-10_13h52.18.329,vts_reward_expectancy_bt_OFFLINE,2022.2.4,60.07443784462158,
1,0,0,0,0,0,1,0,triangle,hexagon,1,0,1,0,0,9,9,1,,,,,,,,,,,,400.9251574049704,400.9251574049704,400.9251574049704,400.9251574049704,400.9251574049704,400.9251574049704,400.9251574049704,400.9251574049704,400.9251574049704,400.9251574049704,a,1.2544109619921073,1,319,1,402.20898003701586,403.71170229499694,,,,,,,,,,,,,,,,,,,,,13699,2022-11-10_13h52.18.329,vts_reward_expectancy_bt_OFFLINE,2022.2.4,60.07443784462158,
0,0,0,1,0,1,0,0,star ,circle,1,0,1,0,0,10,10,10,,,,,,,,,,,,404.21161690400913,404.21161690400913,404.21161690400913,404.21161690400913,404.21161690400913,404.21161690400913,404.21161690400913,404.21161690400913,404.21161690400913,404.21161690400913,l,1.5119326470885426,1,320,1,405.7450876029907,407.245819180971,407.245819180971,,,,,,,,,,,,,,,,,,,,13699,2022-11-10_13h52.18.329,vts_reward_expectancy_bt_OFFLINE,2022.2.4,60.07443784462158,
0,1,0,0,0,0,0,1,circle,star,1,0,1,0,0,11,11,5,,,,,,,,,,,,407.7476911259582,407.7476911259582,407.7476911259582,407.7476911259582,407.7476911259582,407.7476911259582,407.7476911259582,407.7476911259582,407.7476911259582,407.7476911259582,l,1.04818904097192,1,321,1,408.81495600997005,410.315619747038,410.315619747038,410.8157143020071,,,,,,,,,,,,,,,,,,,13699,2022-11-10_13h52.18.329,vts_reward_expectancy_bt_OFFLINE,2022.2.4,60.07443784462158,
1,0,0,0,0,0,1,0,triangle,hexagon,1,0,1,0,1,0,12,1,,,,,,,,,,,,410.8157143020071,410.8157143020071,410.8157143020071,410.8157143020071,410.8157143020071,410.8157143020071,410.8157143020071,410.8157143020071,410.8157143020071,410.8157143020071,a,1.7596403940115124,10,331,1,412.599205518025,414.10199089802336,,,,,,,,,,,,,,,,,,,,,13699,2022-11-10_13h52.18.329,vts_reward_expectancy_bt_OFFLINE,2022.2.4,60.07443784462158,
0,0,0,1,1,0,0,0,star,triangle,1,0,1,0,1,1,13,9,,,,,,,,,,,,414.6021937789628,414.6021937789628,414.6021937789628,414.6021937789628,414.6021937789628,414.6021937789628,414.6021937789628,414.6021937789628,414.6021937789628,414.6021937789628,l,2.620229996042326,10,341,1,417.25302384002134,418.7553740560543,,,,,,,,,,,,,,,,,,,,,13699,2022-11-10_13h52.18.329,vts_reward_expectancy_bt_OFFLINE,2022.2.4,60.07443784462158,
0,0,0,1,0,0,1,0,star,hexagon,1,0,1,0,1,2,14,11,,,,,,,,,,,,419.2558440710418,419.2558440710418,419.2558440710418,419.2558440710418,419.2558440710418,419.2558440710418,419.2558440710418,419.2558440710418,419.2558440710418,419.2558440710418,l,4.3571776991011575,10,351,1,423.64221771399025,425.14302846801,425.14302846801,425.6430750170257,,,,,,,,,,,,,,,,,,,13699,2022-11-10_13h52.18.329,vts_reward_expectancy_bt_OFFLINE,2022.2.4,60.07443784462158,
1,0,0,0,0,0,0,1,triangle,star,1,0,1,0,1,3,15,2,,,,,,,,,,,,425.6430750170257,425.6430750170257,425.6430750170257,425.6430750170257,425.6430750170257,425.6430750170257,425.6430750170257,425.6430750170257,425.6430750170257,425.6430750170257,a,1.0178260530810803,10,361,1,426.69363564101513,428.1958076090086,,,,,,,,,,,,,,,,,,,,,13699,2022-11-10_13h52.18.329,vts_reward_expectancy_bt_OFFLINE,2022.2.4,60.07443784462158,
0,1,0,0,1,0,0,0,circle,triangle,1,0,1,0,1,4,16,3,,,,,,,,,,,,428.6961042339681,428.6961042339681,428.6961042339681,428.6961042339681,428.6961042339681,428.6961042339681,428.6961042339681,428.6961042339681,428.6961042339681,428.6961042339681,l,2.926507735042833,1,362,1,431.6489662770182,433.14954737294465,,,,,,,,,,,,,,,,,,,,,13699,2022-11-10_13h52.18.329,vts_reward_expectancy_bt_OFFLINE,2022.2.4,60.07443784462158,
1,0,0,0,0,1,0,0,triangle,circle,1,0,1,0,1,5,17,0,,,,,,,,,,,,433.6496644599829,433.6496644599829,433.6496644599829,433.6496644599829,433.6496644599829,433.6496644599829,433.6496644599829,433.6496644599829,433.6496644599829,433.6496644599829,l,0.9769271410768852,1,363,1,434.6527092329925,436.167252426967,,,,,,,,,,,,,,,,,,,,,13699,2022-11-10_13h52.18.329,vts_reward_expectancy_bt_OFFLINE,2022.2.4,60.07443784462158,
0,0,0,1,0,1,0,0,star ,circle,1,0,1,0,1,6,18,10,,,,,,,,,,,,436.65085432794876,436.65085432794876,436.65085432794876,436.65085432794876,436.65085432794876,436.65085432794876,436.65085432794876,436.65085432794876,436.65085432794876,436.65085432794876,l,2.171751967049204,1,364,1,438.85336916998494,440.3540136930533,440.3540136930533,440.85418099700473,,,,,,,,,,,,,,,,,,,13699,2022-11-10_13h52.18.329,vts_reward_expectancy_bt_OFFLINE,2022.2.4,60.07443784462158,
0,1,0,0,0,0,0,1,circle,star,1,0,1,0,1,7,19,5,,,,,,,,,,,,440.85418099700473,440.85418099700473,440.85418099700473,440.85418099700473,440.85418099700473,440.85418099700473,440.85418099700473,440.85418099700473,440.85418099700473,440.85418099700473,l,1.0974327330477536,1,365,1,441.9710377550218,443.4735680100275,,,,,,,,,,,,,,,,,,,,,13699,2022-11-10_13h52.18.329,vts_reward_expectancy_bt_OFFLINE,2022.2.4,60.07443784462158,
0,1,0,0,0,0,1,0,circle,hexagon,1,0,1,0,1,8,20,4,,,,,,,,,,,,443.973823909997,443.973823909997,443.973823909997,443.973823909997,443.973823909997,443.973823909997,443.973823909997,443.973823909997,443.973823909997,443.973823909997,l,1.205530607025139,1,366,1,445.2075339820003,446.70805897400714,446.70805897400714,447.2080557390582,,,,,,,,,,,,,,,,,,,13699,2022-11-10_13h52.18.329,vts_reward_expectancy_bt_OFFLINE,2022.2.4,60.07443784462158,
0,0,1,0,1,0,0,0,hexagon,triangle,1,0,1,0,1,9,21,6,,,,,,,,,,,,447.2080557390582,447.2080557390582,447.2080557390582,447.2080557390582,447.2080557390582,447.2080557390582,447.2080557390582,447.2080557390582,447.2080557390582,447.2080557390582,a,1.1550875890534371,10,376,1,448.39546939497814,449.8946918019792,,,,,,,,,,,,,,,,,,,,,13699,2022-11-10_13h52.18.329,vts_reward_expectancy_bt_OFFLINE,2022.2.4,60.07443784462158,
0,0,1,0,0,0,0,1,hexagon,star,1,0,1,0,1,10,22,8,,,,,,,,,,,,450.3948361539515,450.3948361539515,450.3948361539515,450.3948361539515,450.3948361539515,450.3948361539515,450.3948361539515,450.3948361539515,450.3948361539515,450.3948361539515,l,2.525150589994155,1,377,1,452.9487191529479,454.4481562760193,454.4481562760193,,,,,,,,,,,,,,,,,,,,13699,2022-11-10_13h52.18.329,vts_reward_expectancy_bt_OFFLINE,2022.2.4,60.07443784462158,
0,0,1,0,0,1,0,0,hexagon,circle,1,0,1,0,1,11,23,7,,,,,,,,,,,,454.94858719594777,454.94858719594777,454.94858719594777,454.94858719594777,454.94858719594777,454.94858719594777,454.94858719594777,454.94858719594777,454.94858719594777,454.94858719594777,l,0.7281050219899043,1,378,1,455.6983798169531,457.1989790640073,457.1989790640073,,,,,,,,,,,,,,,,,,,,13699,2022-11-10_13h52.18.329,vts_reward_expectancy_bt_OFFLINE,2022.2.4,60.07443784462158,
0,0,0,1,1,0,0,0,star,triangle,1,0,1,0,2,0,24,9,,,,,,,,,,,,457.70118924905546,457.70118924905546,457.70118924905546,457.70118924905546,457.70118924905546,457.70118924905546,457.70118924905546,457.70118924905546,457.70118924905546,457.70118924905546,l,1.148053500102833,10,388,1,458.8698284799466,460.38509136403445,,,,,,,,,,,,,,,,,,,,,13699,2022-11-10_13h52.18.329,vts_reward_expectancy_bt_OFFLINE,2022.2.4,60.07443784462158,
0,0,1,0,1,0,0,0,hexagon,triangle,1,0,1,0,2,1,25,6,,,,,,,,,,,,460.88501209404785,460.88501209404785,460.88501209404785,460.88501209404785,460.88501209404785,460.88501209404785,460.88501209404785,460.88501209404785,460.88501209404785,460.88501209404785,a,0.5861306140432134,10,398,1,461.5025823189644,463.0048216599971,,,,,,,,,,,,,,,,,,,,,13699,2022-11-10_13h52.18.329,vts_reward_expectancy_bt_OFFLINE,2022.2.4,60.07443784462158,
1,0,0,0,0,0,0,1,triangle,star,1,0,1,0,2,2,26,2,,,,,,,,,,,,463.5050285049947,463.5050285049947,463.5050285049947,463.5050285049947,463.5050285049947,463.5050285049947,463.5050285049947,463.5050285049947,463.5050285049947,463.5050285049947,a,1.047732208040543,10,408,1,464.57178546499927,466.0725364650134,466.0725364650134,466.5724953679601,,,,,,,,,,,,,,,,,,,13699,2022-11-10_13h52.18.329,vts_reward_expectancy_bt_OFFLINE,2022.2.4,60.07443784462158,
0,1,0,0,0,0,0,1,circle,star,1,0,1,0,2,3,27,5,,,,,,,,,,,,466.5724953679601,466.5724953679601,466.5724953679601,466.5724953679601,466.5724953679601,466.5724953679601,466.5724953679601,466.5724953679601,466.5724953679601,466.5724953679601,l,1.423799577052705,1,409,1,468.0268294509733,469.54213356703985,,,,,,,,,,,,,,,,,,,,,13699,2022-11-10_13h52.18.329,vts_reward_expectancy_bt_OFFLINE,2022.2.4,60.07443784462158,
0,1,0,0,1,0,0,0,circle,triangle,1,0,1,0,2,4,28,3,,,,,,,,,,,,470.04235035798047,470.04235035798047,470.04235035798047,470.04235035798047,470.04235035798047,470.04235035798047,470.04235035798047,470.04235035798047,470.04235035798047,470.04235035798047,l,0.9806442930130288,10,419,1,471.0442263650475,472.5433434540173,472.5433434540173,,,,,,,,,,,,,,,,,,,,13699,2022-11-10_13h52.18.329,vts_reward_expectancy_bt_OFFLINE,2022.2.4,60.07443784462158,
0,0,1,0,0,1,0,0,hexagon,circle,1,0,1,0,2,5,29,7,,,,,,,,,,,,473.0452628839994,473.0452628839994,473.0452628839994,473.0452628839994,473.0452628839994,473.0452628839994,473.0452628839994,473.0452628839994,473.0452628839994,473.0452628839994,a,1.4307562080211937,10,429,1,474.49560238805134,475.996169546037,475.996169546037,476.496486898046,,,,,,,,,,,,,,,,,,,13699,2022-11-10_13h52.18.329,vts_reward_expectancy_bt_OFFLINE,2022.2.4,60.07443784462158,
1,0,0,0,0,1,0,0,triangle,circle,1,0,1,0,2,6,30,0,,,,,,,,,,,,476.496486898046,476.496486898046,476.496486898046,476.496486898046,476.496486898046,476.496486898046,476.496486898046,476.496486898046,476.496486898046,476.496486898046,a,0.7925086700124666,10,439,1,477.3136083240388,478.8160927289864,,,,,,,,,,,,,,,,,,,,,13699,2022-11-10_13h52.18.329,vts_reward_expectancy_bt_OFFLINE,2022.2.4,60.07443784462158,
0,0,0,1,0,0,1,0,star,hexagon,1,0,1,0,2,7,31,11,,,,,,,,,,,,479.31621558906045,479.31621558906045,479.31621558906045,479.31621558906045,479.31621558906045,479.31621558906045,479.31621558906045,479.31621558906045,479.31621558906045,479.31621558906045,l,1.2356824050657451,10,449,1,480.5828163139522,482.08370543899946,482.08370543899946,482.5839242490474,,,,,,,,,,,,,,,,,,,13699,2022-11-10_13h52.18.329,vts_reward_expectancy_bt_OFFLINE,2022.2.4,60.07443784462158,
0,1,0,0,0,0,1,0,circle,hexagon,1,0,1,0,2,8,32,4,,,,,,,,,,,,482.5839242490474,482.5839242490474,482.5839242490474,482.5839242490474,482.5839242490474,482.5839242490474,482.5839242490474,482.5839242490474,482.5839242490474,482.5839242490474,l,0.6109672801103443,10,459,1,483.2194385170005,484.7201005090028,484.7201005090028,485.22017476405017,,,,,,,,,,,,,,,,,,,13699,2022-11-10_13h52.18.329,vts_reward_expectancy_bt_OFFLINE,2022.2.4,60.07443784462158,
0,0,0,1,0,1,0,0,star ,circle,1,0,1,0,2,9,33,10,,,,,,,,,,,,485.22017476405017,485.22017476405017,485.22017476405017,485.22017476405017,485.22017476405017,485.22017476405017,485.22017476405017,485.22017476405017,485.22017476405017,485.22017476405017,l,0.6309952520532534,1,460,1,485.87220588501077,487.38728100596927,,,,,,,,,,,,,,,,,,,,,13699,2022-11-10_13h52.18.329,vts_reward_expectancy_bt_OFFLINE,2022.2.4,60.07443784462158,
0,0,1,0,0,0,0,1,hexagon,star,1,0,1,0,2,10,34,8,,,,,,,,,,,,487.873028386035,487.873028386035,487.873028386035,487.873028386035,487.873028386035,487.873028386035,487.873028386035,487.873028386035,487.873028386035,487.873028386035,a,0.5307751171058044,10,470,1,488.42503963201307,489.9402158310404,,,,,,,,,,,,,,,,,,,,,13699,2022-11-10_13h52.18.329,vts_reward_expectancy_bt_OFFLINE,2022.2.4,60.07443784462158,
1,0,0,0,0,0,1,0,triangle,hexagon,1,0,1,0,2,11,35,1,,,,,,,,,,,,490.4400441349717,490.4400441349717,490.4400441349717,490.4400441349717,490.4400441349717,490.4400441349717,490.4400441349717,490.4400441349717,490.4400441349717,490.4400441349717,l,0.619524703011848,10,480,1,491.0904874999542,492.59108550997917,492.59108550997917,,,,,,,,,,,,,,,,,,,,13699,2022-11-10_13h52.18.329,vts_reward_expectancy_bt_OFFLINE,2022.2.4,60.07443784462158,
1,0,0,0,0,0,1,0,triangle,hexagon,1,0,1,0,3,0,36,1,,,,,,,,,,,,493.09293958498165,493.09293958498165,493.09293958498165,493.09293958498165,493.09293958498165,493.09293958498165,493.09293958498165,493.09293958498165,493.09293958498165,493.09293958498165,l,0.4758060280000791,10,490,1,493.5936864820542,495.09383105300367,495.09383105300367,495.59403058397584,,,,,,,,,,,,,,,,,,,13699,2022-11-10_13h52.18.329,vts_reward_expectancy_bt_OFFLINE,2022.2.4,60.07443784462158,
1,0,0,0,0,0,0,1,triangle,star,1,0,1,0,3,1,37,2,,,,,,,,,,,,495.59403058397584,495.59403058397584,495.59403058397584,495.59403058397584,495.59403058397584,495.59403058397584,495.59403058397584,495.59403058397584,495.59403058397584,495.59403058397584,a,1.563135722070001,10,500,1,497.1779266690137,498.6804312419845,,,,,,,,,,,,,,,,,,,,,13699,2022-11-10_13h52.18.329,vts_reward_expectancy_bt_OFFLINE,2022.2.4,60.07443784462158,
0,0,1,0,1,0,0,0,hexagon,triangle,1,0,1,0,3,2,38,6,,,,,,,,,,,,499.18067585502286,499.18067585502286,499.18067585502286,499.18067585502286,499.18067585502286,499.18067585502286,499.18067585502286,499.18067585502286,499.18067585502286,499.18067585502286,l,0.5191563450498506,10,510,1,499.73109730903525,501.23130692902487,501.23130692902487,501.7318000260275,,,,,,,,,,,,,,,,,,,13699,2022-11-10_13h52.18.329,vts_reward_expectancy_bt_OFFLINE,2022.2.4,60.07443784462158,
0,1,0,0,1,0,0,0,circle,triangle,1,0,1,0,3,3,39,3,,,,,,,,,,,,501.7318000260275,501.7318000260275,501.7318000260275,501.7318000260275,501.7318000260275,501.7318000260275,501.7318000260275,501.7318000260275,501.7318000260275,501.7318000260275,l,0.5327907500322908,1,511,1,502.2840255900519,503.78420135600027,,,,,,,,,,,,,,,,,,,,,13699,2022-11-10_13h52.18.329,vts_reward_expectancy_bt_OFFLINE,2022.2.4,60.07443784462158,
0,0,1,0,0,0,0,1,hexagon,star,1,0,1,0,3,4,40,8,,,,,,,,,,,,504.28438274003565,504.28438274003565,504.28438274003565,504.28438274003565,504.28438274003565,504.28438274003565,504.28438274003565,504.28438274003565,504.28438274003565,504.28438274003565,a,0.48922574310563505,10,521,1,504.8032071030466,506.3180603450164,,,,,,,,,,,,,,,,,,,,,13699,2022-11-10_13h52.18.329,vts_reward_expectancy_bt_OFFLINE,2022.2.4,60.07443784462158,
0,0,0,1,0,1,0,0,star ,circle,1,0,1,0,3,5,41,10,,,,,,,,,,,,506.8185270000249,506.8185270000249,506.8185270000249,506.8185270000249,506.8185270000249,506.8185270000249,506.8185270000249,506.8185270000249,506.8185270000249,506.8185270000249,l,0.6103028790093958,1,522,1,507.4542588449549,508.9542954020435,,,,,,,,,,,,,,,,,,,,,13699,2022-11-10_13h52.18.329,vts_reward_expectancy_bt_OFFLINE,2022.2.4,60.07443784462158,
0,0,0,1,0,0,1,0,star,hexagon,1,0,1,0,3,6,42,11,,,,,,,,,,,,509.4546114279656,509.4546114279656,509.4546114279656,509.4546114279656,509.4546114279656,509.4546114279656,509.4546114279656,509.4546114279656,509.4546114279656,509.4546114279656,a,0.516848441096954,1,523,1,509.98876338195987,511.4890556089813,511.4890556089813,511.98905774205923,,,,,,,,,,,,,,,,,,,13699,2022-11-10_13h52.18.329,vts_reward_expectancy_bt_OFFLINE,2022.2.4,60.07443784462158,
0,0,0,1,1,0,0,0,star,triangle,1,0,1,0,3,7,43,9,,,,,,,,,,,,511.98905774205923,511.98905774205923,511.98905774205923,511.98905774205923,511.98905774205923,511.98905774205923,511.98905774205923,511.98905774205923,511.98905774205923,511.98905774205923,l,0.5024618530878797,10,533,1,512.5224126570392,514.024676747038,,,,,,,,,,,,,,,,,,,,,13699,2022-11-10_13h52.18.329,vts_reward_expectancy_bt_OFFLINE,2022.2.4,60.07443784462158,
0,0,1,0,0,1,0,0,hexagon,circle,1,0,1,0,3,8,44,7,,,,,,,,,,,,514.5248247339623,514.5248247339623,514.5248247339623,514.5248247339623,514.5248247339623,514.5248247339623,514.5248247339623,514.5248247339623,514.5248247339623,514.5248247339623,l,0.5203394159907475,1,534,1,515.0770076629706,516.5926152609754,,,,,,,,,,,,,,,,,,,,,13699,2022-11-10_13h52.18.329,vts_reward_expectancy_bt_OFFLINE,2022.2.4,60.07443784462158,
0,1,0,0,0,0,0,1,circle,star,1,0,1,0,3,9,45,5,,,,,,,,,,,,517.0925450320356,517.0925450320356,517.0925450320356,517.0925450320356,517.0925450320356,517.0925450320356,517.0925450320356,517.0925450320356,517.0925450320356,517.0925450320356,l,1.0584691349649802,1,535,1,518.1779011229519,519.6783374069491,519.6783374069491,520.1788462379482,,,,,,,,,,,,,,,,,,,13699,2022-11-10_13h52.18.329,vts_reward_expectancy_bt_OFFLINE,2022.2.4,60.07443784462158,
1,0,0,0,0,1,0,0,triangle,circle,1,0,1,0,3,10,46,0,,,,,,,,,,,,520.1788462379482,520.1788462379482,520.1788462379482,520.1788462379482,520.1788462379482,520.1788462379482,520.1788462379482,520.1788462379482,520.1788462379482,520.1788462379482,a,0.5591235511237755,10,545,1,520.7648351329844,522.2795987470308,,,,,,,,,,,,,,,,,,,,,13699,2022-11-10_13h52.18.329,vts_reward_expectancy_bt_OFFLINE,2022.2.4,60.07443784462158,
0,1,0,0,0,0,1,0,circle,hexagon,1,0,1,0,3,11,47,4,,,,,,,,,,,,522.7649572240189,522.7649572240189,522.7649572240189,522.7649572240189,522.7649572240189,522.7649572240189,522.7649572240189,522.7649572240189,522.7649572240189,522.7649572240189,l,1.1913787070661783,10,555,1,523.9822948189685,525.4823503430234,525.4823503430234,525.9884862119798,,,,,,,,,,,,,,,,,,,13699,2022-11-10_13h52.18.329,vts_reward_expectancy_bt_OFFLINE,2022.2.4,60.07443784462158,
1,0,0,0,0,0,0,1,triangle,star,2,0,2,0,0,0,0,2,,,,,,,,,,,,529.3472703259904,529.3472703259904,529.3472703259904,529.3472703259904,529.3472703259904,529.3472703259904,529.3472703259904,529.3472703259904,529.3472703259904,529.3472703259904,a,1.3819083260605112,10,565,2,530.7533160509774,532.2534466510406,532.2534466510406,,,,,,,,,,,,,,,,,,,,13699,2022-11-10_13h52.18.329,vts_reward_expectancy_bt_OFFLINE,2022.2.4,60.07443784462158,
0,0,0,1,0,0,1,0,star,hexagon,2,0,2,0,0,1,1,11,,,,,,,,,,,,532.7556997110369,532.7556997110369,532.7556997110369,532.7556997110369,532.7556997110369,532.7556997110369,532.7556997110369,532.7556997110369,532.7556997110369,532.7556997110369,l,1.0104708230355754,1,566,2,533.7913375160424,535.3068089979934,,,,,,,,,,,,,,,,,,,,,13699,2022-11-10_13h52.18.329,vts_reward_expectancy_bt_OFFLINE,2022.2.4,60.07443784462158,
0,1,0,0,0,0,1,0,circle,hexagon,2,0,2,0,0,2,2,4,,,,,,,,,,,,535.8067894780543,535.8067894780543,535.8067894780543,535.8067894780543,535.8067894780543,535.8067894780543,535.8067894780543,535.8067894780543,535.8067894780543,535.8067894780543,l,0.8506514651235193,10,576,2,536.6907633719966,538.1923456819495,538.1923456819495,538.6929205920314,,,,,,,,,,,,,,,,,,,13699,2022-11-10_13h52.18.329,vts_reward_expectancy_bt_OFFLINE,2022.2.4,60.07443784462158,
1,0,0,0,0,0,1,0,triangle,hexagon,2,0,2,0,0,3,3,1,,,,,,,,,,,,538.6929205920314,538.6929205920314,538.6929205920314,538.6929205920314,538.6929205920314,538.6929205920314,538.6929205920314,538.6929205920314,538.6929205920314,538.6929205920314,a,0.7771870261058211,1,577,2,539.4954526179936,541.0102585280547,,,,,,,,,,,,,,,,,,,,,13699,2022-11-10_13h52.18.329,vts_reward_expectancy_bt_OFFLINE,2022.2.4,60.07443784462158,
0,0,1,0,0,1,0,0,hexagon,circle,2,0,2,0,0,4,4,7,,,,,,,,,,,,541.5107087140204,541.5107087140204,541.5107087140204,541.5107087140204,541.5107087140204,541.5107087140204,541.5107087140204,541.5107087140204,541.5107087140204,541.5107087140204,a,5.126003755023703,10,587,2,546.6667049529497,548.1668158939574,,,,,,,,,,,,,,,,,,,,,13699,2022-11-10_13h52.18.329,vts_reward_expectancy_bt_OFFLINE,2022.2.4,60.07443784462158,
0,0,0,1,1,0,0,0,star,triangle,2,0,2,0,0,5,5,9,,,,,,,,,,,,548.6669036919484,548.6669036919484,548.6669036919484,548.6669036919484,548.6669036919484,548.6669036919484,548.6669036919484,548.6669036919484,548.6669036919484,548.6669036919484,a,1.3564663780853152,1,588,2,550.0526761079673,551.568072768976,,,,,,,,,,,,,,,,,,,,,13699,2022-11-10_13h52.18.329,vts_reward_expectancy_bt_OFFLINE,2022.2.4,60.07443784462158,
0,0,1,0,1,0,0,0,hexagon,triangle,2,0,2,0,0,6,6,6,,,,,,,,,,,,552.0512826150516,552.0512826150516,552.0512826150516,552.0512826150516,552.0512826150516,552.0512826150516,552.0512826150516,552.0512826150516,552.0512826150516,552.0512826150516,a,0.5484736469807103,10,598,2,552.6206952549983,554.1210073289694,,,,,,,,,,,,,,,,,,,,,13699,2022-11-10_13h52.18.329,vts_reward_expectancy_bt_OFFLINE,2022.2.4,60.07443784462158,
0,1,0,0,0,0,0,1,circle,star,2,0,2,0,0,7,7,5,,,,,,,,,,,,554.6212113699876,554.6212113699876,554.6212113699876,554.6212113699876,554.6212113699876,554.6212113699876,554.6212113699876,554.6212113699876,554.6212113699876,554.6212113699876,l,0.6562861950369552,1,599,2,555.3066459499532,556.8216184990015,,,,,,,,,,,,,,,,,,,,,13699,2022-11-10_13h52.18.329,vts_reward_expectancy_bt_OFFLINE,2022.2.4,60.07443784462158,
1,0,0,0,0,1,0,0,triangle,circle,2,0,2,0,0,8,8,0,,,,,,,,,,,,557.3220762490528,557.3220762490528,557.3220762490528,557.3220762490528,557.3220762490528,557.3220762490528,557.3220762490528,557.3220762490528,557.3220762490528,557.3220762490528,a,0.7239779060473666,1,600,2,558.0741364579881,559.5744102080353,559.5744102080353,,,,,,,,,,,,,,,,,,,,13699,2022-11-10_13h52.18.329,vts_reward_expectancy_bt_OFFLINE,2022.2.4,60.07443784462158,
0,0,1,0,0,0,0,1,hexagon,star,2,0,2,0,0,9,9,8,,,,,,,,,,,,560.0747087190393,560.0747087190393,560.0747087190393,560.0747087190393,560.0747087190393,560.0747087190393,560.0747087190393,560.0747087190393,560.0747087190393,560.0747087190393,a,0.9742125539341941,10,610,2,561.0770626029698,562.5919836380053,,,,,,,,,,,,,,,,,,,,,13699,2022-11-10_13h52.18.329,vts_reward_expectancy_bt_OFFLINE,2022.2.4,60.07443784462158,
0,0,0,1,0,1,0,0,star ,circle,2,0,2,0,0,10,10,10,,,,,,,,,,,,563.0775074330159,563.0775074330159,563.0775074330159,563.0775074330159,563.0775074330159,563.0775074330159,563.0775074330159,563.0775074330159,563.0775074330159,563.0775074330159,a,0.6262448150664568,10,620,2,563.7280343220336,565.2284896050114,565.2284896050114,565.7283369420329,,,,,,,,,,,,,,,,,,,13699,2022-11-10_13h52.18.329,vts_reward_expectancy_bt_OFFLINE,2022.2.4,60.07443784462158,
0,1,0,0,1,0,0,0,circle,triangle,2,0,2,0,0,11,11,3,,,,,,,,,,,,565.7283369420329,565.7283369420329,565.7283369420329,565.7283369420329,565.7283369420329,565.7283369420329,565.7283369420329,565.7283369420329,565.7283369420329,565.7283369420329,l,0.6981209319783375,10,630,2,566.4458825200563,567.9476957640145,,,,,,,,,,,,,,,,,,,,,13699,2022-11-10_13h52.18.329,vts_reward_expectancy_bt_OFFLINE,2022.2.4,60.07443784462158,
0,0,1,0,0,0,0,1,hexagon,star,2,0,2,0,1,0,12,8,,,,,,,,,,,,568.4476368429605,568.4476368429605,568.4476368429605,568.4476368429605,568.4476368429605,568.4476368429605,568.4476368429605,568.4476368429605,568.4476368429605,568.4476368429605,l,0.6789258740609512,1,631,2,569.1507742940448,570.6652089309646,,,,,,,,,,,,,,,,,,,,,13699,2022-11-10_13h52.18.329,vts_reward_expectancy_bt_OFFLINE,2022.2.4,60.07443784462158,
0,0,0,1,0,1,0,0,star ,circle,2,0,2,0,1,1,13,10,,,,,,,,,,,,571.1653055719798,571.1653055719798,571.1653055719798,571.1653055719798,571.1653055719798,571.1653055719798,571.1653055719798,571.1653055719798,571.1653055719798,571.1653055719798,a,1.5733338609570637,1,632,2,572.7684898220468,574.268343799049,574.268343799049,574.7684932219563,,,,,,,,,,,,,,,,,,,13699,2022-11-10_13h52.18.329,vts_reward_expectancy_bt_OFFLINE,2022.2.4,60.07443784462158,
0,0,0,1,0,0,1,0,star,hexagon,2,0,2,0,1,2,14,11,,,,,,,,,,,,574.7684932219563,574.7684932219563,574.7684932219563,574.7684932219563,574.7684932219563,574.7684932219563,574.7684932219563,574.7684932219563,574.7684932219563,574.7684932219563,l,0.6026693250751123,10,642,2,575.4028343290556,576.902990721981,576.902990721981,577.4029581029899,,,,,,,,,,,,,,,,,,,13699,2022-11-10_13h52.18.329,vts_reward_expectancy_bt_OFFLINE,2022.2.4,60.07443784462158,
0,1,0,0,0,0,0,1,circle,star,2,0,2,0,1,3,15,5,,,,,,,,,,,,577.4029581029899,577.4029581029899,577.4029581029899,577.4029581029899,577.4029581029899,577.4029581029899,577.4029581029899,577.4029581029899,577.4029581029899,577.4029581029899,l,2.8395256879739463,1,643,2,580.2748977680458,581.7900853089523,,,,,,,,,,,,,,,,,,,,,13699,2022-11-10_13h52.18.329,vts_reward_expectancy_bt_OFFLINE,2022.2.4,60.07443784462158,
0,0,0,1,1,0,0,0,star,triangle,2,0,2,0,1,4,16,9,,,,,,,,,,,,582.2898120119935,582.2898120119935,582.2898120119935,582.2898120119935,582.2898120119935,582.2898120119935,582.2898120119935,582.2898120119935,582.2898120119935,582.2898120119935,l,1.046661457978189,10,653,2,583.3611837549834,584.8756990729598,,,,,,,,,,,,,,,,,,,,,13699,2022-11-10_13h52.18.329,vts_reward_expectancy_bt_OFFLINE,2022.2.4,60.07443784462158,
0,1,0,0,1,0,0,0,circle,triangle,2,0,2,0,1,5,17,3,,,,,,,,,,,,585.376089025056,585.376089025056,585.376089025056,585.376089025056,585.376089025056,585.376089025056,585.376089025056,585.376089025056,585.376089025056,585.376089025056,l,0.9423277180176228,10,663,2,586.3433453580365,587.8457576229703,,,,,,,,,,,,,,,,,,,,,13699,2022-11-10_13h52.18.329,vts_reward_expectancy_bt_OFFLINE,2022.2.4,60.07443784462158,
0,0,1,0,0,1,0,0,hexagon,circle,2,0,2,0,1,6,18,7,,,,,,,,,,,,588.3459646040574,588.3459646040574,588.3459646040574,588.3459646040574,588.3459646040574,588.3459646040574,588.3459646040574,588.3459646040574,588.3459646040574,588.3459646040574,a,0.6379274260252714,1,664,2,589.0150136679877,590.5302415849874,,,,,,,,,,,,,,,,,,,,,13699,2022-11-10_13h52.18.329,vts_reward_expectancy_bt_OFFLINE,2022.2.4,60.07443784462158,
1,0,0,0,0,1,0,0,triangle,circle,2,0,2,0,1,7,19,0,,,,,,,,,,,,591.0298506900435,591.0298506900435,591.0298506900435,591.0298506900435,591.0298506900435,591.0298506900435,591.0298506900435,591.0298506900435,591.0298506900435,591.0298506900435,l,1.048140206024982,1,665,2,592.0973449229496,593.5995428439928,,,,,,,,,,,,,,,,,,,,,13699,2022-11-10_13h52.18.329,vts_reward_expectancy_bt_OFFLINE,2022.2.4,60.07443784462158,
0,1,0,0,0,0,1,0,circle,hexagon,2,0,2,0,1,8,20,4,,,,,,,,,,,,594.0997827510582,594.0997827510582,594.0997827510582,594.0997827510582,594.0997827510582,594.0997827510582,594.0997827510582,594.0997827510582,594.0997827510582,594.0997827510582,l,0.6894400280434638,10,675,2,594.8195764539996,596.3337083359947,,,,,,,,,,,,,,,,,,,,,13699,2022-11-10_13h52.18.329,vts_reward_expectancy_bt_OFFLINE,2022.2.4,60.07443784462158,
1,0,0,0,0,0,1,0,triangle,hexagon,2,0,2,0,1,9,21,1,,,,,,,,,,,,596.8337972470326,596.8337972470326,596.8337972470326,596.8337972470326,596.8337972470326,596.8337972470326,596.8337972470326,596.8337972470326,596.8337972470326,596.8337972470326,l,0.6900415889685974,10,685,2,597.5513916669879,599.0532825510018,,,,,,,,,,,,,,,,,,,,,13699,2022-11-10_13h52.18.329,vts_reward_expectancy_bt_OFFLINE,2022.2.4,60.07443784462158,
0,0,1,0,1,0,0,0,hexagon,triangle,2,0,2,0,1,10,22,6,,,,,,,,,,,,599.5536457389826,599.5536457389826,599.5536457389826,599.5536457389826,599.5536457389826,599.5536457389826,599.5536457389826,599.5536457389826,599.5536457389826,599.5536457389826,a,0.5016065770760179,10,695,2,600.0868374829879,601.5875451309839,601.5875451309839,602.0876193729928,,,,,,,,,,,,,,,,,,,13699,2022-11-10_13h52.18.329,vts_reward_expectancy_bt_OFFLINE,2022.2.4,60.07443784462158,
1,0,0,0,0,0,0,1,triangle,star,2,0,2,0,1,11,23,2,,,,,,,,,,,,602.0876193729928,602.0876193729928,602.0876193729928,602.0876193729928,602.0876193729928,602.0876193729928,602.0876193729928,602.0876193729928,602.0876193729928,602.0876193729928,a,1.1506979980040342,10,705,2,603.2571136150509,604.7574020109605,,,,,,,,,,,,,,,,,,,,,13699,2022-11-10_13h52.18.329,vts_reward_expectancy_bt_OFFLINE,2022.2.4,60.07443784462158,
0,0,0,1,0,0,1,0,star,hexagon,2,0,2,0,2,0,24,11,,,,,,,,,,,,605.2577146469848,605.2577146469848,605.2577146469848,605.2577146469848,605.2577146469848,605.2577146469848,605.2577146469848,605.2577146469848,605.2577146469848,605.2577146469848,l,0.7035957899643108,10,715,2,605.9939138420159,607.5085204059724,,,,,,,,,,,,,,,,,,,,,13699,2022-11-10_13h52.18.329,vts_reward_expectancy_bt_OFFLINE,2022.2.4,60.07443784462158,
0,0,0,1,1,0,0,0,star,triangle,2,0,2,0,2,1,25,9,,,,,,,,,,,,607.9929904390592,607.9929904390592,607.9929904390592,607.9929904390592,607.9929904390592,607.9929904390592,607.9929904390592,607.9929904390592,607.9929904390592,607.9929904390592,l,1.2653537699952722,10,725,2,609.2780960659729,610.7776914089918,610.7776914089918,611.2779147119727,,,,,,,,,,,,,,,,,,,13699,2022-11-10_13h52.18.329,vts_reward_expectancy_bt_OFFLINE,2022.2.4,60.07443784462158,
1,0,0,0,0,0,0,1,triangle,star,2,0,2,0,2,2,26,2,,,,,,,,,,,,611.2779147119727,611.2779147119727,611.2779147119727,611.2779147119727,611.2779147119727,611.2779147119727,611.2779147119727,611.2779147119727,611.2779147119727,611.2779147119727,a,0.657114205067046,10,735,2,611.962715090951,613.4637868260033,,,,,,,,,,,,,,,,,,,,,13699,2022-11-10_13h52.18.329,vts_reward_expectancy_bt_OFFLINE,2022.2.4,60.07443784462158,
0,0,1,0,0,1,0,0,hexagon,circle,2,0,2,0,2,3,27,7,,,,,,,,,,,,613.9642554019811,613.9642554019811,613.9642554019811,613.9642554019811,613.9642554019811,613.9642554019811,613.9642554019811,613.9642554019811,613.9642554019811,613.9642554019811,a,0.671187044121325,10,745,2,614.6649570049485,616.164969451027,,,,,,,,,,,,,,,,,,,,,13699,2022-11-10_13h52.18.329,vts_reward_expectancy_bt_OFFLINE,2022.2.4,60.07443784462158,
0,1,0,0,0,0,0,1,circle,star,2,0,2,0,2,4,28,5,,,,,,,,,,,,616.6653867099667,616.6653867099667,616.6653867099667,616.6653867099667,616.6653867099667,616.6653867099667,616.6653867099667,616.6653867099667,616.6653867099667,616.6653867099667,l,0.6702887300634757,10,755,2,617.3656714899698,618.8679738029605,,,,,,,,,,,,,,,,,,,,,13699,2022-11-10_13h52.18.329,vts_reward_expectancy_bt_OFFLINE,2022.2.4,60.07443784462158,
0,0,0,1,0,1,0,0,star ,circle,2,0,2,0,2,5,29,10,,,,,,,,,,,,619.3682194249704,619.3682194249704,619.3682194249704,619.3682194249704,619.3682194249704,619.3682194249704,619.3682194249704,619.3682194249704,619.3682194249704,619.3682194249704,a,0.5998263460351154,10,765,2,619.9856768229511,621.4850707829464,621.4850707829464,621.9853609369602,,,,,,,,,,,,,,,,,,,13699,2022-11-10_13h52.18.329,vts_reward_expectancy_bt_OFFLINE,2022.2.4,60.07443784462158,
0,0,1,0,1,0,0,0,hexagon,triangle,2,0,2,0,2,6,30,6,,,,,,,,,,,,621.9853609369602,621.9853609369602,621.9853609369602,621.9853609369602,621.9853609369602,621.9853609369602,621.9853609369602,621.9853609369602,621.9853609369602,621.9853609369602,a,0.5826125380117446,10,775,2,622.5863677810412,624.0878846920095,,,,,,,,,,,,,,,,,,,,,13699,2022-11-10_13h52.18.329,vts_reward_expectancy_bt_OFFLINE,2022.2.4,60.07443784462158,
1,0,0,0,0,0,1,0,triangle,hexagon,2,0,2,0,2,7,31,1,,,,,,,,,,,,624.5883226180449,624.5883226180449,624.5883226180449,624.5883226180449,624.5883226180449,624.5883226180449,624.5883226180449,624.5883226180449,624.5883226180449,624.5883226180449,a,1.1851783230667934,10,785,2,625.8053679369623,627.3058192010503,627.3058192010503,627.8079387750477,,,,,,,,,,,,,,,,,,,13699,2022-11-10_13h52.18.329,vts_reward_expectancy_bt_OFFLINE,2022.2.4,60.07443784462158,
0,0,1,0,0,0,0,1,hexagon,star,2,0,2,0,2,8,32,8,,,,,,,,,,,,627.8079387750477,627.8079387750477,627.8079387750477,627.8079387750477,627.8079387750477,627.8079387750477,627.8079387750477,627.8079387750477,627.8079387750477,627.8079387750477,l,0.7670091791078448,1,786,2,628.594667020021,630.108923399006,,,,,,,,,,,,,,,,,,,,,13699,2022-11-10_13h52.18.329,vts_reward_expectancy_bt_OFFLINE,2022.2.4,60.07443784462158,
0,1,0,0,0,0,1,0,circle,hexagon,2,0,2,0,2,9,33,4,,,,,,,,,,,,630.6088310059858,630.6088310059858,630.6088310059858,630.6088310059858,630.6088310059858,630.6088310059858,630.6088310059858,630.6088310059858,630.6088310059858,630.6088310059858,l,1.3979393700137734,10,796,2,632.0287880130345,633.5286495470209,,,,,,,,,,,,,,,,,,,,,13699,2022-11-10_13h52.18.329,vts_reward_expectancy_bt_OFFLINE,2022.2.4,60.07443784462158,
0,1,0,0,1,0,0,0,circle,triangle,2,0,2,0,2,10,34,3,,,,,,,,,,,,634.0288257050561,634.0288257050561,634.0288257050561,634.0288257050561,634.0288257050561,634.0288257050561,634.0288257050561,634.0288257050561,634.0288257050561,634.0288257050561,l,0.8923531520413235,10,806,2,634.9462508939905,636.4462953490438,636.4462953490438,636.9461271569598,,,,,,,,,,,,,,,,,,,13699,2022-11-10_13h52.18.329,vts_reward_expectancy_bt_OFFLINE,2022.2.4,60.07443784462158,
1,0,0,0,0,1,0,0,triangle,circle,2,0,2,0,2,11,35,0,,,,,,,,,,,,636.9461271569598,636.9461271569598,636.9461271569598,636.9461271569598,636.9461271569598,636.9461271569598,636.9461271569598,636.9461271569598,636.9461271569598,636.9461271569598,a,0.5843066510278732,1,807,2,637.5643539089942,639.065662972047,639.065662972047,639.565783031052,,,,,,,,,,,,,,,,,,,13699,2022-11-10_13h52.18.329,vts_reward_expectancy_bt_OFFLINE,2022.2.4,60.07443784462158,
0,0,0,1,0,1,0,0,star ,circle,2,0,2,0,3,0,36,10,,,,,,,,,,,,639.565783031052,639.565783031052,639.565783031052,639.565783031052,639.565783031052,639.565783031052,639.565783031052,639.565783031052,639.565783031052,639.565783031052,a,0.6312181879766285,1,808,2,640.2165222540498,641.7166233030148,641.7166233030148,642.2165235630237,,,,,,,,,,,,,,,,,,,13699,2022-11-10_13h52.18.329,vts_reward_expectancy_bt_OFFLINE,2022.2.4,60.07443784462158,
0,0,0,1,1,0,0,0,star,triangle,2,0,2,0,3,1,37,9,,,,,,,,,,,,642.2165235630237,642.2165235630237,642.2165235630237,642.2165235630237,642.2165235630237,642.2165235630237,642.2165235630237,642.2165235630237,642.2165235630237,642.2165235630237,l,0.8499845070764422,10,818,2,643.0887525229482,644.6026901230216,,,,,,,,,,,,,,,,,,,,,13699,2022-11-10_13h52.18.329,vts_reward_expectancy_bt_OFFLINE,2022.2.4,60.07443784462158,
0,0,1,0,0,0,0,1,hexagon,star,2,0,2,0,3,2,38,8,,,,,,,,,,,,645.0865606809966,645.0865606809966,645.0865606809966,645.0865606809966,645.0865606809966,645.0865606809966,645.0865606809966,645.0865606809966,645.0865606809966,645.0865606809966,a,1.0511548049980775,1,819,2,646.1700929510407,647.6706992379623,647.6706992379623,,,,,,,,,,,,,,,,,,,,13699,2022-11-10_13h52.18.329,vts_reward_expectancy_bt_OFFLINE,2022.2.4,60.07443784462158,
1,0,0,0,0,0,1,0,triangle,hexagon,2,0,2,0,3,3,39,1,,,,,,,,,,,,648.1724739669589,648.1724739669589,648.1724739669589,648.1724739669589,648.1724739669589,648.1724739669589,648.1724739669589,648.1724739669589,648.1724739669589,648.1724739669589,l,0.6421262139920145,1,820,2,648.8402009559795,650.3401393309468,650.3401393309468,650.8405859139748,,,,,,,,,,,,,,,,,,,13699,2022-11-10_13h52.18.329,vts_reward_expectancy_bt_OFFLINE,2022.2.4,60.07443784462158,
0,1,0,0,0,0,1,0,circle,hexagon,2,0,2,0,3,4,40,4,,,,,,,,,,,,650.8405859139748,650.8405859139748,650.8405859139748,650.8405859139748,650.8405859139748,650.8405859139748,650.8405859139748,650.8405859139748,650.8405859139748,650.8405859139748,l,0.630062633077614,10,830,2,651.5056981410598,652.9931239780271,,,,,,,,,,,,,,,,,,,,,13699,2022-11-10_13h52.18.329,vts_reward_expectancy_bt_OFFLINE,2022.2.4,60.07443784462158,
0,0,1,0,0,1,0,0,hexagon,circle,2,0,2,0,3,5,41,7,,,,,,,,,,,,653.49316416902,653.49316416902,653.49316416902,653.49316416902,653.49316416902,653.49316416902,653.49316416902,653.49316416902,653.49316416902,653.49316416902,a,0.46281918103341013,1,831,2,653.99208941299,655.4935023899889,,,,,,,,,,,,,,,,,,,,,13699,2022-11-10_13h52.18.329,vts_reward_expectancy_bt_OFFLINE,2022.2.4,60.07443784462158,
1,0,0,0,0,0,0,1,triangle,star,2,0,2,0,3,6,42,2,,,,,,,,,,,,655.9770128120435,655.9770128120435,655.9770128120435,655.9770128120435,655.9770128120435,655.9770128120435,655.9770128120435,655.9770128120435,655.9770128120435,655.9770128120435,a,0.8477418769616634,10,841,2,656.8470295780571,658.3467409310397,,,,,,,,,,,,,,,,,,,,,13699,2022-11-10_13h52.18.329,vts_reward_expectancy_bt_OFFLINE,2022.2.4,60.07443784462158,
0,0,0,1,0,0,1,0,star,hexagon,2,0,2,0,3,7,43,11,,,,,,,,,,,,658.8470812670421,658.8470812670421,658.8470812670421,658.8470812670421,658.8470812670421,658.8470812670421,658.8470812670421,658.8470812670421,658.8470812670421,658.8470812670421,l,0.8689684469718486,10,851,2,659.7474508290179,661.2477895970223,661.2477895970223,661.7480020680232,,,,,,,,,,,,,,,,,,,13699,2022-11-10_13h52.18.329,vts_reward_expectancy_bt_OFFLINE,2022.2.4,60.07443784462158,
1,0,0,0,0,1,0,0,triangle,circle,2,0,2,0,3,8,44,0,,,,,,,,,,,,661.7480020680232,661.7480020680232,661.7480020680232,661.7480020680232,661.7480020680232,661.7480020680232,661.7480020680232,661.7480020680232,661.7480020680232,661.7480020680232,a,0.7694237140240148,10,861,2,662.5492851140443,664.0506175840273,,,,,,,,,,,,,,,,,,,,,13699,2022-11-10_13h52.18.329,vts_reward_expectancy_bt_OFFLINE,2022.2.4,60.07443784462158,
0,0,1,0,1,0,0,0,hexagon,triangle,2,0,2,0,3,9,45,6,,,,,,,,,,,,664.5511278959457,664.5511278959457,664.5511278959457,664.5511278959457,664.5511278959457,664.5511278959457,664.5511278959457,664.5511278959457,664.5511278959457,664.5511278959457,a,1.2628881960408762,1,862,2,665.837168441969,667.3517098800512,,,,,,,,,,,,,,,,,,,,,13699,2022-11-10_13h52.18.329,vts_reward_expectancy_bt_OFFLINE,2022.2.4,60.07443784462158,
0,1,0,0,1,0,0,0,circle,triangle,2,0,2,0,3,10,46,3,,,,,,,,,,,,667.8369436380453,667.8369436380453,667.8369436380453,667.8369436380453,667.8369436380453,667.8369436380453,667.8369436380453,667.8369436380453,667.8369436380453,667.8369436380453,l,0.520451023010537,10,872,2,668.3901022049831,669.9047440149589,,,,,,,,,,,,,,,,,,,,,13699,2022-11-10_13h52.18.329,vts_reward_expectancy_bt_OFFLINE,2022.2.4,60.07443784462158,
0,1,0,0,0,0,0,1,circle,star,2,0,2,0,3,11,47,5,,,,,,,,,,,,670.387960967957,670.387960967957,670.387960967957,670.387960967957,670.387960967957,670.387960967957,670.387960967957,670.387960967957,670.387960967957,670.387960967957,l,1.6700744780246168,10,882,2,672.088337794994,673.5907112839632,673.5907112839632,674.0958271840354,,,,,,,,,,,,,,,,,,,13699,2022-11-10_13h52.18.329,vts_reward_expectancy_bt_OFFLINE,2022.2.4,60.07443784462158,
,,,,,,,,,,,,,,,,,,0,0,0,0,0,0,0,0,,,,,,,,,,,,,,,,,,,,743.2748686890118,,,167,Y,star,0.01741378998849541,737.2833798810607,738.755100490991,738.755100490991,738.755100490991,741.756189925014,741.756189925014,741.756189925014,0,0,None,0,741.7727822780143,,,13699,2022-11-10_13h52.18.329,vts_reward_expectancy_bt_OFFLINE,2022.2.4,60.07443784462158,
,,,,,,,,,,,,,,,,,,0,0,0,0,1,0,1,0,,,,,,,,,,,,,,,,,,,,748.0285280769458,,,125,S,hexagon,0.0065292660146951675,744.2711324719712,745.759235486039,745.759235486039,745.759235486039,,,,1,1,d,0,746.529588310048,0.7445987081155181,,13699,2022-11-10_13h52.18.329,vts_reward_expectancy_bt_OFFLINE,2022.2.4,60.07443784462158,
,,,,,,,,,,,,,,,,,,0,0,0,0,2,0,2,0,,,,,,,,,,,,,,,,,,,,753.6320987669751,,,139,F,triangle,0.002097169985063374,749.0245731059695,750.5127304389607,750.5127304389607,750.5127304389607,,,,0,0,f,0,752.123196032946,1.5713929760968313,,13699,2022-11-10_13h52.18.329,vts_reward_expectancy_bt_OFFLINE,2022.2.4,60.07443784462158,
,,,,,,,,,,,,,,,,,,0,0,0,0,3,0,3,0,,,,,,,,,,,,,,,,,,,,758.5195062019629,,,146,D,circle,0.010599983972497284,754.6288643920561,756.1168096259935,756.1168096259935,756.1168096259935,,,,1,1,d,0,757.020708119031,0.8729116331087425,,13699,2022-11-10_13h52.18.329,vts_reward_expectancy_bt_OFFLINE,2022.2.4,60.07443784462158,
,,,,,,,,,,,,,,,,,,0,0,0,0,4,0,4,0,,,,,,,,,,,,,,,,,,,,763.2896176950308,,,181,U,star,0.0015976569848135114,759.5152032310143,761.0035343159689,761.0035343159689,761.0035343159689,,,,1,0,f,0,761.7882705560187,0.7554029710590839,,13699,2022-11-10_13h52.18.329,vts_reward_expectancy_bt_OFFLINE,2022.2.4,60.07443784462158,
,,,,,,,,,,,,,,,,,,0,0,0,0,5,0,5,0,,,,,,,,,,,,,,,,,,,,768.9433853660012,,,160,W,hexagon,0.002086146967485547,764.2854366019601,765.7738544780295,765.7738544780295,765.7738544780295,,,,1,0,f,0,767.442111158045,1.6441529880976304,,13699,2022-11-10_13h52.18.329,vts_reward_expectancy_bt_OFFLINE,2022.2.4,60.07443784462158,
,,,,,,,,,,,,,,,,,,0,0,0,0,6,0,6,0,,,,,,,,,,,,,,,,,,,,773.5634604250081,,,174,H,circle,0.0022134550381451845,769.9397267779568,771.4274276640499,771.4274276640499,771.4274276640499,,,,1,0,f,0,772.0620944160037,0.6144835780141875,,13699,2022-11-10_13h52.18.329,vts_reward_expectancy_bt_OFFLINE,2022.2.4,60.07443784462158,
,,,,,,,,,,,,,,,,,,0,0,0,0,7,0,7,0,,,,,,,,,,,,,,,,,,,,778.266881168005,,,132,B,triangle,0.0021553179249167442,774.5595069059636,776.0479084010003,776.0479084010003,776.0479084010003,,,,1,0,d,0,776.7658282329794,0.6969107300974429,,13699,2022-11-10_13h52.18.329,vts_reward_expectancy_bt_OFFLINE,2022.2.4,60.07443784462158,
,,,,,,,,,,,,,,,,,,0,0,0,0,8,0,8,0,,,,,,,,,,,,,,,,,,,,783.1874663500348,,,167,Y,hexagon,0.001985033042728901,779.2629858220462,780.751284998958,780.751284998958,780.751284998958,,,,1,0,f,0,781.6868188349763,0.9100603921106085,,13699,2022-11-10_13h52.18.329,vts_reward_expectancy_bt_OFFLINE,2022.2.4,60.07443784462158,
,,,,,,,,,,,,,,,,,,0,0,0,0,9,0,9,0,,,,,,,,,,,,,,,,,,,,787.8060270739952,,,125,S,triangle,0.0012095608981326222,784.1830299940193,785.671588242054,785.671588242054,785.671588242054,,,,1,0,d,0,786.3066211580299,0.6028831010917202,787.8060270739952,13699,2022-11-10_13h52.18.329,vts_reward_expectancy_bt_OFFLINE,2022.2.4,60.07443784462158,
