LTriangleOpac,LCircleOpac,LHexagonOpac,LStarOpac,RTriangleOpac,RCircleOpac,RHexagonOpac,RStarOpac,LShape_ID,RShape_ID,training_blocks.thisRepN,training_blocks.thisTrialN,training_blocks.thisN,training_blocks.thisIndex,training.thisRepN,training.thisTrialN,training.thisN,training.thisIndex,key_resp.started,key_resp.keys,key_resp.rt,left_circle.started,right_circle.started,left_triangle.started,right_triangle.started,left_star.started,right_star.started,left_hexagon.started,right_hexagon.started,training_fix.started,training_resp.started,training_resp.keys,training_resp.rt,points_trial,points_cumul,trainBlock,training_feedback_txt.started,training_feedback_txt.stopped,fix.started,fix.stopped,participant,date,expName,psychopyVersion,frameRate,
,,,,,,,,,,,,,,,,,,18.376408703974448,space,20.789812132017687,,,,,,,,,,,,,,,,,,,,17658,2022-12-01_14h05.39.560,vts_reward_expectancy_bt_OFFLINE,2022.2.4,59.837240199536105,
1,0,0,0,0,0,1,0,triangle,hexagon,0,0,0,0,0,0,0,1,,,,59.89003122202121,59.89003122202121,59.89003122202121,59.89003122202121,59.89003122202121,59.89003122202121,59.89003122202121,59.89003122202121,59.89003122202121,59.89003122202121,l,1.1463286500656977,1,1,0,61.05681303597521,62.55850666703191,62.55850666703191,,17658,2022-12-01_14h05.39.560,vts_reward_expectancy_bt_OFFLINE,2022.2.4,59.837240199536105,
0,0,1,0,0,0,0,1,hexagon,star,0,0,0,0,0,1,1,8,,,,63.0589269020129,63.0589269020129,63.0589269020129,63.0589269020129,63.0589269020129,63.0589269020129,63.0589269020129,63.0589269020129,63.0589269020129,63.0589269020129,a,2.1193229609634727,1,2,0,65.19473988993559,66.696309368941,66.696309368941,,17658,2022-12-01_14h05.39.560,vts_reward_expectancy_bt_OFFLINE,2022.2.4,59.837240199536105,
1,0,0,0,0,1,0,0,triangle,circle,0,0,0,0,0,2,2,0,,,,67.19685139099602,67.19685139099602,67.19685139099602,67.19685139099602,67.19685139099602,67.19685139099602,67.19685139099602,67.19685139099602,67.19685139099602,67.19685139099602,a,1.411671438952908,10,12,0,68.63173961499706,,70.13336207391694,,17658,2022-12-01_14h05.39.560,vts_reward_expectancy_bt_OFFLINE,2022.2.4,59.837240199536105,
0,0,0,1,0,1,0,0,star ,circle,0,0,0,0,0,3,3,10,,,,70.63412705995142,70.63412705995142,70.63412705995142,70.63412705995142,70.63412705995142,70.63412705995142,70.63412705995142,70.63412705995142,70.63412705995142,70.63412705995142,a,2.003232804010622,10,22,0,72.66962418996263,,74.1712240469642,,17658,2022-12-01_14h05.39.560,vts_reward_expectancy_bt_OFFLINE,2022.2.4,59.837240199536105,
0,1,0,0,0,0,1,0,circle,hexagon,0,0,0,0,0,4,4,4,,,,74.671611252008,74.671611252008,74.671611252008,74.671611252008,74.671611252008,74.671611252008,74.671611252008,74.671611252008,74.671611252008,74.671611252008,l,2.870747953886166,1,23,0,77.57486657099798,,79.07654474698938,,17658,2022-12-01_14h05.39.560,vts_reward_expectancy_bt_OFFLINE,2022.2.4,59.837240199536105,
0,0,0,1,1,0,0,0,star,triangle,0,0,0,0,0,5,5,9,,,,79.5773102369858,79.5773102369858,79.5773102369858,79.5773102369858,79.5773102369858,79.5773102369858,79.5773102369858,79.5773102369858,79.5773102369858,79.5773102369858,a,1.0020852499874309,1,24,0,80.61182541400194,,82.1132361239288,,17658,2022-12-01_14h05.39.560,vts_reward_expectancy_bt_OFFLINE,2022.2.4,59.837240199536105,
0,1,0,0,1,0,0,0,circle,triangle,0,0,0,0,0,6,6,3,,,,82.61381939495914,82.61381939495914,82.61381939495914,82.61381939495914,82.61381939495914,82.61381939495914,82.61381939495914,82.61381939495914,82.61381939495914,82.61381939495914,a,1.2287192220101133,10,34,0,83.86527072894387,,85.36697828397155,,17658,2022-12-01_14h05.39.560,vts_reward_expectancy_bt_OFFLINE,2022.2.4,59.837240199536105,
0,1,0,0,0,0,0,1,circle,star,0,0,0,0,0,7,7,5,,,,85.86724627495278,85.86724627495278,85.86724627495278,85.86724627495278,85.86724627495278,85.86724627495278,85.86724627495278,85.86724627495278,85.86724627495278,85.86724627495278,l,1.2494747369783,10,44,0,87.13561859598849,,88.63723344996106,,17658,2022-12-01_14h05.39.560,vts_reward_expectancy_bt_OFFLINE,2022.2.4,59.837240199536105,
1,0,0,0,0,0,0,1,triangle,star,0,0,0,0,0,8,8,2,,,,89.13803022901993,89.13803022901993,89.13803022901993,89.13803022901993,89.13803022901993,89.13803022901993,89.13803022901993,89.13803022901993,89.13803022901993,89.13803022901993,l,0.6896186720114201,1,45,0,89.85532122501172,,91.3568327149842,,17658,2022-12-01_14h05.39.560,vts_reward_expectancy_bt_OFFLINE,2022.2.4,59.837240199536105,
0,0,0,1,0,0,1,0,star,hexagon,0,0,0,0,0,9,9,11,,,,91.85745497397147,91.85745497397147,91.85745497397147,91.85745497397147,91.85745497397147,91.85745497397147,91.85745497397147,91.85745497397147,91.85745497397147,91.85745497397147,a,1.0190021169837564,1,46,0,92.9086859410163,,94.41011055198032,,17658,2022-12-01_14h05.39.560,vts_reward_expectancy_bt_OFFLINE,2022.2.4,59.837240199536105,
0,0,1,0,0,1,0,0,hexagon,circle,0,0,0,0,0,10,10,7,,,,94.91072193393484,94.91072193393484,94.91072193393484,94.91072193393484,94.91072193393484,94.91072193393484,94.91072193393484,94.91072193393484,94.91072193393484,94.91072193393484,a,1.3193543419474736,10,56,0,96.262416913989,,97.76384967600461,,17658,2022-12-01_14h05.39.560,vts_reward_expectancy_bt_OFFLINE,2022.2.4,59.837240199536105,
0,0,1,0,1,0,0,0,hexagon,triangle,0,0,0,0,0,11,11,6,,,,98.26451461901888,98.26451461901888,98.26451461901888,98.26451461901888,98.26451461901888,98.26451461901888,98.26451461901888,98.26451461901888,98.26451461901888,98.26451461901888,l,1.8925128580303863,10,66,0,100.18305580492597,,101.68499493401032,,17658,2022-12-01_14h05.39.560,vts_reward_expectancy_bt_OFFLINE,2022.2.4,59.837240199536105,
0,1,0,0,1,0,0,0,circle,triangle,0,0,0,0,1,0,12,3,,,,102.1857009989908,102.1857009989908,102.1857009989908,102.1857009989908,102.1857009989908,102.1857009989908,102.1857009989908,102.1857009989908,102.1857009989908,102.1857009989908,l,1.7527100979350507,1,67,0,103.97098342492245,,105.47242728399578,,17658,2022-12-01_14h05.39.560,vts_reward_expectancy_bt_OFFLINE,2022.2.4,59.837240199536105,
1,0,0,0,0,0,0,1,triangle,star,0,0,0,0,1,1,13,2,,,,105.97307782492135,105.97307782492135,105.97307782492135,105.97307782492135,105.97307782492135,105.97307782492135,105.97307782492135,105.97307782492135,105.97307782492135,105.97307782492135,a,1.6980641289846972,10,77,0,107.69180911500007,,109.19320910994429,,17658,2022-12-01_14h05.39.560,vts_reward_expectancy_bt_OFFLINE,2022.2.4,59.837240199536105,
0,0,0,1,1,0,0,0,star,triangle,0,0,0,0,1,2,14,9,,,,109.69383025402203,109.69383025402203,109.69383025402203,109.69383025402203,109.69383025402203,109.69383025402203,109.69383025402203,109.69383025402203,109.69383025402203,109.69383025402203,l,1.5207668410148472,1,78,0,111.24569087696727,112.74720226891804,112.74720226891804,,17658,2022-12-01_14h05.39.560,vts_reward_expectancy_bt_OFFLINE,2022.2.4,59.837240199536105,
1,0,0,0,0,1,0,0,triangle,circle,0,0,0,0,1,3,15,0,,,,113.24781922693364,113.24781922693364,113.24781922693364,113.24781922693364,113.24781922693364,113.24781922693364,113.24781922693364,113.24781922693364,113.24781922693364,113.24781922693364,l,1.726047066040337,1,79,0,114.99962016497739,,116.50130190397613,,17658,2022-12-01_14h05.39.560,vts_reward_expectancy_bt_OFFLINE,2022.2.4,59.837240199536105,
0,1,0,0,0,0,1,0,circle,hexagon,0,0,0,0,1,4,16,4,,,,117.00203975697514,117.00203975697514,117.00203975697514,117.00203975697514,117.00203975697514,117.00203975697514,117.00203975697514,117.00203975697514,117.00203975697514,117.00203975697514,a,1.4591571560595185,1,80,0,118.4868576870067,,119.98850957397372,,17658,2022-12-01_14h05.39.560,vts_reward_expectancy_bt_OFFLINE,2022.2.4,59.837240199536105,
0,0,0,1,0,1,0,0,star ,circle,0,0,0,0,1,5,17,10,,,,120.48905461095273,120.48905461095273,120.48905461095273,120.48905461095273,120.48905461095273,120.48905461095273,120.48905461095273,120.48905461095273,120.48905461095273,120.48905461095273,a,0.9993626390350983,1,81,0,121.50683669396676,,123.00840203592088,,17658,2022-12-01_14h05.39.560,vts_reward_expectancy_bt_OFFLINE,2022.2.4,59.837240199536105,
0,0,1,0,1,0,0,0,hexagon,triangle,0,0,0,0,1,6,18,6,,,,123.50901591498405,123.50901591498405,123.50901591498405,123.50901591498405,123.50901591498405,123.50901591498405,123.50901591498405,123.50901591498405,123.50901591498405,123.50901591498405,l,0.8021986189996824,10,91,0,124.34321364492644,,125.84503501898143,,17658,2022-12-01_14h05.39.560,vts_reward_expectancy_bt_OFFLINE,2022.2.4,59.837240199536105,
0,0,1,0,0,1,0,0,hexagon,circle,0,0,0,0,1,7,19,7,,,,126.34544597100466,126.34544597100466,126.34544597100466,126.34544597100466,126.34544597100466,126.34544597100466,126.34544597100466,126.34544597100466,126.34544597100466,126.34544597100466,l,1.2740503289969638,1,92,0,127.64688909996767,,129.1487371099647,,17658,2022-12-01_14h05.39.560,vts_reward_expectancy_bt_OFFLINE,2022.2.4,59.837240199536105,
0,1,0,0,0,0,0,1,circle,star,0,0,0,0,1,8,20,5,,,,129.64905375696253,129.64905375696253,129.64905375696253,129.64905375696253,129.64905375696253,129.64905375696253,129.64905375696253,129.64905375696253,129.64905375696253,129.64905375696253,l,0.6818498040083796,10,102,0,130.35007327096537,,131.85149814595934,,17658,2022-12-01_14h05.39.560,vts_reward_expectancy_bt_OFFLINE,2022.2.4,59.837240199536105,
0,0,0,1,0,0,1,0,star,hexagon,0,0,0,0,1,9,21,11,,,,132.35208771994803,132.35208771994803,132.35208771994803,132.35208771994803,132.35208771994803,132.35208771994803,132.35208771994803,132.35208771994803,132.35208771994803,132.35208771994803,a,0.8701287219300866,10,112,0,133.25306549400557,,134.7550005359808,,17658,2022-12-01_14h05.39.560,vts_reward_expectancy_bt_OFFLINE,2022.2.4,59.837240199536105,
1,0,0,0,0,0,1,0,triangle,hexagon,0,0,0,0,1,10,22,1,,,,135.25557044392917,135.25557044392917,135.25557044392917,135.25557044392917,135.25557044392917,135.25557044392917,135.25557044392917,135.25557044392917,135.25557044392917,135.25557044392917,a,1.1955661389511079,1,113,0,136.47330479393713,,137.97510600695387,,17658,2022-12-01_14h05.39.560,vts_reward_expectancy_bt_OFFLINE,2022.2.4,59.837240199536105,
0,0,1,0,0,0,0,1,hexagon,star,0,0,0,0,1,11,23,8,,,,138.47561705496628,138.47561705496628,138.47561705496628,138.47561705496628,138.47561705496628,138.47561705496628,138.47561705496628,138.47561705496628,138.47561705496628,138.47561705496628,l,0.9237211820436642,10,123,0,139.4266500120284,,140.92812586401124,,17658,2022-12-01_14h05.39.560,vts_reward_expectancy_bt_OFFLINE,2022.2.4,59.837240199536105,
1,0,0,0,0,0,1,0,triangle,hexagon,0,0,0,0,2,0,24,1,,,,141.42890950199217,141.42890950199217,141.42890950199217,141.42890950199217,141.42890950199217,141.42890950199217,141.42890950199217,141.42890950199217,141.42890950199217,141.42890950199217,l,1.9528426920296624,10,133,0,143.41420785000082,,144.9158577939961,,17658,2022-12-01_14h05.39.560,vts_reward_expectancy_bt_OFFLINE,2022.2.4,59.837240199536105,
1,0,0,0,0,1,0,0,triangle,circle,0,0,0,0,2,1,25,0,,,,145.4165148739703,145.4165148739703,145.4165148739703,145.4165148739703,145.4165148739703,145.4165148739703,145.4165148739703,145.4165148739703,145.4165148739703,145.4165148739703,l,3.005071959923953,10,143,0,148.4533143619774,,149.9549621240003,,17658,2022-12-01_14h05.39.560,vts_reward_expectancy_bt_OFFLINE,2022.2.4,59.837240199536105,
0,0,1,0,1,0,0,0,hexagon,triangle,0,0,0,0,2,2,26,6,,,,150.45542059501167,150.45542059501167,150.45542059501167,150.45542059501167,150.45542059501167,150.45542059501167,150.45542059501167,150.45542059501167,150.45542059501167,150.45542059501167,a,1.3860864440212026,1,144,0,151.8737460609991,,153.3754728740314,,17658,2022-12-01_14h05.39.560,vts_reward_expectancy_bt_OFFLINE,2022.2.4,59.837240199536105,
0,0,1,0,0,1,0,0,hexagon,circle,0,0,0,0,2,3,27,7,,,,153.87608017900493,153.87608017900493,153.87608017900493,153.87608017900493,153.87608017900493,153.87608017900493,153.87608017900493,153.87608017900493,153.87608017900493,153.87608017900493,a,0.688398640952073,1,145,0,154.5936100599356,,156.09510753198992,,17658,2022-12-01_14h05.39.560,vts_reward_expectancy_bt_OFFLINE,2022.2.4,59.837240199536105,
0,0,1,0,0,0,0,1,hexagon,star,0,0,0,0,2,4,28,8,,,,156.59555385599378,156.59555385599378,156.59555385599378,156.59555385599378,156.59555385599378,156.59555385599378,156.59555385599378,156.59555385599378,156.59555385599378,156.59555385599378,l,0.6019899309612811,1,146,0,157.22953919495922,,158.73113011498936,,17658,2022-12-01_14h05.39.560,vts_reward_expectancy_bt_OFFLINE,2022.2.4,59.837240199536105,
0,1,0,0,1,0,0,0,circle,triangle,0,0,0,0,2,5,29,3,,,,159.23181794094853,159.23181794094853,159.23181794094853,159.23181794094853,159.23181794094853,159.23181794094853,159.23181794094853,159.23181794094853,159.23181794094853,159.23181794094853,l,4.142103507067077,1,147,0,163.4196921059629,,164.92155818699393,,17658,2022-12-01_14h05.39.560,vts_reward_expectancy_bt_OFFLINE,2022.2.4,59.837240199536105,
0,1,0,0,0,0,0,1,circle,star,0,0,0,0,2,6,30,5,,,,165.42210698092822,165.42210698092822,165.42210698092822,165.42210698092822,165.42210698092822,165.42210698092822,165.42210698092822,165.42210698092822,165.42210698092822,165.42210698092822,l,2.25053479289636,1,148,0,167.69119452498853,,169.19272427202668,,17658,2022-12-01_14h05.39.560,vts_reward_expectancy_bt_OFFLINE,2022.2.4,59.837240199536105,
0,0,0,1,0,0,1,0,star,hexagon,0,0,0,0,2,7,31,11,,,,169.69336001202464,169.69336001202464,169.69336001202464,169.69336001202464,169.69336001202464,169.69336001202464,169.69336001202464,169.69336001202464,169.69336001202464,169.69336001202464,a,0.7798491329886019,1,149,0,170.49435705202632,,171.99594407703262,,17658,2022-12-01_14h05.39.560,vts_reward_expectancy_bt_OFFLINE,2022.2.4,59.837240199536105,
0,0,0,1,1,0,0,0,star,triangle,0,0,0,0,2,8,32,9,,,,172.49650800193194,172.49650800193194,172.49650800193194,172.49650800193194,172.49650800193194,172.49650800193194,172.49650800193194,172.49650800193194,172.49650800193194,172.49650800193194,l,0.31772673805244267,10,159,0,172.84690696094185,,174.34833037492353,,17658,2022-12-01_14h05.39.560,vts_reward_expectancy_bt_OFFLINE,2022.2.4,59.837240199536105,
0,1,0,0,0,0,1,0,circle,hexagon,0,0,0,0,2,9,33,4,,,,174.848908924032,174.848908924032,174.848908924032,174.848908924032,174.848908924032,174.848908924032,174.848908924032,174.848908924032,174.848908924032,174.848908924032,l,0.07940301892813295,10,169,0,174.94904239103198,,176.45073434500955,,17658,2022-12-01_14h05.39.560,vts_reward_expectancy_bt_OFFLINE,2022.2.4,59.837240199536105,
0,0,0,1,0,1,0,0,star ,circle,0,0,0,0,2,10,34,10,,,,176.95121493097395,176.95121493097395,176.95121493097395,176.95121493097395,176.95121493097395,176.95121493097395,176.95121493097395,176.95121493097395,176.95121493097395,176.95121493097395,l,0.30773976200725883,1,170,0,177.30156154499855,,178.80338266992476,,17658,2022-12-01_14h05.39.560,vts_reward_expectancy_bt_OFFLINE,2022.2.4,59.837240199536105,
1,0,0,0,0,0,0,1,triangle,star,0,0,0,0,2,11,35,2,,,,179.28710981202312,179.28710981202312,179.28710981202312,179.28710981202312,179.28710981202312,179.28710981202312,179.28710981202312,179.28710981202312,179.28710981202312,179.28710981202312,l,0.01788609498180449,1,171,0,179.33717312198132,,180.83884346694686,,17658,2022-12-01_14h05.39.560,vts_reward_expectancy_bt_OFFLINE,2022.2.4,59.837240199536105,
0,0,0,1,0,0,1,0,star,hexagon,0,0,0,0,3,0,36,11,,,,181.3393289319938,181.3393289319938,181.3393289319938,181.3393289319938,181.3393289319938,181.3393289319938,181.3393289319938,181.3393289319938,181.3393289319938,181.3393289319938,a,0.1261321649653837,1,172,0,181.49043997994158,,182.99134228401817,,17658,2022-12-01_14h05.39.560,vts_reward_expectancy_bt_OFFLINE,2022.2.4,59.837240199536105,
0,0,1,0,0,0,0,1,hexagon,star,0,0,0,0,3,1,37,8,,,,183.49202272691764,183.49202272691764,183.49202272691764,183.49202272691764,183.49202272691764,183.49202272691764,183.49202272691764,183.49202272691764,183.49202272691764,183.49202272691764,a,0.31318971107248217,10,182,0,183.82567802700214,,185.32718229596503,,17658,2022-12-01_14h05.39.560,vts_reward_expectancy_bt_OFFLINE,2022.2.4,59.837240199536105,
0,0,0,1,0,1,0,0,star ,circle,0,0,0,0,3,2,38,10,,,,185.8276997959474,185.8276997959474,185.8276997959474,185.8276997959474,185.8276997959474,185.8276997959474,185.8276997959474,185.8276997959474,185.8276997959474,185.8276997959474,a,0.26284931891132146,10,192,0,186.11135967401788,,187.6131678710226,,17658,2022-12-01_14h05.39.560,vts_reward_expectancy_bt_OFFLINE,2022.2.4,59.837240199536105,
0,0,0,1,1,0,0,0,star,triangle,0,0,0,0,3,3,39,9,,,,188.11377410893328,188.11377410893328,188.11377410893328,188.11377410893328,188.11377410893328,188.11377410893328,188.11377410893328,188.11377410893328,188.11377410893328,188.11377410893328,l,0.25968926306813955,10,202,0,188.3971500749467,,189.89894975395873,,17658,2022-12-01_14h05.39.560,vts_reward_expectancy_bt_OFFLINE,2022.2.4,59.837240199536105,
0,0,1,0,0,1,0,0,hexagon,circle,0,0,0,0,3,4,40,7,,,,190.39943382400088,190.39943382400088,190.39943382400088,190.39943382400088,190.39943382400088,190.39943382400088,190.39943382400088,190.39943382400088,190.39943382400088,190.39943382400088,l,0.0772810090566054,10,212,0,190.49967183696572,,192.00129921198823,,17658,2022-12-01_14h05.39.560,vts_reward_expectancy_bt_OFFLINE,2022.2.4,59.837240199536105,
0,1,0,0,0,0,0,1,circle,star,0,0,0,0,3,5,41,5,,,,192.5018331760075,192.5018331760075,192.5018331760075,192.5018331760075,192.5018331760075,192.5018331760075,192.5018331760075,192.5018331760075,192.5018331760075,192.5018331760075,a,0.0008759639458730817,10,222,0,192.51844673103187,194.02011409692932,194.02011409692932,194.5207872199826,17658,2022-12-01_14h05.39.560,vts_reward_expectancy_bt_OFFLINE,2022.2.4,59.837240199536105,
1,0,0,0,0,0,1,0,triangle,hexagon,0,0,0,0,3,6,42,1,,,,194.5207872199826,194.5207872199826,194.5207872199826,194.5207872199826,194.5207872199826,194.5207872199826,194.5207872199826,194.5207872199826,194.5207872199826,194.5207872199826,a,0.01770852890331298,1,223,0,194.5708868650254,,196.07241455896292,,17658,2022-12-01_14h05.39.560,vts_reward_expectancy_bt_OFFLINE,2022.2.4,59.837240199536105,
0,1,0,0,0,0,1,0,circle,hexagon,0,0,0,0,3,7,43,4,,,,196.57319825899322,196.57319825899322,196.57319825899322,196.57319825899322,196.57319825899322,196.57319825899322,196.57319825899322,196.57319825899322,196.57319825899322,196.57319825899322,l,0.08174080098979175,1,224,0,196.6729718389688,,198.17478933092207,,17658,2022-12-01_14h05.39.560,vts_reward_expectancy_bt_OFFLINE,2022.2.4,59.837240199536105,
1,0,0,0,0,1,0,0,triangle,circle,0,0,0,0,3,8,44,0,,,,198.67524354497436,198.67524354497436,198.67524354497436,198.67524354497436,198.67524354497436,198.67524354497436,198.67524354497436,198.67524354497436,198.67524354497436,198.67524354497436,l,0.31839037605095655,10,234,0,199.02582720993087,,200.52731803397182,,17658,2022-12-01_14h05.39.560,vts_reward_expectancy_bt_OFFLINE,2022.2.4,59.837240199536105,
1,0,0,0,0,0,0,1,triangle,star,0,0,0,0,3,9,45,2,,,,201.0281563559547,201.0281563559547,201.0281563559547,201.0281563559547,201.0281563559547,201.0281563559547,201.0281563559547,201.0281563559547,201.0281563559547,201.0281563559547,l,0.049607453984208405,1,235,0,201.11132596700918,,202.6131608770229,,17658,2022-12-01_14h05.39.560,vts_reward_expectancy_bt_OFFLINE,2022.2.4,59.837240199536105,
0,1,0,0,1,0,0,0,circle,triangle,0,0,0,0,3,10,46,3,,,,203.09694389195647,203.09694389195647,203.09694389195647,203.09694389195647,203.09694389195647,203.09694389195647,203.09694389195647,203.09694389195647,203.09694389195647,203.09694389195647,l,0.33073569904081523,10,245,0,203.4483657819219,,204.94877901498694,,17658,2022-12-01_14h05.39.560,vts_reward_expectancy_bt_OFFLINE,2022.2.4,59.837240199536105,
0,0,1,0,1,0,0,0,hexagon,triangle,0,0,0,0,3,11,47,6,,,,205.44938046694733,205.44938046694733,205.44938046694733,205.44938046694733,205.44938046694733,205.44938046694733,205.44938046694733,205.44938046694733,205.44938046694733,205.44938046694733,a,0.05926649190951139,10,255,0,205.549621372018,,207.03458497393876,,17658,2022-12-01_14h05.39.560,vts_reward_expectancy_bt_OFFLINE,2022.2.4,59.837240199536105,
0,0,1,0,1,0,0,0,hexagon,triangle,1,0,1,0,0,0,0,6,,,,212.40774080902338,212.40774080902338,212.40774080902338,212.40774080902338,212.40774080902338,212.40774080902338,212.40774080902338,212.40774080902338,212.40774080902338,212.40774080902338,a,0.661146495025605,1,256,1,213.10789186903276,,214.59293953096494,,17658,2022-12-01_14h05.39.560,vts_reward_expectancy_bt_OFFLINE,2022.2.4,59.837240199536105,
1,0,0,0,0,0,1,0,triangle,hexagon,1,0,1,0,0,1,1,1,,,,215.09356359392405,215.09356359392405,215.09356359392405,215.09356359392405,215.09356359392405,215.09356359392405,215.09356359392405,215.09356359392405,215.09356359392405,215.09356359392405,a,2.610629908973351,10,266,1,217.73152276093606,,219.2314644709695,,17658,2022-12-01_14h05.39.560,vts_reward_expectancy_bt_OFFLINE,2022.2.4,59.837240199536105,
,,,,,,,,,,,,,,,,,,,,,219.7319206519751,219.7319206519751,219.7319206519751,219.7319206519751,219.7319206519751,219.7319206519751,219.7319206519751,219.7319206519751,219.7319206519751,219.7319206519751,,,,,,,,,,,,,,,
