LTriangleOpac,LCircleOpac,LHexagonOpac,LStarOpac,RTriangleOpac,RCircleOpac,RHexagonOpac,RStarOpac,LShape_ID,RShape_ID,training_blocks.thisRepN,training_blocks.thisTrialN,training_blocks.thisN,training_blocks.thisIndex,training.thisRepN,training.thisTrialN,training.thisN,training.thisIndex,task1_prac_redo.thisRepN,task1_prac_redo.thisTrialN,task1_prac_redo.thisN,task1_prac_redo.thisIndex,task1_prac_trials.thisRepN,task1_prac_trials.thisTrialN,task1_prac_trials.thisN,task1_prac_trials.thisIndex,key_resp.started,key_resp.keys,key_resp.rt,left_circle.started,right_circle.started,left_triangle.started,right_triangle.started,left_star.started,right_star.started,left_hexagon.started,right_hexagon.started,training_fix.started,training_resp.started,training_resp.keys,training_resp.rt,points_trial,points_cumul,trainBlock,training_feedback_txt.started,training_feedback_txt.stopped,fix.started,fix.stopped,curr_topStim,curr_bottStim,curr_shape,ISI.started,tgt_fix_prac1.started,top_target_prac1.started,bott_target_prac1.started,target_resp_prac1.started,top_target_prac1.stopped,tgt_fix_prac1.stopped,bott_target_prac1.stopped,target_resp_prac1.stopped,acc,E1,target_resp_prac1.keys,pracBlock,prac_fback_text.started,prac_fback_text.stopped,target_resp_prac1.rt,participant,date,expName,psychopyVersion,frameRate,
,,,,,,,,,,,,,,,,,,,,,,,,,,385.91779097518884,space,18.76176110212691,,,,,,,,,,,,,,,,,,,,,,,,,,,,,,,,,,,,,,,22483,2022-11-08_08h01.33.672,vts_reward_expectancy_bt_OFFLINE,2022.2.4,59.976697863035355,
1,0,0,0,0,1,0,0,triangle,circle,0,0,0,0,0,0,0,0,,,,,,,,,,,,433.1520816341508,433.1520816341508,433.1520816341508,433.1520816341508,433.1520816341508,433.1520816341508,433.1520816341508,433.1520816341508,433.1520816341508,433.1520816341508,a,6.958175715059042,10,10,0,440.14297125604935,441.6445074242074,441.6445074242074,,,,,,,,,,,,,,,,,,,,,22483,2022-11-08_08h01.33.672,vts_reward_expectancy_bt_OFFLINE,2022.2.4,59.976697863035355,
0,0,1,0,0,1,0,0,hexagon,circle,0,0,0,0,0,1,1,7,,,,,,,,,,,,442.144982813159,442.144982813159,442.144982813159,442.144982813159,442.144982813159,442.144982813159,442.144982813159,442.144982813159,442.144982813159,442.144982813159,l,2.7221199988853186,1,11,0,444.8981687480118,,446.3997471111361,,,,,,,,,,,,,,,,,,,,,22483,2022-11-08_08h01.33.672,vts_reward_expectancy_bt_OFFLINE,2022.2.4,59.976697863035355,
0,1,0,0,0,0,0,1,circle,star,0,0,0,0,0,2,2,5,,,,,,,,,,,,446.90037771500647,446.90037771500647,446.90037771500647,446.90037771500647,446.90037771500647,446.90037771500647,446.90037771500647,446.90037771500647,446.90037771500647,446.90037771500647,l,0.9153807498514652,10,21,0,447.8348682532087,,449.33635186520405,,,,,,,,,,,,,,,,,,,,,22483,2022-11-08_08h01.33.672,vts_reward_expectancy_bt_OFFLINE,2022.2.4,59.976697863035355,
0,0,0,1,1,0,0,0,star,triangle,0,0,0,0,0,3,3,9,,,,,,,,,,,,449.8371270080097,449.8371270080097,449.8371270080097,449.8371270080097,449.8371270080097,449.8371270080097,449.8371270080097,449.8371270080097,449.8371270080097,449.8371270080097,a,2.1630535770673305,1,22,0,452.02269472018816,,453.5242102302145,,,,,,,,,,,,,,,,,,,,,22483,2022-11-08_08h01.33.672,vts_reward_expectancy_bt_OFFLINE,2022.2.4,59.976697863035355,
0,0,1,0,0,0,0,1,hexagon,star,0,0,0,0,0,4,4,8,,,,,,,,,,,,454.024840189144,454.024840189144,454.024840189144,454.024840189144,454.024840189144,454.024840189144,454.024840189144,454.024840189144,454.024840189144,454.024840189144,l,2.6895472889300436,1,23,0,456.7446539751254,458.2463410841301,458.2463410841301,,,,,,,,,,,,,,,,,,,,,22483,2022-11-08_08h01.33.672,vts_reward_expectancy_bt_OFFLINE,2022.2.4,59.976697863035355,
0,1,0,0,0,0,1,0,circle,hexagon,0,0,0,0,0,5,5,4,,,,,,,,,,,,458.7467917050235,458.7467917050235,458.7467917050235,458.7467917050235,458.7467917050235,458.7467917050235,458.7467917050235,458.7467917050235,458.7467917050235,458.7467917050235,l,0.9381213509477675,10,33,0,459.7146076632198,461.21641378616914,461.21641378616914,,,,,,,,,,,,,,,,,,,,,22483,2022-11-08_08h01.33.672,vts_reward_expectancy_bt_OFFLINE,2022.2.4,59.976697863035355,
0,0,1,0,1,0,0,0,hexagon,triangle,0,0,0,0,0,6,6,6,,,,,,,,,,,,461.7167149661109,461.7167149661109,461.7167149661109,461.7167149661109,461.7167149661109,461.7167149661109,461.7167149661109,461.7167149661109,461.7167149661109,461.7167149661109,l,1.388687564060092,10,43,0,463.13512893905863,,464.63653072318994,,,,,,,,,,,,,,,,,,,,,22483,2022-11-08_08h01.33.672,vts_reward_expectancy_bt_OFFLINE,2022.2.4,59.976697863035355,
1,0,0,0,0,0,0,1,triangle,star,0,0,0,0,0,7,7,2,,,,,,,,,,,,465.1369908580091,465.1369908580091,465.1369908580091,465.1369908580091,465.1369908580091,465.1369908580091,465.1369908580091,465.1369908580091,465.1369908580091,465.1369908580091,a,1.512709200847894,10,53,0,466.67204087320715,,468.1738772660028,,,,,,,,,,,,,,,,,,,,,22483,2022-11-08_08h01.33.672,vts_reward_expectancy_bt_OFFLINE,2022.2.4,59.976697863035355,
1,0,0,0,0,0,1,0,triangle,hexagon,0,0,0,0,0,8,8,1,,,,,,,,,,,,468.67425650614314,468.67425650614314,468.67425650614314,468.67425650614314,468.67425650614314,468.67425650614314,468.67425650614314,468.67425650614314,468.67425650614314,468.67425650614314,a,1.7210733129177243,1,54,0,470.42654778808355,471.9281747150235,471.9281747150235,,,,,,,,,,,,,,,,,,,,,22483,2022-11-08_08h01.33.672,vts_reward_expectancy_bt_OFFLINE,2022.2.4,59.976697863035355,
0,0,0,1,0,0,1,0,star,hexagon,0,0,0,0,0,9,9,11,,,,,,,,,,,,472.42851895513013,472.42851895513013,472.42851895513013,472.42851895513013,472.42851895513013,472.42851895513013,472.42851895513013,472.42851895513013,472.42851895513013,472.42851895513013,l,1.4096199278719723,10,64,0,473.86347901821136,,475.3650622051209,,,,,,,,,,,,,,,,,,,,,22483,2022-11-08_08h01.33.672,vts_reward_expectancy_bt_OFFLINE,2022.2.4,59.976697863035355,
0,0,0,1,0,1,0,0,star ,circle,0,0,0,0,0,10,10,10,,,,,,,,,,,,475.86554721021093,475.86554721021093,475.86554721021093,475.86554721021093,475.86554721021093,475.86554721021093,475.86554721021093,475.86554721021093,475.86554721021093,475.86554721021093,a,0.8535040239803493,10,74,0,476.7498507350683,,478.25144530809484,,,,,,,,,,,,,,,,,,,,,22483,2022-11-08_08h01.33.672,vts_reward_expectancy_bt_OFFLINE,2022.2.4,59.976697863035355,
0,1,0,0,1,0,0,0,circle,triangle,0,0,0,0,0,11,11,3,,,,,,,,,,,,478.7520777960308,478.7520777960308,478.7520777960308,478.7520777960308,478.7520777960308,478.7520777960308,478.7520777960308,478.7520777960308,478.7520777960308,478.7520777960308,l,0.7449207319878042,10,84,0,479.5198920350522,,481.0214619701728,,,,,,,,,,,,,,,,,,,,,22483,2022-11-08_08h01.33.672,vts_reward_expectancy_bt_OFFLINE,2022.2.4,59.976697863035355,
1,0,0,0,0,1,0,0,triangle,circle,0,0,0,0,1,0,12,0,,,,,,,,,,,,481.5219039490912,481.5219039490912,481.5219039490912,481.5219039490912,481.5219039490912,481.5219039490912,481.5219039490912,481.5219039490912,481.5219039490912,481.5219039490912,a,0.6998249299358577,10,94,0,482.23936228407547,,483.74099491513334,,,,,,,,,,,,,,,,,,,,,22483,2022-11-08_08h01.33.672,vts_reward_expectancy_bt_OFFLINE,2022.2.4,59.976697863035355,
0,1,0,0,0,0,1,0,circle,hexagon,0,0,0,0,1,1,13,4,,,,,,,,,,,,484.2416691961698,484.2416691961698,484.2416691961698,484.2416691961698,484.2416691961698,484.2416691961698,484.2416691961698,484.2416691961698,484.2416691961698,484.2416691961698,l,0.6913496491033584,10,104,0,484.95900364918634,,486.4606288061477,,,,,,,,,,,,,,,,,,,,,22483,2022-11-08_08h01.33.672,vts_reward_expectancy_bt_OFFLINE,2022.2.4,59.976697863035355,
0,0,0,1,0,0,1,0,star,hexagon,0,0,0,0,1,2,14,11,,,,,,,,,,,,486.9610976600088,486.9610976600088,486.9610976600088,486.9610976600088,486.9610976600088,486.9610976600088,486.9610976600088,486.9610976600088,486.9610976600088,486.9610976600088,l,1.0657489818986505,10,114,0,488.04586160811596,,489.54736257111654,,,,,,,,,,,,,,,,,,,,,22483,2022-11-08_08h01.33.672,vts_reward_expectancy_bt_OFFLINE,2022.2.4,59.976697863035355,
0,0,0,1,0,1,0,0,star ,circle,0,0,0,0,1,3,15,10,,,,,,,,,,,,490.0478868051432,490.0478868051432,490.0478868051432,490.0478868051432,490.0478868051432,490.0478868051432,490.0478868051432,490.0478868051432,490.0478868051432,490.0478868051432,a,0.678066317923367,10,124,0,490.7488166161347,,492.2504255489912,,,,,,,,,,,,,,,,,,,,,22483,2022-11-08_08h01.33.672,vts_reward_expectancy_bt_OFFLINE,2022.2.4,59.976697863035355,
0,0,1,0,1,0,0,0,hexagon,triangle,0,0,0,0,1,4,16,6,,,,,,,,,,,,492.75111835915595,492.75111835915595,492.75111835915595,492.75111835915595,492.75111835915595,492.75111835915595,492.75111835915595,492.75111835915595,492.75111835915595,492.75111835915595,a,1.4188894249964505,10,134,0,494.2026830560062,,495.7042206840124,,,,,,,,,,,,,,,,,,,,,22483,2022-11-08_08h01.33.672,vts_reward_expectancy_bt_OFFLINE,2022.2.4,59.976697863035355,
0,0,1,0,0,0,0,1,hexagon,star,0,0,0,0,1,5,17,8,,,,,,,,,,,,496.20484893908724,496.20484893908724,496.20484893908724,496.20484893908724,496.20484893908724,496.20484893908724,496.20484893908724,496.20484893908724,496.20484893908724,496.20484893908724,l,0.6865078520495445,1,135,0,496.9222524801735,498.42411706317216,498.42411706317216,498.9247360730078,,,,,,,,,,,,,,,,,,,,22483,2022-11-08_08h01.33.672,vts_reward_expectancy_bt_OFFLINE,2022.2.4,59.976697863035355,
0,0,0,1,1,0,0,0,star,triangle,0,0,0,0,1,6,18,9,,,,,,,,,,,,498.9247360730078,498.9247360730078,498.9247360730078,498.9247360730078,498.9247360730078,498.9247360730078,498.9247360730078,498.9247360730078,498.9247360730078,498.9247360730078,a,2.1625586757436395,1,136,0,501.1102235640865,502.6119325950276,502.6119325950276,,,,,,,,,,,,,,,,,,,,,22483,2022-11-08_08h01.33.672,vts_reward_expectancy_bt_OFFLINE,2022.2.4,59.976697863035355,
0,0,1,0,0,1,0,0,hexagon,circle,0,0,0,0,1,7,19,7,,,,,,,,,,,,503.11231638421305,503.11231638421305,503.11231638421305,503.11231638421305,503.11231638421305,503.11231638421305,503.11231638421305,503.11231638421305,503.11231638421305,503.11231638421305,a,1.115388710051775,10,146,0,504.2470598111395,,505.7486662149895,,,,,,,,,,,,,,,,,,,,,22483,2022-11-08_08h01.33.672,vts_reward_expectancy_bt_OFFLINE,2022.2.4,59.976697863035355,
1,0,0,0,0,0,0,1,triangle,star,0,0,0,0,1,8,20,2,,,,,,,,,,,,506.2494325051084,506.2494325051084,506.2494325051084,506.2494325051084,506.2494325051084,506.2494325051084,506.2494325051084,506.2494325051084,506.2494325051084,506.2494325051084,a,0.9025128670036793,10,156,0,507.18349302513525,,508.6851661980618,,,,,,,,,,,,,,,,,,,,,22483,2022-11-08_08h01.33.672,vts_reward_expectancy_bt_OFFLINE,2022.2.4,59.976697863035355,
0,1,0,0,1,0,0,0,circle,triangle,0,0,0,0,1,9,21,3,,,,,,,,,,,,509.18573238910176,509.18573238910176,509.18573238910176,509.18573238910176,509.18573238910176,509.18573238910176,509.18573238910176,509.18573238910176,509.18573238910176,509.18573238910176,l,0.9370043620001525,10,166,0,510.1535911660176,,511.6550603611395,,,,,,,,,,,,,,,,,,,,,22483,2022-11-08_08h01.33.672,vts_reward_expectancy_bt_OFFLINE,2022.2.4,59.976697863035355,
1,0,0,0,0,0,1,0,triangle,hexagon,0,0,0,0,1,10,22,1,,,,,,,,,,,,512.1555404930841,512.1555404930841,512.1555404930841,512.1555404930841,512.1555404930841,512.1555404930841,512.1555404930841,512.1555404930841,512.1555404930841,512.1555404930841,l,0.9365944969467819,10,176,0,513.1236454811879,,514.6251452001743,,,,,,,,,,,,,,,,,,,,,22483,2022-11-08_08h01.33.672,vts_reward_expectancy_bt_OFFLINE,2022.2.4,59.976697863035355,
0,1,0,0,0,0,0,1,circle,star,0,0,0,0,1,11,23,5,,,,,,,,,,,,515.1257587990258,515.1257587990258,515.1257587990258,515.1257587990258,515.1257587990258,515.1257587990258,515.1257587990258,515.1257587990258,515.1257587990258,515.1257587990258,l,1.2089322439860553,1,177,0,516.3603434490506,,517.8618317511864,,,,,,,,,,,,,,,,,,,,,22483,2022-11-08_08h01.33.672,vts_reward_expectancy_bt_OFFLINE,2022.2.4,59.976697863035355,
0,0,0,1,0,0,1,0,star,hexagon,0,0,0,0,2,0,24,11,,,,,,,,,,,,518.3626127990428,518.3626127990428,518.3626127990428,518.3626127990428,518.3626127990428,518.3626127990428,518.3626127990428,518.3626127990428,518.3626127990428,518.3626127990428,a,2.020561106968671,1,178,0,520.4147217890713,,521.9165589241311,,,,,,,,,,,,,,,,,,,,,22483,2022-11-08_08h01.33.672,vts_reward_expectancy_bt_OFFLINE,2022.2.4,59.976697863035355,
1,0,0,0,0,0,1,0,triangle,hexagon,0,0,0,0,2,1,25,1,,,,,,,,,,,,522.4168763530906,522.4168763530906,522.4168763530906,522.4168763530906,522.4168763530906,522.4168763530906,522.4168763530906,522.4168763530906,522.4168763530906,522.4168763530906,l,1.89327894593589,10,188,0,524.3358565960079,,525.8375489490572,,,,,,,,,,,,,,,,,,,,,22483,2022-11-08_08h01.33.672,vts_reward_expectancy_bt_OFFLINE,2022.2.4,59.976697863035355,
0,1,0,0,0,0,0,1,circle,star,0,0,0,0,2,2,26,5,,,,,,,,,,,,526.3381335150916,526.3381335150916,526.3381335150916,526.3381335150916,526.3381335150916,526.3381335150916,526.3381335150916,526.3381335150916,526.3381335150916,526.3381335150916,l,0.7615963669959456,1,189,0,527.1221736141015,528.6237843851559,528.6237843851559,,,,,,,,,,,,,,,,,,,,,22483,2022-11-08_08h01.33.672,vts_reward_expectancy_bt_OFFLINE,2022.2.4,59.976697863035355,
0,0,1,0,0,1,0,0,hexagon,circle,0,0,0,0,2,3,27,7,,,,,,,,,,,,529.124234543182,529.124234543182,529.124234543182,529.124234543182,529.124234543182,529.124234543182,529.124234543182,529.124234543182,529.124234543182,529.124234543182,a,0.754056422971189,10,199,0,529.9085829681717,,531.4102971160319,,,,,,,,,,,,,,,,,,,,,22483,2022-11-08_08h01.33.672,vts_reward_expectancy_bt_OFFLINE,2022.2.4,59.976697863035355,
0,0,1,0,1,0,0,0,hexagon,triangle,0,0,0,0,2,4,28,6,,,,,,,,,,,,531.9106861401815,531.9106861401815,531.9106861401815,531.9106861401815,531.9106861401815,531.9106861401815,531.9106861401815,531.9106861401815,531.9106861401815,531.9106861401815,a,1.8276785400230438,10,209,0,533.76276328112,535.2645800251048,535.2645800251048,,,,,,,,,,,,,,,,,,,,,22483,2022-11-08_08h01.33.672,vts_reward_expectancy_bt_OFFLINE,2022.2.4,59.976697863035355,
0,0,1,0,0,0,0,1,hexagon,star,0,0,0,0,2,5,29,8,,,,,,,,,,,,535.7651816850994,535.7651816850994,535.7651816850994,535.7651816850994,535.7651816850994,535.7651816850994,535.7651816850994,535.7651816850994,535.7651816850994,535.7651816850994,a,1.6862336699850857,10,219,0,537.4837453311775,,538.9852687180974,,,,,,,,,,,,,,,,,,,,,22483,2022-11-08_08h01.33.672,vts_reward_expectancy_bt_OFFLINE,2022.2.4,59.976697863035355,
1,0,0,0,0,0,0,1,triangle,star,0,0,0,0,2,6,30,2,,,,,,,,,,,,539.4856885210611,539.4856885210611,539.4856885210611,539.4856885210611,539.4856885210611,539.4856885210611,539.4856885210611,539.4856885210611,539.4856885210611,539.4856885210611,a,2.510982220992446,10,229,0,542.0219419300556,,543.5235472091008,,,,,,,,,,,,,,,,,,,,,22483,2022-11-08_08h01.33.672,vts_reward_expectancy_bt_OFFLINE,2022.2.4,59.976697863035355,
0,0,0,1,0,1,0,0,star ,circle,0,0,0,0,2,7,31,10,,,,,,,,,,,,544.0241391891614,544.0241391891614,544.0241391891614,544.0241391891614,544.0241391891614,544.0241391891614,544.0241391891614,544.0241391891614,544.0241391891614,544.0241391891614,l,0.6038926029577851,10,239,0,544.6583496651147,,546.1598050810862,,,,,,,,,,,,,,,,,,,,,22483,2022-11-08_08h01.33.672,vts_reward_expectancy_bt_OFFLINE,2022.2.4,59.976697863035355,
0,1,0,0,1,0,0,0,circle,triangle,0,0,0,0,2,8,32,3,,,,,,,,,,,,546.6604595191311,546.6604595191311,546.6604595191311,546.6604595191311,546.6604595191311,546.6604595191311,546.6604595191311,546.6604595191311,546.6604595191311,546.6604595191311,l,1.0403190238866955,10,249,0,547.7281663750764,,549.2299481441732,,,,,,,,,,,,,,,,,,,,,22483,2022-11-08_08h01.33.672,vts_reward_expectancy_bt_OFFLINE,2022.2.4,59.976697863035355,
0,1,0,0,0,0,1,0,circle,hexagon,0,0,0,0,2,9,33,4,,,,,,,,,,,,549.7305621730629,549.7305621730629,549.7305621730629,549.7305621730629,549.7305621730629,549.7305621730629,549.7305621730629,549.7305621730629,549.7305621730629,549.7305621730629,l,1.1423511519096792,10,259,0,550.8984158129897,,552.4002261802088,,,,,,,,,,,,,,,,,,,,,22483,2022-11-08_08h01.33.672,vts_reward_expectancy_bt_OFFLINE,2022.2.4,59.976697863035355,
0,0,0,1,1,0,0,0,star,triangle,0,0,0,0,2,10,34,9,,,,,,,,,,,,552.9005692810751,552.9005692810751,552.9005692810751,552.9005692810751,552.9005692810751,552.9005692810751,552.9005692810751,552.9005692810751,552.9005692810751,552.9005692810751,l,1.0436256160028279,1,260,0,553.968460209202,555.4702886790037,555.4702886790037,,,,,,,,,,,,,,,,,,,,,22483,2022-11-08_08h01.33.672,vts_reward_expectancy_bt_OFFLINE,2022.2.4,59.976697863035355,
1,0,0,0,0,1,0,0,triangle,circle,0,0,0,0,2,11,35,0,,,,,,,,,,,,555.9707013710868,555.9707013710868,555.9707013710868,555.9707013710868,555.9707013710868,555.9707013710868,555.9707013710868,555.9707013710868,555.9707013710868,555.9707013710868,a,1.0687268089968711,10,270,0,557.0721246032044,,558.5735115131829,,,,,,,,,,,,,,,,,,,,,22483,2022-11-08_08h01.33.672,vts_reward_expectancy_bt_OFFLINE,2022.2.4,59.976697863035355,
0,0,1,0,0,0,0,1,hexagon,star,0,0,0,0,3,0,36,8,,,,,,,,,,,,559.0740668401122,559.0740668401122,559.0740668401122,559.0740668401122,559.0740668401122,559.0740668401122,559.0740668401122,559.0740668401122,559.0740668401122,559.0740668401122,a,0.9916079789400101,10,280,0,560.0920506401453,,561.5934673631564,,,,,,,,,,,,,,,,,,,,,22483,2022-11-08_08h01.33.672,vts_reward_expectancy_bt_OFFLINE,2022.2.4,59.976697863035355,
1,0,0,0,0,0,1,0,triangle,hexagon,0,0,0,0,3,1,37,1,,,,,,,,,,,,562.094233149197,562.094233149197,562.094233149197,562.094233149197,562.094233149197,562.094233149197,562.094233149197,562.094233149197,562.094233149197,562.094233149197,l,1.99828410288319,10,290,0,564.1130651892163,565.6148362981621,565.6148362981621,,,,,,,,,,,,,,,,,,,,,22483,2022-11-08_08h01.33.672,vts_reward_expectancy_bt_OFFLINE,2022.2.4,59.976697863035355,
0,0,1,0,1,0,0,0,hexagon,triangle,0,0,0,0,3,2,38,6,,,,,,,,,,,,566.115309531102,566.115309531102,566.115309531102,566.115309531102,566.115309531102,566.115309531102,566.115309531102,566.115309531102,566.115309531102,566.115309531102,a,0.8353553079068661,1,291,0,566.9830303990748,568.4844733891077,568.4844733891077,,,,,,,,,,,,,,,,,,,,,22483,2022-11-08_08h01.33.672,vts_reward_expectancy_bt_OFFLINE,2022.2.4,59.976697863035355,
0,0,1,0,0,1,0,0,hexagon,circle,0,0,0,0,3,3,39,7,,,,,,,,,,,,568.985213314183,568.985213314183,568.985213314183,568.985213314183,568.985213314183,568.985213314183,568.985213314183,568.985213314183,568.985213314183,568.985213314183,a,1.3284065849147737,1,292,0,570.3366214111447,,571.8381304610521,,,,,,,,,,,,,,,,,,,,,22483,2022-11-08_08h01.33.672,vts_reward_expectancy_bt_OFFLINE,2022.2.4,59.976697863035355,
0,1,0,0,0,0,1,0,circle,hexagon,0,0,0,0,3,4,40,4,,,,,,,,,,,,572.338775028009,572.338775028009,572.338775028009,572.338775028009,572.338775028009,572.338775028009,572.338775028009,572.338775028009,572.338775028009,572.338775028009,l,0.9459300830494612,10,302,0,573.3066086440813,574.8083717841655,574.8083717841655,,,,,,,,,,,,,,,,,,,,,22483,2022-11-08_08h01.33.672,vts_reward_expectancy_bt_OFFLINE,2022.2.4,59.976697863035355,
0,0,0,1,0,1,0,0,star ,circle,0,0,0,0,3,5,41,10,,,,,,,,,,,,575.3087013000622,575.3087013000622,575.3087013000622,575.3087013000622,575.3087013000622,575.3087013000622,575.3087013000622,575.3087013000622,575.3087013000622,575.3087013000622,l,0.8349090309347957,1,303,0,576.1763198901899,,577.6780713992193,,,,,,,,,,,,,,,,,,,,,22483,2022-11-08_08h01.33.672,vts_reward_expectancy_bt_OFFLINE,2022.2.4,59.976697863035355,
0,0,0,1,0,0,1,0,star,hexagon,0,0,0,0,3,6,42,11,,,,,,,,,,,,578.1784155440982,578.1784155440982,578.1784155440982,578.1784155440982,578.1784155440982,578.1784155440982,578.1784155440982,578.1784155440982,578.1784155440982,578.1784155440982,l,1.3276020800694823,1,304,0,579.5299252660479,581.031568425009,581.031568425009,,,,,,,,,,,,,,,,,,,,,22483,2022-11-08_08h01.33.672,vts_reward_expectancy_bt_OFFLINE,2022.2.4,59.976697863035355,
1,0,0,0,0,0,0,1,triangle,star,0,0,0,0,3,7,43,2,,,,,,,,,,,,581.5320811260026,581.5320811260026,581.5320811260026,581.5320811260026,581.5320811260026,581.5320811260026,581.5320811260026,581.5320811260026,581.5320811260026,581.5320811260026,a,0.9781257100403309,10,314,0,582.5334060760215,,584.0350085711107,,,,,,,,,,,,,,,,,,,,,22483,2022-11-08_08h01.33.672,vts_reward_expectancy_bt_OFFLINE,2022.2.4,59.976697863035355,
0,1,0,0,1,0,0,0,circle,triangle,0,0,0,0,3,8,44,3,,,,,,,,,,,,584.5354808201082,584.5354808201082,584.5354808201082,584.5354808201082,584.5354808201082,584.5354808201082,584.5354808201082,584.5354808201082,584.5354808201082,584.5354808201082,l,0.8880182788707316,10,324,0,585.4533645191696,,586.9549106562044,,,,,,,,,,,,,,,,,,,,,22483,2022-11-08_08h01.33.672,vts_reward_expectancy_bt_OFFLINE,2022.2.4,59.976697863035355,
0,1,0,0,0,0,0,1,circle,star,0,0,0,0,3,9,45,5,,,,,,,,,,,,587.4554027181584,587.4554027181584,587.4554027181584,587.4554027181584,587.4554027181584,587.4554027181584,587.4554027181584,587.4554027181584,587.4554027181584,587.4554027181584,l,0.8712306939996779,1,325,0,588.3565677201841,,589.8579773230013,,,,,,,,,,,,,,,,,,,,,22483,2022-11-08_08h01.33.672,vts_reward_expectancy_bt_OFFLINE,2022.2.4,59.976697863035355,
1,0,0,0,0,1,0,0,triangle,circle,0,0,0,0,3,10,46,0,,,,,,,,,,,,590.3586613340303,590.3586613340303,590.3586613340303,590.3586613340303,590.3586613340303,590.3586613340303,590.3586613340303,590.3586613340303,590.3586613340303,590.3586613340303,a,0.7825592069420964,10,335,0,591.1596096300054,,592.6612417160068,,,,,,,,,,,,,,,,,,,,,22483,2022-11-08_08h01.33.672,vts_reward_expectancy_bt_OFFLINE,2022.2.4,59.976697863035355,
0,0,0,1,1,0,0,0,star,triangle,0,0,0,0,3,11,47,9,,,,,,,,,,,,593.1617524411995,593.1617524411995,593.1617524411995,593.1617524411995,593.1617524411995,593.1617524411995,593.1617524411995,593.1617524411995,593.1617524411995,593.1617524411995,l,1.330387616995722,1,336,0,594.5131380700041,,596.0150163942017,,,,,,,,,,,,,,,,,,,,,22483,2022-11-08_08h01.33.672,vts_reward_expectancy_bt_OFFLINE,2022.2.4,59.976697863035355,
1,0,0,0,0,0,0,1,triangle,star,1,0,1,0,0,0,0,2,,,,,,,,,,,,609.9302576901391,609.9302576901391,609.9302576901391,609.9302576901391,609.9302576901391,609.9302576901391,609.9302576901391,609.9302576901391,609.9302576901391,609.9302576901391,a,2.226505669998005,10,346,1,612.182664178079,613.6845189582091,613.6845189582091,,,,,,,,,,,,,,,,,,,,,22483,2022-11-08_08h01.33.672,vts_reward_expectancy_bt_OFFLINE,2022.2.4,59.976697863035355,
0,1,0,0,0,0,1,0,circle,hexagon,1,0,1,0,0,1,1,4,,,,,,,,,,,,614.1848837111611,614.1848837111611,614.1848837111611,614.1848837111611,614.1848837111611,614.1848837111611,614.1848837111611,614.1848837111611,614.1848837111611,614.1848837111611,l,0.8412741438951343,1,347,1,615.0526136080734,,616.5542352781631,,,,,,,,,,,,,,,,,,,,,22483,2022-11-08_08h01.33.672,vts_reward_expectancy_bt_OFFLINE,2022.2.4,59.976697863035355,
1,0,0,0,0,0,1,0,triangle,hexagon,1,0,1,0,0,2,2,1,,,,,,,,,,,,617.0548632401042,617.0548632401042,617.0548632401042,617.0548632401042,617.0548632401042,617.0548632401042,617.0548632401042,617.0548632401042,617.0548632401042,617.0548632401042,l,0.9626916039269418,10,357,1,618.0392952731345,,619.5409921680111,,,,,,,,,,,,,,,,,,,,,22483,2022-11-08_08h01.33.672,vts_reward_expectancy_bt_OFFLINE,2022.2.4,59.976697863035355,
0,1,0,0,1,0,0,0,circle,triangle,1,0,1,0,0,3,3,3,,,,,,,,,,,,620.0415956841316,620.0415956841316,620.0415956841316,620.0415956841316,620.0415956841316,620.0415956841316,620.0415956841316,620.0415956841316,620.0415956841316,620.0415956841316,a,1.0361236610915512,1,358,1,621.1092664550524,,622.6110313590616,,,,,,,,,,,,,,,,,,,,,22483,2022-11-08_08h01.33.672,vts_reward_expectancy_bt_OFFLINE,2022.2.4,59.976697863035355,
0,0,1,0,0,1,0,0,hexagon,circle,1,0,1,0,0,4,4,7,,,,,,,,,,,,623.1116566441488,623.1116566441488,623.1116566441488,623.1116566441488,623.1116566441488,623.1116566441488,623.1116566441488,623.1116566441488,623.1116566441488,623.1116566441488,a,1.0033075409010053,10,368,1,624.1461087451316,,625.6476230979897,,,,,,,,,,,,,,,,,,,,,22483,2022-11-08_08h01.33.672,vts_reward_expectancy_bt_OFFLINE,2022.2.4,59.976697863035355,
0,0,1,0,0,0,0,1,hexagon,star,1,0,1,0,0,5,5,8,,,,,,,,,,,,626.1482129481155,626.1482129481155,626.1482129481155,626.1482129481155,626.1482129481155,626.1482129481155,626.1482129481155,626.1482129481155,626.1482129481155,626.1482129481155,a,1.0730323418974876,10,378,1,627.2491269330494,,628.7509570640977,,,,,,,,,,,,,,,,,,,,,22483,2022-11-08_08h01.33.672,vts_reward_expectancy_bt_OFFLINE,2022.2.4,59.976697863035355,
0,0,0,1,0,1,0,0,star ,circle,1,0,1,0,0,6,6,10,,,,,,,,,,,,629.2516526500694,629.2516526500694,629.2516526500694,629.2516526500694,629.2516526500694,629.2516526500694,629.2516526500694,629.2516526500694,629.2516526500694,629.2516526500694,a,1.6139746769331396,10,388,1,630.8866071910597,,632.3884438730311,,,,,,,,,,,,,,,,,,,,,22483,2022-11-08_08h01.33.672,vts_reward_expectancy_bt_OFFLINE,2022.2.4,59.976697863035355,
0,1,0,0,0,0,0,1,circle,star,1,0,1,0,0,7,7,5,,,,,,,,,,,,632.8886523351539,632.8886523351539,632.8886523351539,632.8886523351539,632.8886523351539,632.8886523351539,632.8886523351539,632.8886523351539,632.8886523351539,632.8886523351539,l,1.105154839111492,10,398,1,634.0233269361779,635.5251537880395,635.5251537880395,,,,,,,,,,,,,,,,,,,,,22483,2022-11-08_08h01.33.672,vts_reward_expectancy_bt_OFFLINE,2022.2.4,59.976697863035355,
0,0,0,1,1,0,0,0,star,triangle,1,0,1,0,0,8,8,9,,,,,,,,,,,,636.0254812079947,636.0254812079947,636.0254812079947,636.0254812079947,636.0254812079947,636.0254812079947,636.0254812079947,636.0254812079947,636.0254812079947,636.0254812079947,a,1.3772715358063579,10,408,1,637.4270837041549,,638.9287278151605,,,,,,,,,,,,,,,,,,,,,22483,2022-11-08_08h01.33.672,vts_reward_expectancy_bt_OFFLINE,2022.2.4,59.976697863035355,
0,0,0,1,0,0,1,0,star,hexagon,1,0,1,0,0,9,9,11,,,,,,,,,,,,639.4295324350242,639.4295324350242,639.4295324350242,639.4295324350242,639.4295324350242,639.4295324350242,639.4295324350242,639.4295324350242,639.4295324350242,639.4295324350242,l,0.9680090311449021,10,418,1,640.4138688510284,641.9154754241463,641.9154754241463,642.4163153010886,,,,,,,,,,,,,,,,,,,,22483,2022-11-08_08h01.33.672,vts_reward_expectancy_bt_OFFLINE,2022.2.4,59.976697863035355,
0,0,1,0,1,0,0,0,hexagon,triangle,1,0,1,0,0,10,10,6,,,,,,,,,,,,642.4163153010886,642.4163153010886,642.4163153010886,642.4163153010886,642.4163153010886,642.4163153010886,642.4163153010886,642.4163153010886,642.4163153010886,642.4163153010886,a,1.0726517718285322,10,428,1,643.5173690801021,,645.0186689251568,,,,,,,,,,,,,,,,,,,,,22483,2022-11-08_08h01.33.672,vts_reward_expectancy_bt_OFFLINE,2022.2.4,59.976697863035355,
1,0,0,0,0,1,0,0,triangle,circle,1,0,1,0,0,11,11,0,,,,,,,,,,,,645.5195470380131,645.5195470380131,645.5195470380131,645.5195470380131,645.5195470380131,645.5195470380131,645.5195470380131,645.5195470380131,645.5195470380131,645.5195470380131,l,0.6141522359102964,1,429,1,646.1533635600936,,647.6551513781305,,,,,,,,,,,,,,,,,,,,,22483,2022-11-08_08h01.33.672,vts_reward_expectancy_bt_OFFLINE,2022.2.4,59.976697863035355,
1,0,0,0,0,0,1,0,triangle,hexagon,1,0,1,0,1,0,12,1,,,,,,,,,,,,648.155825189082,648.155825189082,648.155825189082,648.155825189082,648.155825189082,648.155825189082,648.155825189082,648.155825189082,648.155825189082,648.155825189082,l,1.1856349329464138,10,439,1,649.3738108940888,,650.8754062280059,,,,,,,,,,,,,,,,,,,,,22483,2022-11-08_08h01.33.672,vts_reward_expectancy_bt_OFFLINE,2022.2.4,59.976697863035355,
0,0,1,0,1,0,0,0,hexagon,triangle,1,0,1,0,1,1,13,6,,,,,,,,,,,,651.3758572910447,651.3758572910447,651.3758572910447,651.3758572910447,651.3758572910447,651.3758572910447,651.3758572910447,651.3758572910447,651.3758572910447,651.3758572910447,a,0.8776533589698374,10,449,1,652.2769957080018,,653.7787718852051,,,,,,,,,,,,,,,,,,,,,22483,2022-11-08_08h01.33.672,vts_reward_expectancy_bt_OFFLINE,2022.2.4,59.976697863035355,
0,1,0,0,0,0,0,1,circle,star,1,0,1,0,1,2,14,5,,,,,,,,,,,,654.2791894760448,654.2791894760448,654.2791894760448,654.2791894760448,654.2791894760448,654.2791894760448,654.2791894760448,654.2791894760448,654.2791894760448,654.2791894760448,a,1.4290414701681584,10,459,1,655.7306335601024,657.2322260211222,657.2322260211222,,,,,,,,,,,,,,,,,,,,,22483,2022-11-08_08h01.33.672,vts_reward_expectancy_bt_OFFLINE,2022.2.4,59.976697863035355,
0,0,0,1,0,0,1,0,star,hexagon,1,0,1,0,1,3,15,11,,,,,,,,,,,,657.7327517950907,657.7327517950907,657.7327517950907,657.7327517950907,657.7327517950907,657.7327517950907,657.7327517950907,657.7327517950907,657.7327517950907,657.7327517950907,l,1.473600656958297,10,469,1,659.2346677992027,660.7363515791949,660.7363515791949,,,,,,,,,,,,,,,,,,,,,22483,2022-11-08_08h01.33.672,vts_reward_expectancy_bt_OFFLINE,2022.2.4,59.976697863035355,
0,1,0,0,1,0,0,0,circle,triangle,1,0,1,0,1,4,16,3,,,,,,,,,,,,661.2366301191505,661.2366301191505,661.2366301191505,661.2366301191505,661.2366301191505,661.2366301191505,661.2366301191505,661.2366301191505,661.2366301191505,661.2366301191505,l,0.9191116509027779,10,479,1,662.1878478392027,,663.6895969710313,,,,,,,,,,,,,,,,,,,,,22483,2022-11-08_08h01.33.672,vts_reward_expectancy_bt_OFFLINE,2022.2.4,59.976697863035355,
1,0,0,0,0,0,0,1,triangle,star,1,0,1,0,1,5,17,2,,,,,,,,,,,,664.1900199851952,664.1900199851952,664.1900199851952,664.1900199851952,664.1900199851952,664.1900199851952,664.1900199851952,664.1900199851952,664.1900199851952,664.1900199851952,a,1.2382430187426507,1,480,1,665.4582644191105,,666.9596515651792,,,,,,,,,,,,,,,,,,,,,22483,2022-11-08_08h01.33.672,vts_reward_expectancy_bt_OFFLINE,2022.2.4,59.976697863035355,
0,0,1,0,0,1,0,0,hexagon,circle,1,0,1,0,1,6,18,7,,,,,,,,,,,,667.4603399340995,667.4603399340995,667.4603399340995,667.4603399340995,667.4603399340995,667.4603399340995,667.4603399340995,667.4603399340995,667.4603399340995,667.4603399340995,a,1.2303907310124487,10,490,1,668.711803416023,,670.2134628791828,,,,,,,,,,,,,,,,,,,,,22483,2022-11-08_08h01.33.672,vts_reward_expectancy_bt_OFFLINE,2022.2.4,59.976697863035355,
1,0,0,0,0,1,0,0,triangle,circle,1,0,1,0,1,7,19,0,,,,,,,,,,,,670.7140053191688,670.7140053191688,670.7140053191688,670.7140053191688,670.7140053191688,670.7140053191688,670.7140053191688,670.7140053191688,670.7140053191688,670.7140053191688,a,1.0370988070499152,1,491,1,671.7816642741673,,673.2835567342117,,,,,,,,,,,,,,,,,,,,,22483,2022-11-08_08h01.33.672,vts_reward_expectancy_bt_OFFLINE,2022.2.4,59.976697863035355,
0,0,0,1,0,1,0,0,star ,circle,1,0,1,0,1,8,20,10,,,,,,,,,,,,673.7839529640041,673.7839529640041,673.7839529640041,673.7839529640041,673.7839529640041,673.7839529640041,673.7839529640041,673.7839529640041,673.7839529640041,673.7839529640041,a,1.0727174188941717,1,492,1,674.8851919700392,,676.3869739300571,,,,,,,,,,,,,,,,,,,,,22483,2022-11-08_08h01.33.672,vts_reward_expectancy_bt_OFFLINE,2022.2.4,59.976697863035355,
0,0,1,0,0,0,0,1,hexagon,star,1,0,1,0,1,9,21,8,,,,,,,,,,,,676.8873723810539,676.8873723810539,676.8873723810539,676.8873723810539,676.8873723810539,676.8873723810539,676.8873723810539,676.8873723810539,676.8873723810539,676.8873723810539,l,0.816783444955945,1,493,1,677.7215887431521,679.2232804431114,679.2232804431114,,,,,,,,,,,,,,,,,,,,,22483,2022-11-08_08h01.33.672,vts_reward_expectancy_bt_OFFLINE,2022.2.4,59.976697863035355,
0,0,0,1,1,0,0,0,star,triangle,1,0,1,0,1,10,22,9,,,,,,,,,,,,679.7239850780461,679.7239850780461,679.7239850780461,679.7239850780461,679.7239850780461,679.7239850780461,679.7239850780461,679.7239850780461,679.7239850780461,679.7239850780461,l,1.6926879070233554,1,494,1,681.442335375119,,682.9441005650442,,,,,,,,,,,,,,,,,,,,,22483,2022-11-08_08h01.33.672,vts_reward_expectancy_bt_OFFLINE,2022.2.4,59.976697863035355,
0,1,0,0,0,0,1,0,circle,hexagon,1,0,1,0,1,11,23,4,,,,,,,,,,,,683.444636651082,683.444636651082,683.444636651082,683.444636651082,683.444636651082,683.444636651082,683.444636651082,683.444636651082,683.444636651082,683.444636651082,l,1.245506992097944,10,504,1,684.7124548091087,,686.2142586831469,,,,,,,,,,,,,,,,,,,,,22483,2022-11-08_08h01.33.672,vts_reward_expectancy_bt_OFFLINE,2022.2.4,59.976697863035355,
1,0,0,0,0,0,0,1,triangle,star,1,0,1,0,2,0,24,2,,,,,,,,,,,,686.7149288991932,686.7149288991932,686.7149288991932,686.7149288991932,686.7149288991932,686.7149288991932,686.7149288991932,686.7149288991932,686.7149288991932,686.7149288991932,l,2.6783269848674536,1,505,1,689.4177796239965,,690.9195998460054,,,,,,,,,,,,,,,,,,,,,22483,2022-11-08_08h01.33.672,vts_reward_expectancy_bt_OFFLINE,2022.2.4,59.976697863035355,
0,0,0,1,0,1,0,0,star ,circle,1,0,1,0,2,1,25,10,,,,,,,,,,,,691.4200462561566,691.4200462561566,691.4200462561566,691.4200462561566,691.4200462561566,691.4200462561566,691.4200462561566,691.4200462561566,691.4200462561566,691.4200462561566,a,1.2804726387839764,1,506,1,692.7217296150047,,694.2234626531135,,,,,,,,,,,,,,,,,,,,,22483,2022-11-08_08h01.33.672,vts_reward_expectancy_bt_OFFLINE,2022.2.4,59.976697863035355,
0,1,0,0,0,0,1,0,circle,hexagon,1,0,1,0,2,2,26,4,,,,,,,,,,,,694.7237423080951,694.7237423080951,694.7237423080951,694.7237423080951,694.7237423080951,694.7237423080951,694.7237423080951,694.7237423080951,694.7237423080951,694.7237423080951,l,1.0495664989575744,1,507,1,695.7916592031252,,697.2934525401797,,,,,,,,,,,,,,,,,,,,,22483,2022-11-08_08h01.33.672,vts_reward_expectancy_bt_OFFLINE,2022.2.4,59.976697863035355,
0,1,0,0,1,0,0,0,circle,triangle,1,0,1,0,2,3,27,3,,,,,,,,,,,,697.7938177480828,697.7938177480828,697.7938177480828,697.7938177480828,697.7938177480828,697.7938177480828,697.7938177480828,697.7938177480828,697.7938177480828,697.7938177480828,a,0.7583235870115459,1,508,1,698.5780118850525,,700.0796342301182,,,,,,,,,,,,,,,,,,,,,22483,2022-11-08_08h01.33.672,vts_reward_expectancy_bt_OFFLINE,2022.2.4,59.976697863035355,
0,0,0,1,0,0,1,0,star,hexagon,1,0,1,0,2,4,28,11,,,,,,,,,,,,700.5803315010853,700.5803315010853,700.5803315010853,700.5803315010853,700.5803315010853,700.5803315010853,700.5803315010853,700.5803315010853,700.5803315010853,700.5803315010853,l,0.839164363918826,10,518,1,701.4477830380201,,702.9494632831775,,,,,,,,,,,,,,,,,,,,,22483,2022-11-08_08h01.33.672,vts_reward_expectancy_bt_OFFLINE,2022.2.4,59.976697863035355,
0,0,1,0,1,0,0,0,hexagon,triangle,1,0,1,0,2,5,29,6,,,,,,,,,,,,703.4500747011043,703.4500747011043,703.4500747011043,703.4500747011043,703.4500747011043,703.4500747011043,703.4500747011043,703.4500747011043,703.4500747011043,703.4500747011043,a,1.1658140870276839,10,528,1,704.6348888331559,,706.1365725940559,,,,,,,,,,,,,,,,,,,,,22483,2022-11-08_08h01.33.672,vts_reward_expectancy_bt_OFFLINE,2022.2.4,59.976697863035355,
1,0,0,0,0,1,0,0,triangle,circle,1,0,1,0,2,6,30,0,,,,,,,,,,,,706.6369271811564,706.6369271811564,706.6369271811564,706.6369271811564,706.6369271811564,706.6369271811564,706.6369271811564,706.6369271811564,706.6369271811564,706.6369271811564,l,1.2299563030246645,1,529,1,707.8883315101266,,709.3899795562029,,,,,,,,,,,,,,,,,,,,,22483,2022-11-08_08h01.33.672,vts_reward_expectancy_bt_OFFLINE,2022.2.4,59.976697863035355,
0,1,0,0,0,0,0,1,circle,star,1,0,1,0,2,7,31,5,,,,,,,,,,,,709.8905525950249,709.8905525950249,709.8905525950249,709.8905525950249,709.8905525950249,709.8905525950249,709.8905525950249,709.8905525950249,709.8905525950249,709.8905525950249,l,0.9689238360151649,1,530,1,710.8917344680522,,712.3932716890704,,,,,,,,,,,,,,,,,,,,,22483,2022-11-08_08h01.33.672,vts_reward_expectancy_bt_OFFLINE,2022.2.4,59.976697863035355,
0,0,0,1,1,0,0,0,star,triangle,1,0,1,0,2,8,32,9,,,,,,,,,,,,712.8940407591872,712.8940407591872,712.8940407591872,712.8940407591872,712.8940407591872,712.8940407591872,712.8940407591872,712.8940407591872,712.8940407591872,712.8940407591872,l,1.4089140677824616,10,540,1,714.3286157080438,,715.8305711501744,,,,,,,,,,,,,,,,,,,,,22483,2022-11-08_08h01.33.672,vts_reward_expectancy_bt_OFFLINE,2022.2.4,59.976697863035355,
0,0,1,0,0,0,0,1,hexagon,star,1,0,1,0,2,9,33,8,,,,,,,,,,,,716.3311597991269,716.3311597991269,716.3311597991269,716.3311597991269,716.3311597991269,716.3311597991269,716.3311597991269,716.3311597991269,716.3311597991269,716.3311597991269,a,0.8279287677723914,10,550,1,717.1817942061462,,718.6837373140734,,,,,,,,,,,,,,,,,,,,,22483,2022-11-08_08h01.33.672,vts_reward_expectancy_bt_OFFLINE,2022.2.4,59.976697863035355,
1,0,0,0,0,0,1,0,triangle,hexagon,1,0,1,0,2,10,34,1,,,,,,,,,,,,719.1842716410756,719.1842716410756,719.1842716410756,719.1842716410756,719.1842716410756,719.1842716410756,719.1842716410756,719.1842716410756,719.1842716410756,719.1842716410756,l,0.8680796148255467,10,560,1,720.0850963580888,,721.5865790660027,,,,,,,,,,,,,,,,,,,,,22483,2022-11-08_08h01.33.672,vts_reward_expectancy_bt_OFFLINE,2022.2.4,59.976697863035355,
0,0,1,0,0,1,0,0,hexagon,circle,1,0,1,0,2,11,35,7,,,,,,,,,,,,722.0872138889972,722.0872138889972,722.0872138889972,722.0872138889972,722.0872138889972,722.0872138889972,722.0872138889972,722.0872138889972,722.0872138889972,722.0872138889972,l,1.0688863710965961,10,570,1,723.1885492762085,,724.6900538851041,,,,,,,,,,,,,,,,,,,,,22483,2022-11-08_08h01.33.672,vts_reward_expectancy_bt_OFFLINE,2022.2.4,59.976697863035355,
0,0,1,0,1,0,0,0,hexagon,triangle,1,0,1,0,3,0,36,6,,,,,,,,,,,,725.1908761661034,725.1908761661034,725.1908761661034,725.1908761661034,725.1908761661034,725.1908761661034,725.1908761661034,725.1908761661034,725.1908761661034,725.1908761661034,a,0.9125303099863231,10,580,1,726.1250681611709,,727.626666349126,,,,,,,,,,,,,,,,,,,,,22483,2022-11-08_08h01.33.672,vts_reward_expectancy_bt_OFFLINE,2022.2.4,59.976697863035355,
1,0,0,0,0,0,0,1,triangle,star,1,0,1,0,3,1,37,2,,,,,,,,,,,,728.1271801800467,728.1271801800467,728.1271801800467,728.1271801800467,728.1271801800467,728.1271801800467,728.1271801800467,728.1271801800467,728.1271801800467,728.1271801800467,l,0.8581116141285747,1,581,1,729.0114343990572,,730.5133621389978,,,,,,,,,,,,,,,,,,,,,22483,2022-11-08_08h01.33.672,vts_reward_expectancy_bt_OFFLINE,2022.2.4,59.976697863035355,
0,0,1,0,0,0,0,1,hexagon,star,1,0,1,0,3,2,38,8,,,,,,,,,,,,731.0137401761021,731.0137401761021,731.0137401761021,731.0137401761021,731.0137401761021,731.0137401761021,731.0137401761021,731.0137401761021,731.0137401761021,731.0137401761021,a,1.075927128084004,10,591,1,732.1149563360959,,733.6168298511766,,,,,,,,,,,,,,,,,,,,,22483,2022-11-08_08h01.33.672,vts_reward_expectancy_bt_OFFLINE,2022.2.4,59.976697863035355,
0,0,1,0,0,1,0,0,hexagon,circle,1,0,1,0,3,3,39,7,,,,,,,,,,,,734.1171124351677,734.1171124351677,734.1171124351677,734.1171124351677,734.1171124351677,734.1171124351677,734.1171124351677,734.1171124351677,734.1171124351677,734.1171124351677,l,0.6950038189534098,1,592,1,734.8345580601599,736.3363048131578,736.3363048131578,,,,,,,,,,,,,,,,,,,,,22483,2022-11-08_08h01.33.672,vts_reward_expectancy_bt_OFFLINE,2022.2.4,59.976697863035355,
0,1,0,0,0,0,1,0,circle,hexagon,1,0,1,0,3,4,40,4,,,,,,,,,,,,736.8370775380172,736.8370775380172,736.8370775380172,736.8370775380172,736.8370775380172,736.8370775380172,736.8370775380172,736.8370775380172,736.8370775380172,736.8370775380172,a,0.7874549271073192,10,602,1,737.6545776941348,739.1561302552,739.1561302552,,,,,,,,,,,,,,,,,,,,,22483,2022-11-08_08h01.33.672,vts_reward_expectancy_bt_OFFLINE,2022.2.4,59.976697863035355,
1,0,0,0,0,0,1,0,triangle,hexagon,1,0,1,0,3,5,41,1,,,,,,,,,,,,739.656791718211,739.656791718211,739.656791718211,739.656791718211,739.656791718211,739.656791718211,739.656791718211,739.656791718211,739.656791718211,739.656791718211,l,0.7919582140166312,10,612,1,740.4743290490005,,741.9758408940397,,,,,,,,,,,,,,,,,,,,,22483,2022-11-08_08h01.33.672,vts_reward_expectancy_bt_OFFLINE,2022.2.4,59.976697863035355,
0,0,0,1,1,0,0,0,star,triangle,1,0,1,0,3,6,42,9,,,,,,,,,,,,742.476293026004,742.476293026004,742.476293026004,742.476293026004,742.476293026004,742.476293026004,742.476293026004,742.476293026004,742.476293026004,742.476293026004,l,2.2037182389758527,1,613,1,744.7121008401737,,746.2139492451679,,,,,,,,,,,,,,,,,,,,,22483,2022-11-08_08h01.33.672,vts_reward_expectancy_bt_OFFLINE,2022.2.4,59.976697863035355,
0,1,0,0,0,0,0,1,circle,star,1,0,1,0,3,7,43,5,,,,,,,,,,,,746.7145494162105,746.7145494162105,746.7145494162105,746.7145494162105,746.7145494162105,746.7145494162105,746.7145494162105,746.7145494162105,746.7145494162105,746.7145494162105,a,0.9247450719121844,1,614,1,747.6656227451749,,749.1671387951355,,,,,,,,,,,,,,,,,,,,,22483,2022-11-08_08h01.33.672,vts_reward_expectancy_bt_OFFLINE,2022.2.4,59.976697863035355,
0,1,0,0,1,0,0,0,circle,triangle,1,0,1,0,3,8,44,3,,,,,,,,,,,,749.6677228310145,749.6677228310145,749.6677228310145,749.6677228310145,749.6677228310145,749.6677228310145,749.6677228310145,749.6677228310145,749.6677228310145,749.6677228310145,a,0.5250253479462117,10,624,1,750.2181492091622,,751.7200423330069,,,,,,,,,,,,,,,,,,,,,22483,2022-11-08_08h01.33.672,vts_reward_expectancy_bt_OFFLINE,2022.2.4,59.976697863035355,
1,0,0,0,0,1,0,0,triangle,circle,1,0,1,0,3,9,45,0,,,,,,,,,,,,752.2204802411143,752.2204802411143,752.2204802411143,752.2204802411143,752.2204802411143,752.2204802411143,752.2204802411143,752.2204802411143,752.2204802411143,752.2204802411143,l,0.6848369939252734,1,625,1,752.9379988431465,,754.4396116430871,,,,,,,,,,,,,,,,,,,,,22483,2022-11-08_08h01.33.672,vts_reward_expectancy_bt_OFFLINE,2022.2.4,59.976697863035355,
0,0,0,1,0,1,0,0,star ,circle,1,0,1,0,3,10,46,10,,,,,,,,,,,,754.940137363039,754.940137363039,754.940137363039,754.940137363039,754.940137363039,754.940137363039,754.940137363039,754.940137363039,754.940137363039,754.940137363039,a,0.7869466948322952,1,626,1,755.7577901461627,,757.2594989161007,,,,,,,,,,,,,,,,,,,,,22483,2022-11-08_08h01.33.672,vts_reward_expectancy_bt_OFFLINE,2022.2.4,59.976697863035355,
0,0,0,1,0,0,1,0,star,hexagon,1,0,1,0,3,11,47,11,,,,,,,,,,,,757.7598297691438,757.7598297691438,757.7598297691438,757.7598297691438,757.7598297691438,757.7598297691438,757.7598297691438,757.7598297691438,757.7598297691438,757.7598297691438,l,1.095331883057952,10,636,1,758.8779087041039,760.379467291059,760.379467291059,,,,,,,,,,,,,,,,,,,,,22483,2022-11-08_08h01.33.672,vts_reward_expectancy_bt_OFFLINE,2022.2.4,59.976697863035355,
0,0,1,0,1,0,0,0,hexagon,triangle,2,0,2,0,0,0,0,6,,,,,,,,,,,,764.7510305151809,764.7510305151809,764.7510305151809,764.7510305151809,764.7510305151809,764.7510305151809,764.7510305151809,764.7510305151809,764.7510305151809,764.7510305151809,a,1.5412949870806187,1,637,2,766.3194503160194,767.8210780590307,767.8210780590307,,,,,,,,,,,,,,,,,,,,,22483,2022-11-08_08h01.33.672,vts_reward_expectancy_bt_OFFLINE,2022.2.4,59.976697863035355,
1,0,0,0,0,0,1,0,triangle,hexagon,2,0,2,0,0,1,1,1,,,,,,,,,,,,768.3217936831061,768.3217936831061,768.3217936831061,768.3217936831061,768.3217936831061,768.3217936831061,768.3217936831061,768.3217936831061,768.3217936831061,768.3217936831061,a,1.3023195299319923,10,647,2,769.6565191750415,,771.1581324841827,,,,,,,,,,,,,,,,,,,,,22483,2022-11-08_08h01.33.672,vts_reward_expectancy_bt_OFFLINE,2022.2.4,59.976697863035355,
0,0,0,1,1,0,0,0,star,triangle,2,0,2,0,0,2,2,9,,,,,,,,,,,,771.6586768040434,771.6586768040434,771.6586768040434,771.6586768040434,771.6586768040434,771.6586768040434,771.6586768040434,771.6586768040434,771.6586768040434,771.6586768040434,a,2.4412635578773916,1,648,2,774.1283351790626,,775.6297233880032,,,,,,,,,,,,,,,,,,,,,22483,2022-11-08_08h01.33.672,vts_reward_expectancy_bt_OFFLINE,2022.2.4,59.976697863035355,
0,1,0,0,1,0,0,0,circle,triangle,2,0,2,0,0,3,3,3,,,,,,,,,,,,776.1301940490957,776.1301940490957,776.1301940490957,776.1301940490957,776.1301940490957,776.1301940490957,776.1301940490957,776.1301940490957,776.1301940490957,776.1301940490957,a,0.9961890538688749,1,649,2,777.1479176990688,778.6495619690977,778.6495619690977,,,,,,,,,,,,,,,,,,,,,22483,2022-11-08_08h01.33.672,vts_reward_expectancy_bt_OFFLINE,2022.2.4,59.976697863035355,
1,0,0,0,0,0,0,1,triangle,star,2,0,2,0,0,4,4,2,,,,,,,,,,,,779.1501819391269,779.1501819391269,779.1501819391269,779.1501819391269,779.1501819391269,779.1501819391269,779.1501819391269,779.1501819391269,779.1501819391269,779.1501819391269,a,1.0022632780019194,10,659,2,780.1848309440538,,781.6862522091251,,,,,,,,,,,,,,,,,,,,,22483,2022-11-08_08h01.33.672,vts_reward_expectancy_bt_OFFLINE,2022.2.4,59.976697863035355,
0,0,1,0,0,1,0,0,hexagon,circle,2,0,2,0,0,5,5,7,,,,,,,,,,,,782.1867475481704,782.1867475481704,782.1867475481704,782.1867475481704,782.1867475481704,782.1867475481704,782.1867475481704,782.1867475481704,782.1867475481704,782.1867475481704,a,1.1280375758651644,10,669,2,783.338070649188,,784.8398430380039,,,,,,,,,,,,,,,,,,,,,22483,2022-11-08_08h01.33.672,vts_reward_expectancy_bt_OFFLINE,2022.2.4,59.976697863035355,
0,0,0,1,0,0,1,0,star,hexagon,2,0,2,0,0,6,6,11,,,,,,,,,,,,785.340400199173,785.340400199173,785.340400199173,785.340400199173,785.340400199173,785.340400199173,785.340400199173,785.340400199173,785.340400199173,785.340400199173,a,1.3036322940606624,1,670,2,786.6754747880623,,788.1768359360285,,,,,,,,,,,,,,,,,,,,,22483,2022-11-08_08h01.33.672,vts_reward_expectancy_bt_OFFLINE,2022.2.4,59.976697863035355,
0,1,0,0,0,0,0,1,circle,star,2,0,2,0,0,7,7,5,,,,,,,,,,,,788.6776055751834,788.6776055751834,788.6776055751834,788.6776055751834,788.6776055751834,788.6776055751834,788.6776055751834,788.6776055751834,788.6776055751834,788.6776055751834,l,2.153088944964111,1,671,2,790.8632303231861,792.3649679590017,792.3649679590017,,,,,,,,,,,,,,,,,,,,,22483,2022-11-08_08h01.33.672,vts_reward_expectancy_bt_OFFLINE,2022.2.4,59.976697863035355,
0,0,1,0,0,0,0,1,hexagon,star,2,0,2,0,0,8,8,8,,,,,,,,,,,,792.8655622350052,792.8655622350052,792.8655622350052,792.8655622350052,792.8655622350052,792.8655622350052,792.8655622350052,792.8655622350052,792.8655622350052,792.8655622350052,a,1.4964454399887472,10,681,2,794.3836252680048,795.8853181630839,795.8853181630839,,,,,,,,,,,,,,,,,,,,,22483,2022-11-08_08h01.33.672,vts_reward_expectancy_bt_OFFLINE,2022.2.4,59.976697863035355,
0,0,0,1,0,1,0,0,star ,circle,2,0,2,0,0,9,9,10,,,,,,,,,,,,796.3857657930348,796.3857657930348,796.3857657930348,796.3857657930348,796.3857657930348,796.3857657930348,796.3857657930348,796.3857657930348,796.3857657930348,796.3857657930348,a,0.8795392089523375,10,691,2,797.2868609731086,,798.788502446143,,,,,,,,,,,,,,,,,,,,,22483,2022-11-08_08h01.33.672,vts_reward_expectancy_bt_OFFLINE,2022.2.4,59.976697863035355,
1,0,0,0,0,1,0,0,triangle,circle,2,0,2,0,0,10,10,0,,,,,,,,,,,,799.289184394991,799.289184394991,799.289184394991,799.289184394991,799.289184394991,799.289184394991,799.289184394991,799.289184394991,799.289184394991,799.289184394991,a,1.396525789052248,1,692,2,800.7072571101598,,802.2089495540131,,,,,,,,,,,,,,,,,,,,,22483,2022-11-08_08h01.33.672,vts_reward_expectancy_bt_OFFLINE,2022.2.4,59.976697863035355,
0,1,0,0,0,0,1,0,circle,hexagon,2,0,2,0,0,11,11,4,,,,,,,,,,,,802.7095172980335,802.7095172980335,802.7095172980335,802.7095172980335,802.7095172980335,802.7095172980335,802.7095172980335,802.7095172980335,802.7095172980335,802.7095172980335,a,1.5543128559365869,1,693,2,804.2947409250773,,805.7962000861298,,,,,,,,,,,,,,,,,,,,,22483,2022-11-08_08h01.33.672,vts_reward_expectancy_bt_OFFLINE,2022.2.4,59.976697863035355,
0,0,1,0,0,0,0,1,hexagon,star,2,0,2,0,1,0,12,8,,,,,,,,,,,,806.2969151129946,806.2969151129946,806.2969151129946,806.2969151129946,806.2969151129946,806.2969151129946,806.2969151129946,806.2969151129946,806.2969151129946,806.2969151129946,l,0.7348096289206296,1,694,2,807.0643036181573,808.5659786241595,808.5659786241595,809.066648760112,,,,,,,,,,,,,,,,,,,,22483,2022-11-08_08h01.33.672,vts_reward_expectancy_bt_OFFLINE,2022.2.4,59.976697863035355,
0,0,0,1,0,1,0,0,star ,circle,2,0,2,0,1,1,13,10,,,,,,,,,,,,809.066648760112,809.066648760112,809.066648760112,809.066648760112,809.066648760112,809.066648760112,809.066648760112,809.066648760112,809.066648760112,809.066648760112,l,0.8110664759296924,1,695,2,809.9010690650903,,811.4024334410205,,,,,,,,,,,,,,,,,,,,,22483,2022-11-08_08h01.33.672,vts_reward_expectancy_bt_OFFLINE,2022.2.4,59.976697863035355,
0,0,0,1,0,0,1,0,star,hexagon,2,0,2,0,1,2,14,11,,,,,,,,,,,,811.9029374402016,811.9029374402016,811.9029374402016,811.9029374402016,811.9029374402016,811.9029374402016,811.9029374402016,811.9029374402016,811.9029374402016,811.9029374402016,a,0.5953675128985196,1,696,2,812.5204249310773,,814.0223343151156,,,,,,,,,,,,,,,,,,,,,22483,2022-11-08_08h01.33.672,vts_reward_expectancy_bt_OFFLINE,2022.2.4,59.976697863035355,
0,0,1,0,0,1,0,0,hexagon,circle,2,0,2,0,1,3,15,7,,,,,,,,,,,,814.5226758050267,814.5226758050267,814.5226758050267,814.5226758050267,814.5226758050267,814.5226758050267,814.5226758050267,814.5226758050267,814.5226758050267,814.5226758050267,l,0.5640221599023789,1,697,2,815.1065494541544,,816.6082926150411,,,,,,,,,,,,,,,,,,,,,22483,2022-11-08_08h01.33.672,vts_reward_expectancy_bt_OFFLINE,2022.2.4,59.976697863035355,
0,1,0,0,1,0,0,0,circle,triangle,2,0,2,0,1,4,16,3,,,,,,,,,,,,817.1086903701071,817.1086903701071,817.1086903701071,817.1086903701071,817.1086903701071,817.1086903701071,817.1086903701071,817.1086903701071,817.1086903701071,817.1086903701071,a,0.32957225595600903,1,698,2,817.4594351851847,818.9608481330797,818.9608481330797,,,,,,,,,,,,,,,,,,,,,22483,2022-11-08_08h01.33.672,vts_reward_expectancy_bt_OFFLINE,2022.2.4,59.976697863035355,
1,0,0,0,0,0,0,1,triangle,star,2,0,2,0,1,5,17,2,,,,,,,,,,,,819.4614875051193,819.4614875051193,819.4614875051193,819.4614875051193,819.4614875051193,819.4614875051193,819.4614875051193,819.4614875051193,819.4614875051193,819.4614875051193,l,0.6538151358254254,1,699,2,820.1452749581076,,821.6470437590033,,,,,,,,,,,,,,,,,,,,,22483,2022-11-08_08h01.33.672,vts_reward_expectancy_bt_OFFLINE,2022.2.4,59.976697863035355,
1,0,0,0,0,0,1,0,triangle,hexagon,2,0,2,0,1,6,18,1,,,,,,,,,,,,822.1477141031064,822.1477141031064,822.1477141031064,822.1477141031064,822.1477141031064,822.1477141031064,822.1477141031064,822.1477141031064,822.1477141031064,822.1477141031064,l,0.31957135000266135,10,709,2,822.497947358992,,823.9996109551284,,,,,,,,,,,,,,,,,,,,,22483,2022-11-08_08h01.33.672,vts_reward_expectancy_bt_OFFLINE,2022.2.4,59.976697863035355,
0,0,1,0,1,0,0,0,hexagon,triangle,2,0,2,0,1,7,19,6,,,,,,,,,,,,824.5003653999884,824.5003653999884,824.5003653999884,824.5003653999884,824.5003653999884,824.5003653999884,824.5003653999884,824.5003653999884,824.5003653999884,824.5003653999884,a,0.4419374449644238,1,710,2,824.9679100192152,,826.4690550430678,,,,,,,,,,,,,,,,,,,,,22483,2022-11-08_08h01.33.672,vts_reward_expectancy_bt_OFFLINE,2022.2.4,59.976697863035355,
0,1,0,0,0,0,0,1,circle,star,2,0,2,0,1,8,20,5,,,,,,,,,,,,826.969869869994,826.969869869994,826.969869869994,826.969869869994,826.969869869994,826.969869869994,826.969869869994,826.969869869994,826.969869869994,826.969869869994,l,0.3125173000153154,1,711,2,827.3033133700956,,828.8051741442177,,,,,,,,,,,,,,,,,,,,,22483,2022-11-08_08h01.33.672,vts_reward_expectancy_bt_OFFLINE,2022.2.4,59.976697863035355,
0,0,0,1,1,0,0,0,star,triangle,2,0,2,0,1,9,21,9,,,,,,,,,,,,829.3056497951038,829.3056497951038,829.3056497951038,829.3056497951038,829.3056497951038,829.3056497951038,829.3056497951038,829.3056497951038,829.3056497951038,829.3056497951038,a,0.620920113986358,1,712,2,829.9564759561326,,831.4578582760878,,,,,,,,,,,,,,,,,,,,,22483,2022-11-08_08h01.33.672,vts_reward_expectancy_bt_OFFLINE,2022.2.4,59.976697863035355,
1,0,0,0,0,1,0,0,triangle,circle,2,0,2,0,1,10,22,0,,,,,,,,,,,,831.9586178190075,831.9586178190075,831.9586178190075,831.9586178190075,831.9586178190075,831.9586178190075,831.9586178190075,831.9586178190075,831.9586178190075,831.9586178190075,l,0.6349951699376106,1,713,2,832.6258946009912,,834.1275324930903,,,,,,,,,,,,,,,,,,,,,22483,2022-11-08_08h01.33.672,vts_reward_expectancy_bt_OFFLINE,2022.2.4,59.976697863035355,
0,1,0,0,0,0,1,0,circle,hexagon,2,0,2,0,1,11,23,4,,,,,,,,,,,,834.6280666391831,834.6280666391831,834.6280666391831,834.6280666391831,834.6280666391831,834.6280666391831,834.6280666391831,834.6280666391831,834.6280666391831,834.6280666391831,a,0.6322270969394594,1,714,2,835.2789015611634,,836.780401383061,,,,,,,,,,,,,,,,,,,,,22483,2022-11-08_08h01.33.672,vts_reward_expectancy_bt_OFFLINE,2022.2.4,59.976697863035355,
0,0,1,0,0,0,0,1,hexagon,star,2,0,2,0,2,0,24,8,,,,,,,,,,,,837.2810304651503,837.2810304651503,837.2810304651503,837.2810304651503,837.2810304651503,837.2810304651503,837.2810304651503,837.2810304651503,837.2810304651503,837.2810304651503,a,1.052174282958731,10,724,2,838.3655685600825,,839.867305988213,,,,,,,,,,,,,,,,,,,,,22483,2022-11-08_08h01.33.672,vts_reward_expectancy_bt_OFFLINE,2022.2.4,59.976697863035355,
1,0,0,0,0,0,1,0,triangle,hexagon,2,0,2,0,2,1,25,1,,,,,,,,,,,,840.367689778097,840.367689778097,840.367689778097,840.367689778097,840.367689778097,840.367689778097,840.367689778097,840.367689778097,840.367689778097,840.367689778097,l,1.0463274109642953,10,734,2,841.4355065010022,,842.9371942901053,,,,,,,,,,,,,,,,,,,,,22483,2022-11-08_08h01.33.672,vts_reward_expectancy_bt_OFFLINE,2022.2.4,59.976697863035355,
1,0,0,0,0,0,0,1,triangle,star,2,0,2,0,2,2,26,2,,,,,,,,,,,,843.4379946151748,843.4379946151748,843.4379946151748,843.4379946151748,843.4379946151748,843.4379946151748,843.4379946151748,843.4379946151748,843.4379946151748,843.4379946151748,l,0.8447017699945718,1,735,2,844.305800764123,,845.8072622360196,,,,,,,,,,,,,,,,,,,,,22483,2022-11-08_08h01.33.672,vts_reward_expectancy_bt_OFFLINE,2022.2.4,59.976697863035355,
0,1,0,0,0,0,0,1,circle,star,2,0,2,0,2,3,27,5,,,,,,,,,,,,846.3077091800515,846.3077091800515,846.3077091800515,846.3077091800515,846.3077091800515,846.3077091800515,846.3077091800515,846.3077091800515,846.3077091800515,846.3077091800515,a,0.5411595399491489,10,745,2,846.8759646341205,848.3766043290962,848.3766043290962,848.877424514154,,,,,,,,,,,,,,,,,,,,22483,2022-11-08_08h01.33.672,vts_reward_expectancy_bt_OFFLINE,2022.2.4,59.976697863035355,
0,1,0,0,1,0,0,0,circle,triangle,2,0,2,0,2,4,28,3,,,,,,,,,,,,848.877424514154,848.877424514154,848.877424514154,848.877424514154,848.877424514154,848.877424514154,848.877424514154,848.877424514154,848.877424514154,848.877424514154,l,0.7173851828556508,10,755,2,849.6113946461119,851.1130607340019,851.1130607340019,851.6137220610399,,,,,,,,,,,,,,,,,,,,22483,2022-11-08_08h01.33.672,vts_reward_expectancy_bt_OFFLINE,2022.2.4,59.976697863035355,
0,0,1,0,0,1,0,0,hexagon,circle,2,0,2,0,2,5,29,7,,,,,,,,,,,,851.6137220610399,851.6137220610399,851.6137220610399,851.6137220610399,851.6137220610399,851.6137220610399,851.6137220610399,851.6137220610399,851.6137220610399,851.6137220610399,a,0.6455456227995455,10,765,2,852.2809867090546,,853.782411595108,,,,,,,,,,,,,,,,,,,,,22483,2022-11-08_08h01.33.672,vts_reward_expectancy_bt_OFFLINE,2022.2.4,59.976697863035355,
1,0,0,0,0,1,0,0,triangle,circle,2,0,2,0,2,6,30,0,,,,,,,,,,,,854.2832633550279,854.2832633550279,854.2832633550279,854.2832633550279,854.2832633550279,854.2832633550279,854.2832633550279,854.2832633550279,854.2832633550279,854.2832633550279,a,0.9585163649171591,1,766,2,855.2680429450702,,856.7693631050643,,,,,,,,,,,,,,,,,,,,,22483,2022-11-08_08h01.33.672,vts_reward_expectancy_bt_OFFLINE,2022.2.4,59.976697863035355,
0,1,0,0,0,0,1,0,circle,hexagon,2,0,2,0,2,7,31,4,,,,,,,,,,,,857.269693014212,857.269693014212,857.269693014212,857.269693014212,857.269693014212,857.269693014212,857.269693014212,857.269693014212,857.269693014212,857.269693014212,l,0.7520071261096746,10,776,2,858.0706926991697,,859.5724827980157,,,,,,,,,,,,,,,,,,,,,22483,2022-11-08_08h01.33.672,vts_reward_expectancy_bt_OFFLINE,2022.2.4,59.976697863035355,
0,0,0,1,1,0,0,0,star,triangle,2,0,2,0,2,8,32,9,,,,,,,,,,,,860.0563864151482,860.0563864151482,860.0563864151482,860.0563864151482,860.0563864151482,860.0563864151482,860.0563864151482,860.0563864151482,860.0563864151482,860.0563864151482,a,0.9784199600107968,1,777,2,861.0577458990738,,862.5591036851984,,,,,,,,,,,,,,,,,,,,,22483,2022-11-08_08h01.33.672,vts_reward_expectancy_bt_OFFLINE,2022.2.4,59.976697863035355,
0,0,1,0,1,0,0,0,hexagon,triangle,2,0,2,0,2,9,33,6,,,,,,,,,,,,863.0594792140182,863.0594792140182,863.0594792140182,863.0594792140182,863.0594792140182,863.0594792140182,863.0594792140182,863.0594792140182,863.0594792140182,863.0594792140182,a,0.911868309834972,10,787,2,863.9944157230202,,865.4956830560695,,,,,,,,,,,,,,,,,,,,,22483,2022-11-08_08h01.33.672,vts_reward_expectancy_bt_OFFLINE,2022.2.4,59.976697863035355,
0,0,0,1,0,1,0,0,star ,circle,2,0,2,0,2,10,34,10,,,,,,,,,,,,865.9962384351529,865.9962384351529,865.9962384351529,865.9962384351529,865.9962384351529,865.9962384351529,865.9962384351529,865.9962384351529,865.9962384351529,865.9962384351529,l,0.9349179889541119,1,788,2,866.9639373600949,,868.4654311260674,,,,,,,,,,,,,,,,,,,,,22483,2022-11-08_08h01.33.672,vts_reward_expectancy_bt_OFFLINE,2022.2.4,59.976697863035355,
0,0,0,1,0,0,1,0,star,hexagon,2,0,2,0,2,11,35,11,,,,,,,,,,,,868.9659428901505,868.9659428901505,868.9659428901505,868.9659428901505,868.9659428901505,868.9659428901505,868.9659428901505,868.9659428901505,868.9659428901505,868.9659428901505,l,0.8445173418149352,1,789,2,869.8336135600694,,871.33540068008,,,,,,,,,,,,,,,,,,,,,22483,2022-11-08_08h01.33.672,vts_reward_expectancy_bt_OFFLINE,2022.2.4,59.976697863035355,
1,0,0,0,0,1,0,0,triangle,circle,2,0,2,0,3,0,36,0,,,,,,,,,,,,871.8360015330836,871.8360015330836,871.8360015330836,871.8360015330836,871.8360015330836,871.8360015330836,871.8360015330836,871.8360015330836,871.8360015330836,871.8360015330836,l,2.2848914701025933,1,790,2,874.1384591381066,875.6401310681831,875.6401310681831,,,,,,,,,,,,,,,,,,,,,22483,2022-11-08_08h01.33.672,vts_reward_expectancy_bt_OFFLINE,2022.2.4,59.976697863035355,
0,0,1,0,0,1,0,0,hexagon,circle,2,0,2,0,3,1,37,7,,,,,,,,,,,,876.1406368929893,876.1406368929893,876.1406368929893,876.1406368929893,876.1406368929893,876.1406368929893,876.1406368929893,876.1406368929893,876.1406368929893,876.1406368929893,a,0.7803815577644855,1,791,2,876.9415683781262,878.443291383097,878.443291383097,,,,,,,,,,,,,,,,,,,,,22483,2022-11-08_08h01.33.672,vts_reward_expectancy_bt_OFFLINE,2022.2.4,59.976697863035355,
0,0,1,0,0,0,0,1,hexagon,star,2,0,2,0,3,2,38,8,,,,,,,,,,,,878.9437739811838,878.9437739811838,878.9437739811838,878.9437739811838,878.9437739811838,878.9437739811838,878.9437739811838,878.9437739811838,878.9437739811838,878.9437739811838,a,1.6788120628334582,10,801,2,880.64610008616,,882.1472089712042,,,,,,,,,,,,,,,,,,,,,22483,2022-11-08_08h01.33.672,vts_reward_expectancy_bt_OFFLINE,2022.2.4,59.976697863035355,
0,1,0,0,0,0,1,0,circle,hexagon,2,0,2,0,3,3,39,4,,,,,,,,,,,,882.6478511560708,882.6478511560708,882.6478511560708,882.6478511560708,882.6478511560708,882.6478511560708,882.6478511560708,882.6478511560708,882.6478511560708,882.6478511560708,a,0.9556281911209226,1,802,2,883.6328615262173,,885.1339900100138,,,,,,,,,,,,,,,,,,,,,22483,2022-11-08_08h01.33.672,vts_reward_expectancy_bt_OFFLINE,2022.2.4,59.976697863035355,
0,0,0,1,0,0,1,0,star,hexagon,2,0,2,0,3,4,40,11,,,,,,,,,,,,885.6344865881838,885.6344865881838,885.6344865881838,885.6344865881838,885.6344865881838,885.6344865881838,885.6344865881838,885.6344865881838,885.6344865881838,885.6344865881838,l,0.5926348259672523,10,812,2,886.268387174001,,887.7534820311703,,,,,,,,,,,,,,,,,,,,,22483,2022-11-08_08h01.33.672,vts_reward_expectancy_bt_OFFLINE,2022.2.4,59.976697863035355,
0,0,1,0,1,0,0,0,hexagon,triangle,2,0,2,0,3,5,41,6,,,,,,,,,,,,888.254060289124,888.254060289124,888.254060289124,888.254060289124,888.254060289124,888.254060289124,888.254060289124,888.254060289124,888.254060289124,888.254060289124,a,0.818513385951519,10,822,2,889.1048993701115,,890.6064366360661,,,,,,,,,,,,,,,,,,,,,22483,2022-11-08_08h01.33.672,vts_reward_expectancy_bt_OFFLINE,2022.2.4,59.976697863035355,
0,1,0,0,0,0,0,1,circle,star,2,0,2,0,3,6,42,5,,,,,,,,,,,,891.1071618529968,891.1071618529968,891.1071618529968,891.1071618529968,891.1071618529968,891.1071618529968,891.1071618529968,891.1071618529968,891.1071618529968,891.1071618529968,a,1.2044765469618142,1,823,2,892.3419637181796,,893.8433751030825,,,,,,,,,,,,,,,,,,,,,22483,2022-11-08_08h01.33.672,vts_reward_expectancy_bt_OFFLINE,2022.2.4,59.976697863035355,
1,0,0,0,0,0,1,0,triangle,hexagon,2,0,2,0,3,7,43,1,,,,,,,,,,,,894.3441053400747,894.3441053400747,894.3441053400747,894.3441053400747,894.3441053400747,894.3441053400747,894.3441053400747,894.3441053400747,894.3441053400747,894.3441053400747,l,0.8596125319600105,10,833,2,895.2291547839995,896.7299795390572,896.7299795390572,,,,,,,,,,,,,,,,,,,,,22483,2022-11-08_08h01.33.672,vts_reward_expectancy_bt_OFFLINE,2022.2.4,59.976697863035355,
1,0,0,0,0,0,0,1,triangle,star,2,0,2,0,3,8,44,2,,,,,,,,,,,,897.2305051691364,897.2305051691364,897.2305051691364,897.2305051691364,897.2305051691364,897.2305051691364,897.2305051691364,897.2305051691364,897.2305051691364,897.2305051691364,l,0.8991805999539793,1,834,2,898.1485771250445,,899.649695695145,,,,,,,,,,,,,,,,,,,,,22483,2022-11-08_08h01.33.672,vts_reward_expectancy_bt_OFFLINE,2022.2.4,59.976697863035355,
0,0,0,1,0,1,0,0,star ,circle,2,0,2,0,3,9,45,10,,,,,,,,,,,,900.1504265849944,900.1504265849944,900.1504265849944,900.1504265849944,900.1504265849944,900.1504265849944,900.1504265849944,900.1504265849944,900.1504265849944,900.1504265849944,a,0.7454278550576419,1,835,2,900.917876083171,,902.4195169850718,,,,,,,,,,,,,,,,,,,,,22483,2022-11-08_08h01.33.672,vts_reward_expectancy_bt_OFFLINE,2022.2.4,59.976697863035355,
0,1,0,0,1,0,0,0,circle,triangle,2,0,2,0,3,10,46,3,,,,,,,,,,,,902.9201165731065,902.9201165731065,902.9201165731065,902.9201165731065,902.9201165731065,902.9201165731065,902.9201165731065,902.9201165731065,902.9201165731065,902.9201165731065,a,1.3753226108383387,1,836,2,904.3217272751499,,905.8236046780366,,,,,,,,,,,,,,,,,,,,,22483,2022-11-08_08h01.33.672,vts_reward_expectancy_bt_OFFLINE,2022.2.4,59.976697863035355,
0,0,0,1,1,0,0,0,star,triangle,2,0,2,0,3,11,47,9,,,,,,,,,,,,906.3239927859977,906.3239927859977,906.3239927859977,906.3239927859977,906.3239927859977,906.3239927859977,906.3239927859977,906.3239927859977,906.3239927859977,906.3239927859977,l,0.8516112978104502,10,846,2,907.2081755630206,,908.7097389551345,,,,,,,,,,,,,,,,,,,,,22483,2022-11-08_08h01.33.672,vts_reward_expectancy_bt_OFFLINE,2022.2.4,59.976697863035355,
,,,,,,,,,,,,,,,,,,0,0,0,0,0,0,0,0,,,,,,,,,,,,,,,,,,,,,942.5638506112155,943.0643970451783,160,F,hexagon,0.0017740479670464993,936.5574317590799,938.0590891111642,938.0590891111642,938.0590891111642,941.0623170840554,941.0623170840554,941.0623170840554,941.0623170840554,0,0,None,0,941.0623170840554,942.5638506112155,,22483,2022-11-08_08h01.33.672,vts_reward_expectancy_bt_OFFLINE,2022.2.4,59.976697863035355,
,,,,,,,,,,,,,,,,,,0,0,0,0,1,0,1,0,,,,,,,,,,,,,,,,,,,,,948.0199494392145,,181,Y,triangle,0.008759347954764962,943.5649249730632,945.0665891531389,945.0665891531389,945.0665891531389,,,,,0,1,d,0,946.5181830050424,948.0199494392145,1.4192999450024217,22483,2022-11-08_08h01.33.672,vts_reward_expectancy_bt_OFFLINE,2022.2.4,59.976697863035355,
,,,,,,,,,,,,,,,,,,0,0,0,0,2,0,2,0,,,,,,,,,,,,,,,,,,,,,953.842847425025,,125,U,star,0.001235433854162693,949.005429983139,950.5060587942135,950.5060587942135,950.5060587942135,,,,,1,1,d,0,952.3580560490955,,1.8087561768479645,22483,2022-11-08_08h01.33.672,vts_reward_expectancy_bt_OFFLINE,2022.2.4,59.976697863035355,
,,,,,,,,,,,,,,,,,,0,0,0,0,3,0,3,0,,,,,,,,,,,,,,,,,,,,,958.8818227390293,,132,D,circle,0.0008969088084995747,954.8273966440465,956.3288145510014,956.3288145510014,956.3288145510014,,,,,1,0,d,0,957.3802164741792,958.8818227390293,1.024748324882239,22483,2022-11-08_08h01.33.672,vts_reward_expectancy_bt_OFFLINE,2022.2.4,59.976697863035355,
,,,,,,,,,,,,,,,,,,0,0,0,0,4,0,4,0,,,,,,,,,,,,,,,,,,,,,963.4870335632004,,167,S,circle,0.0012389670591801405,959.8666847390123,961.3678469459992,961.3678469459992,961.3678469459992,,,,,1,0,f,0,961.9852416650392,,0.5992268829140812,22483,2022-11-08_08h01.33.672,vts_reward_expectancy_bt_OFFLINE,2022.2.4,59.976697863035355,
,,,,,,,,,,,,,,,,,,0,0,0,0,5,0,5,0,,,,,,,,,,,,,,,,,,,,,969.660502065206,,139,B,star,0.0012226039543747902,964.4713663251605,965.9729258650914,965.9729258650914,965.9729258650914,,,,,1,0,d,0,968.1587430401705,,2.16006155195646,22483,2022-11-08_08h01.33.672,vts_reward_expectancy_bt_OFFLINE,2022.2.4,59.976697863035355,
,,,,,,,,,,,,,,,,,,0,0,0,0,6,0,6,0,,,,,,,,,,,,,,,,,,,,,975.1999057491776,,146,H,hexagon,0.001040539937093854,970.6453698081896,972.1464122789912,972.1464122789912,972.1464122789912,,,,,1,0,d,0,973.6982217740733,,1.5205577411688864,22483,2022-11-08_08h01.33.672,vts_reward_expectancy_bt_OFFLINE,2022.2.4,59.976697863035355,
,,,,,,,,,,,,,,,,,,0,0,0,0,7,0,7,0,,,,,,,,,,,,,,,,,,,,,979.738086195197,,174,W,triangle,0.0010762750171124935,976.1841788052116,977.6861386050005,977.6861386050005,977.6861386050005,,,,,1,0,f,0,978.2367235580459,979.738086195197,0.5255259808618575,22483,2022-11-08_08h01.33.672,vts_reward_expectancy_bt_OFFLINE,2022.2.4,59.976697863035355,
,,,,,,,,,,,,,,,,,,0,0,0,0,8,0,8,0,,,,,,,,,,,,,,,,,,,,,984.9439794840291,,160,F,circle,0.0010620311368256807,980.7226715660654,982.2241468250286,982.2241468250286,982.2241468250286,,,,,1,0,f,0,983.4421730181202,,1.1858379270415753,22483,2022-11-08_08h01.33.672,vts_reward_expectancy_bt_OFFLINE,2022.2.4,59.976697863035355,
,,,,,,,,,,,,,,,,,,0,0,0,0,9,0,9,0,,,,,,,,,,,,,,,,,,,,,989.7325061960146,,181,Y,triangle,0.001282932935282588,985.9282920740079,987.4300809130073,987.4300809130073,987.4300809130073,,,,,1,0,f,0,988.2307013731916,,0.7746430309489369,22483,2022-11-08_08h01.33.672,vts_reward_expectancy_bt_OFFLINE,2022.2.4,59.976697863035355,
