LTriangleOpac,LCircleOpac,LHexagonOpac,LStarOpac,RTriangleOpac,RCircleOpac,RHexagonOpac,RStarOpac,LShape_ID,RShape_ID,training_blocks.thisRepN,training_blocks.thisTrialN,training_blocks.thisN,training_blocks.thisIndex,training.thisRepN,training.thisTrialN,training.thisN,training.thisIndex,key_resp.started,key_resp.keys,key_resp.rt,left_circle.started,right_circle.started,left_triangle.started,right_triangle.started,left_star.started,right_star.started,left_hexagon.started,right_hexagon.started,training_fix.started,training_resp.started,training_resp.keys,training_resp.rt,points_trial,points_cumul,trainBlock,training_feedback_txt.started,fix.started,training_feedback_txt.stopped,fix.stopped,participant,date,expName,psychopyVersion,frameRate,
,,,,,,,,,,,,,,,,,,15.709405650995905,space,5.032151088991668,,,,,,,,,,,,,,,,,,,,25726,2022-11-29_14h07.46.306,vts_reward_expectancy_bt_OFFLINE,2022.2.4,59.946027953898465,
0,1,0,0,1,0,0,0,circle,triangle,0,0,0,0,0,0,0,3,,,,21.30702847801149,21.30702847801149,21.30702847801149,21.30702847801149,21.30702847801149,21.30702847801149,21.30702847801149,21.30702847801149,21.30702847801149,21.30702847801149,a,0.5120778999989852,10,10,0,21.841872269986197,23.34420647699153,,,25726,2022-11-29_14h07.46.306,vts_reward_expectancy_bt_OFFLINE,2022.2.4,59.946027953898465,
0,0,0,1,1,0,0,0,star,triangle,0,0,0,0,0,1,1,9,,,,23.84423318199697,23.84423318199697,23.84423318199697,23.84423318199697,23.84423318199697,23.84423318199697,23.84423318199697,23.84423318199697,23.84423318199697,23.84423318199697,a,0.5738409209880047,1,11,0,24.444850797008257,25.946344897995004,,,25726,2022-11-29_14h07.46.306,vts_reward_expectancy_bt_OFFLINE,2022.2.4,59.946027953898465,
0,0,0,1,0,1,0,0,star ,circle,0,0,0,0,0,2,2,10,,,,26.447162244003266,26.447162244003266,26.447162244003266,26.447162244003266,26.447162244003266,26.447162244003266,26.447162244003266,26.447162244003266,26.447162244003266,26.447162244003266,a,12.855858566996176,1,12,0,39.327775034005754,40.82937328299158,,,25726,2022-11-29_14h07.46.306,vts_reward_expectancy_bt_OFFLINE,2022.2.4,59.946027953898465,
1,0,0,0,0,1,0,0,triangle,circle,0,0,0,0,0,3,3,0,,,,41.3300388790085,41.3300388790085,41.3300388790085,41.3300388790085,41.3300388790085,41.3300388790085,41.3300388790085,41.3300388790085,41.3300388790085,41.3300388790085,l,0.10904651597957127,10,22,0,41.46394434501417,42.96540646100766,,,25726,2022-11-29_14h07.46.306,vts_reward_expectancy_bt_OFFLINE,2022.2.4,59.946027953898465,
1,0,0,0,0,0,1,0,triangle,hexagon,0,0,0,0,0,4,4,1,,,,43.4656048270117,43.4656048270117,43.4656048270117,43.4656048270117,43.4656048270117,43.4656048270117,43.4656048270117,43.4656048270117,43.4656048270117,43.4656048270117,l,0.06755617700400762,1,23,0,43.565985842986265,45.06758746600826,,,25726,2022-11-29_14h07.46.306,vts_reward_expectancy_bt_OFFLINE,2022.2.4,59.946027953898465,
0,0,1,0,1,0,0,0,hexagon,triangle,0,0,0,0,0,5,5,6,,,,45.56810722700902,45.56810722700902,45.56810722700902,45.56810722700902,45.56810722700902,45.56810722700902,45.56810722700902,45.56810722700902,45.56810722700902,45.56810722700902,l,0.0445920120109804,1,24,0,45.63531129001058,47.13685537700076,,,25726,2022-11-29_14h07.46.306,vts_reward_expectancy_bt_OFFLINE,2022.2.4,59.946027953898465,
0,1,0,0,0,0,0,1,circle,star,0,0,0,0,0,6,6,5,,,,47.6369798030064,47.6369798030064,47.6369798030064,47.6369798030064,47.6369798030064,47.6369798030064,47.6369798030064,47.6369798030064,47.6369798030064,47.6369798030064,a,0.20331428397912532,10,34,0,47.87051918701036,49.37235627800692,,,25726,2022-11-29_14h07.46.306,vts_reward_expectancy_bt_OFFLINE,2022.2.4,59.946027953898465,
0,0,0,1,0,0,1,0,star,hexagon,0,0,0,0,0,7,7,11,,,,49.87255866400665,49.87255866400665,49.87255866400665,49.87255866400665,49.87255866400665,49.87255866400665,49.87255866400665,49.87255866400665,49.87255866400665,49.87255866400665,l,0.18458340500365011,10,44,0,50.08947128299042,51.5914728330099,,,25726,2022-11-29_14h07.46.306,vts_reward_expectancy_bt_OFFLINE,2022.2.4,59.946027953898465,
1,0,0,0,0,0,0,1,triangle,star,0,0,0,0,0,8,8,2,,,,52.09174641399295,52.09174641399295,52.09174641399295,52.09174641399295,52.09174641399295,52.09174641399295,52.09174641399295,52.09174641399295,52.09174641399295,52.09174641399295,l,0.05783258599694818,1,45,0,52.17511027198634,53.676817024999764,,,25726,2022-11-29_14h07.46.306,vts_reward_expectancy_bt_OFFLINE,2022.2.4,59.946027953898465,
0,1,0,0,0,0,1,0,circle,hexagon,0,0,0,0,0,9,9,4,,,,54.1776294450101,54.1776294450101,54.1776294450101,54.1776294450101,54.1776294450101,54.1776294450101,54.1776294450101,54.1776294450101,54.1776294450101,54.1776294450101,l,0.03064355399692431,1,46,0,54.22741925099399,55.72903343901271,,,25726,2022-11-29_14h07.46.306,vts_reward_expectancy_bt_OFFLINE,2022.2.4,59.946027953898465,
0,0,1,0,0,0,0,1,hexagon,star,0,0,0,0,0,10,10,8,,,,56.2296498400101,56.2296498400101,56.2296498400101,56.2296498400101,56.2296498400101,56.2296498400101,56.2296498400101,56.2296498400101,56.2296498400101,56.2296498400101,l,0.017180840979563072,1,47,0,56.263039609999396,57.76475495600607,,,25726,2022-11-29_14h07.46.306,vts_reward_expectancy_bt_OFFLINE,2022.2.4,59.946027953898465,
0,0,1,0,0,1,0,0,hexagon,circle,0,0,0,0,0,11,11,7,,,,58.26520749498741,58.26520749498741,58.26520749498741,58.26520749498741,58.26520749498741,58.26520749498741,58.26520749498741,58.26520749498741,58.26520749498741,58.26520749498741,l,0.4091153839835897,1,48,0,58.699200308998115,60.20084469098947,,,25726,2022-11-29_14h07.46.306,vts_reward_expectancy_bt_OFFLINE,2022.2.4,59.946027953898465,
0,1,0,0,0,0,1,0,circle,hexagon,0,0,0,0,1,0,12,4,,,,60.701337233011145,60.701337233011145,60.701337233011145,60.701337233011145,60.701337233011145,60.701337233011145,60.701337233011145,60.701337233011145,60.701337233011145,60.701337233011145,a,0.7638812549703289,10,58,0,61.485513063991675,62.987133120012004,,,25726,2022-11-29_14h07.46.306,vts_reward_expectancy_bt_OFFLINE,2022.2.4,59.946027953898465,
1,0,0,0,0,0,0,1,triangle,star,0,0,0,0,1,1,13,2,,,,63.48764006400597,63.48764006400597,63.48764006400597,63.48764006400597,63.48764006400597,63.48764006400597,63.48764006400597,63.48764006400597,63.48764006400597,63.48764006400597,l,0.014543744997354224,1,59,0,63.52117153198924,65.0226151359966,,,25726,2022-11-29_14h07.46.306,vts_reward_expectancy_bt_OFFLINE,2022.2.4,59.946027953898465,
0,0,0,1,0,1,0,0,star ,circle,0,0,0,0,1,2,14,10,,,,65.52363115901244,65.52363115901244,65.52363115901244,65.52363115901244,65.52363115901244,65.52363115901244,65.52363115901244,65.52363115901244,65.52363115901244,65.52363115901244,l,0.07017089397413656,1,60,0,65.62350169499405,67.12522500799969,,,25726,2022-11-29_14h07.46.306,vts_reward_expectancy_bt_OFFLINE,2022.2.4,59.946027953898465,
0,1,0,0,1,0,0,0,circle,triangle,0,0,0,0,1,3,15,3,,,,67.62564410999767,67.62564410999767,67.62564410999767,67.62564410999767,67.62564410999767,67.62564410999767,67.62564410999767,67.62564410999767,67.62564410999767,67.62564410999767,l,0.0055374719959218055,1,61,0,67.6591811820108,69.16065586800687,,,25726,2022-11-29_14h07.46.306,vts_reward_expectancy_bt_OFFLINE,2022.2.4,59.946027953898465,
0,0,1,0,0,0,0,1,hexagon,star,0,0,0,0,1,4,16,8,,,,69.66123194701504,69.66123194701504,69.66123194701504,69.66123194701504,69.66123194701504,69.66123194701504,69.66123194701504,69.66123194701504,69.66123194701504,69.66123194701504,l,0.0947077970195096,1,62,0,69.77792625199072,71.27961862599477,,,25726,2022-11-29_14h07.46.306,vts_reward_expectancy_bt_OFFLINE,2022.2.4,59.946027953898465,
0,0,0,1,1,0,0,0,star,triangle,0,0,0,0,1,5,17,9,,,,71.78051792300539,71.78051792300539,71.78051792300539,71.78051792300539,71.78051792300539,71.78051792300539,71.78051792300539,71.78051792300539,71.78051792300539,71.78051792300539,l,0.3058632139873225,10,72,0,72.11427084699972,73.61598863999825,,,25726,2022-11-29_14h07.46.306,vts_reward_expectancy_bt_OFFLINE,2022.2.4,59.946027953898465,
0,1,0,0,0,0,0,1,circle,star,0,0,0,0,1,6,18,5,,,,74.1160847239953,74.1160847239953,74.1160847239953,74.1160847239953,74.1160847239953,74.1160847239953,74.1160847239953,74.1160847239953,74.1160847239953,74.1160847239953,a,0.34330267398036085,1,73,0,74.48313059299835,75.98486700400827,,,25726,2022-11-29_14h07.46.306,vts_reward_expectancy_bt_OFFLINE,2022.2.4,59.946027953898465,
1,0,0,0,0,0,1,0,triangle,hexagon,0,0,0,0,1,7,19,1,,,,76.48567717301194,76.48567717301194,76.48567717301194,76.48567717301194,76.48567717301194,76.48567717301194,76.48567717301194,76.48567717301194,76.48567717301194,76.48567717301194,a,0.4261488000047393,1,74,0,76.93605443299748,78.43751455200254,,,25726,2022-11-29_14h07.46.306,vts_reward_expectancy_bt_OFFLINE,2022.2.4,59.946027953898465,
0,0,0,1,0,0,1,0,star,hexagon,0,0,0,0,1,8,20,11,,,,78.93842415200197,78.93842415200197,78.93842415200197,78.93842415200197,78.93842415200197,78.93842415200197,78.93842415200197,78.93842415200197,78.93842415200197,78.93842415200197,a,0.4267151950043626,10,84,0,79.38853390401346,80.89023810799699,,,25726,2022-11-29_14h07.46.306,vts_reward_expectancy_bt_OFFLINE,2022.2.4,59.946027953898465,
1,0,0,0,0,1,0,0,triangle,circle,0,0,0,0,1,9,21,0,,,,81.39087269999436,81.39087269999436,81.39087269999436,81.39087269999436,81.39087269999436,81.39087269999436,81.39087269999436,81.39087269999436,81.39087269999436,81.39087269999436,l,0.8421205090126023,1,85,0,82.25833921000594,83.76002168201376,,,25726,2022-11-29_14h07.46.306,vts_reward_expectancy_bt_OFFLINE,2022.2.4,59.946027953898465,
0,0,1,0,0,1,0,0,hexagon,circle,0,0,0,0,1,10,22,7,,,,84.26084932801314,84.26084932801314,84.26084932801314,84.26084932801314,84.26084932801314,84.26084932801314,84.26084932801314,84.26084932801314,84.26084932801314,84.26084932801314,a,0.7065390670031775,1,86,0,84.99479115899885,86.49633509200066,,,25726,2022-11-29_14h07.46.306,vts_reward_expectancy_bt_OFFLINE,2022.2.4,59.946027953898465,
0,0,1,0,1,0,0,0,hexagon,triangle,0,0,0,0,1,11,23,6,,,,86.99702559801517,86.99702559801517,86.99702559801517,86.99702559801517,86.99702559801517,86.99702559801517,86.99702559801517,86.99702559801517,86.99702559801517,86.99702559801517,l,1.1658543959783856,10,96,0,88.1815704460023,89.68344676599372,,,25726,2022-11-29_14h07.46.306,vts_reward_expectancy_bt_OFFLINE,2022.2.4,59.946027953898465,
0,1,0,0,0,0,0,1,circle,star,0,0,0,0,2,0,24,5,,,,90.1838250530127,90.1838250530127,90.1838250530127,90.1838250530127,90.1838250530127,90.1838250530127,90.1838250530127,90.1838250530127,90.1838250530127,90.1838250530127,l,0.8927607569785323,1,97,0,91.10159520799061,92.60332777400617,,,25726,2022-11-29_14h07.46.306,vts_reward_expectancy_bt_OFFLINE,2022.2.4,59.946027953898465,
0,0,0,1,1,0,0,0,star,triangle,0,0,0,0,2,1,25,9,,,,93.10368045899668,93.10368045899668,93.10368045899668,93.10368045899668,93.10368045899668,93.10368045899668,93.10368045899668,93.10368045899668,93.10368045899668,93.10368045899668,a,0.7734946369891986,10,107,0,93.90469420500449,95.40623739699367,,,25726,2022-11-29_14h07.46.306,vts_reward_expectancy_bt_OFFLINE,2022.2.4,59.946027953898465,
0,0,1,0,0,1,0,0,hexagon,circle,0,0,0,0,2,2,26,7,,,,95.90702465799404,95.90702465799404,95.90702465799404,95.90702465799404,95.90702465799404,95.90702465799404,95.90702465799404,95.90702465799404,95.90702465799404,95.90702465799404,a,0.35637340098037384,10,117,0,96.29072772100335,97.79219104201184,,,25726,2022-11-29_14h07.46.306,vts_reward_expectancy_bt_OFFLINE,2022.2.4,59.946027953898465,
0,0,0,1,0,0,1,0,star,hexagon,0,0,0,0,2,3,27,11,,,,98.29280586101231,98.29280586101231,98.29280586101231,98.29280586101231,98.29280586101231,98.29280586101231,98.29280586101231,98.29280586101231,98.29280586101231,98.29280586101231,a,1.3561314149701502,1,118,0,99.67788755899528,101.17945365799824,,,25726,2022-11-29_14h07.46.306,vts_reward_expectancy_bt_OFFLINE,2022.2.4,59.946027953898465,
1,0,0,0,0,1,0,0,triangle,circle,0,0,0,0,2,4,28,0,,,,101.67983373699826,101.67983373699826,101.67983373699826,101.67983373699826,101.67983373699826,101.67983373699826,101.67983373699826,101.67983373699826,101.67983373699826,101.67983373699826,l,1.850300892983796,10,128,0,103.54866395899444,105.05017852599849,105.05017852599849,,25726,2022-11-29_14h07.46.306,vts_reward_expectancy_bt_OFFLINE,2022.2.4,59.946027953898465,
0,0,1,0,1,0,0,0,hexagon,triangle,0,0,0,0,2,5,29,6,,,,105.55101516199647,105.55101516199647,105.55101516199647,105.55101516199647,105.55101516199647,105.55101516199647,105.55101516199647,105.55101516199647,105.55101516199647,105.55101516199647,a,0.7018623430049047,10,138,0,106.28520296799252,107.78672787500545,,,25726,2022-11-29_14h07.46.306,vts_reward_expectancy_bt_OFFLINE,2022.2.4,59.946027953898465,
1,0,0,0,0,0,1,0,triangle,hexagon,0,0,0,0,2,6,30,1,,,,108.28749583300669,108.28749583300669,108.28749583300669,108.28749583300669,108.28749583300669,108.28749583300669,108.28749583300669,108.28749583300669,108.28749583300669,108.28749583300669,a,0.2609281640034169,1,139,0,108.57081626699073,110.07241908600554,,,25726,2022-11-29_14h07.46.306,vts_reward_expectancy_bt_OFFLINE,2022.2.4,59.946027953898465,
0,1,0,0,1,0,0,0,circle,triangle,0,0,0,0,2,7,31,3,,,,110.57318839800428,110.57318839800428,110.57318839800428,110.57318839800428,110.57318839800428,110.57318839800428,110.57318839800428,110.57318839800428,110.57318839800428,110.57318839800428,a,0.12336840300122276,10,149,0,110.72319760499522,112.22494623300736,,,25726,2022-11-29_14h07.46.306,vts_reward_expectancy_bt_OFFLINE,2022.2.4,59.946027953898465,
0,0,0,1,0,1,0,0,star ,circle,0,0,0,0,2,8,32,10,,,,112.72553036300815,112.72553036300815,112.72553036300815,112.72553036300815,112.72553036300815,112.72553036300815,112.72553036300815,112.72553036300815,112.72553036300815,112.72553036300815,l,0.03037173900520429,1,150,0,112.77552740299143,114.27699157298775,,,25726,2022-11-29_14h07.46.306,vts_reward_expectancy_bt_OFFLINE,2022.2.4,59.946027953898465,
0,0,1,0,0,0,0,1,hexagon,star,0,0,0,0,2,9,33,8,,,,114.77813325900934,114.77813325900934,114.77813325900934,114.77813325900934,114.77813325900934,114.77813325900934,114.77813325900934,114.77813325900934,114.77813325900934,114.77813325900934,l,0.02514591399813071,10,160,0,114.82786523000686,116.32954401199822,,,25726,2022-11-29_14h07.46.306,vts_reward_expectancy_bt_OFFLINE,2022.2.4,59.946027953898465,
1,0,0,0,0,0,0,1,triangle,star,0,0,0,0,2,10,34,2,,,,116.8302151300013,116.8302151300013,116.8302151300013,116.8302151300013,116.8302151300013,116.8302151300013,116.8302151300013,116.8302151300013,116.8302151300013,116.8302151300013,l,0.08873330499045551,10,170,0,116.94700482601183,118.4485622739885,,,25726,2022-11-29_14h07.46.306,vts_reward_expectancy_bt_OFFLINE,2022.2.4,59.946027953898465,
0,1,0,0,0,0,1,0,circle,hexagon,0,0,0,0,2,11,35,4,,,,118.94896030699601,118.94896030699601,118.94896030699601,118.94896030699601,118.94896030699601,118.94896030699601,118.94896030699601,118.94896030699601,118.94896030699601,118.94896030699601,a,0.05129698500968516,10,180,0,119.03237182000885,120.53399553100462,,,25726,2022-11-29_14h07.46.306,vts_reward_expectancy_bt_OFFLINE,2022.2.4,59.946027953898465,
1,0,0,0,0,1,0,0,triangle,circle,0,0,0,0,3,0,36,0,,,,121.03453465699567,121.03453465699567,121.03453465699567,121.03453465699567,121.03453465699567,121.03453465699567,121.03453465699567,121.03453465699567,121.03453465699567,121.03453465699567,l,0.011863678984809667,10,190,0,121.06792533199769,122.56958497301093,,,25726,2022-11-29_14h07.46.306,vts_reward_expectancy_bt_OFFLINE,2022.2.4,59.946027953898465,
0,0,0,1,0,1,0,0,star ,circle,0,0,0,0,3,1,37,10,,,,123.07038675699732,123.07038675699732,123.07038675699732,123.07038675699732,123.07038675699732,123.07038675699732,123.07038675699732,123.07038675699732,123.07038675699732,123.07038675699732,l,0.10225698497379199,1,191,0,123.20365335600218,124.70521420199657,,,25726,2022-11-29_14h07.46.306,vts_reward_expectancy_bt_OFFLINE,2022.2.4,59.946027953898465,
0,0,1,0,1,0,0,0,hexagon,triangle,0,0,0,0,3,2,38,6,,,,125.2059545230004,125.2059545230004,125.2059545230004,125.2059545230004,125.2059545230004,125.2059545230004,125.2059545230004,125.2059545230004,125.2059545230004,125.2059545230004,l,0.2281653089739848,10,201,0,125.45618894600193,126.95798484698753,,,25726,2022-11-29_14h07.46.306,vts_reward_expectancy_bt_OFFLINE,2022.2.4,59.946027953898465,
0,0,0,1,1,0,0,0,star,triangle,0,0,0,0,3,3,39,9,,,,127.45826926501468,127.45826926501468,127.45826926501468,127.45826926501468,127.45826926501468,127.45826926501468,127.45826926501468,127.45826926501468,127.45826926501468,127.45826926501468,l,0.04568700198433362,10,211,0,127.52508963199216,129.02668868401088,,,25726,2022-11-29_14h07.46.306,vts_reward_expectancy_bt_OFFLINE,2022.2.4,59.946027953898465,
0,1,0,0,1,0,0,0,circle,triangle,0,0,0,0,3,4,40,3,,,,129.5271718899894,129.5271718899894,129.5271718899894,129.5271718899894,129.5271718899894,129.5271718899894,129.5271718899894,129.5271718899894,129.5271718899894,129.5271718899894,l,0.04840845297439955,1,212,0,129.59414349900908,131.0957441710052,,,25726,2022-11-29_14h07.46.306,vts_reward_expectancy_bt_OFFLINE,2022.2.4,59.946027953898465,
0,0,0,1,0,0,1,0,star,hexagon,0,0,0,0,3,5,41,11,,,,131.59621114001493,131.59621114001493,131.59621114001493,131.59621114001493,131.59621114001493,131.59621114001493,131.59621114001493,131.59621114001493,131.59621114001493,131.59621114001493,l,0.11732403200585395,10,222,0,131.72985452000285,133.23145426998963,,,25726,2022-11-29_14h07.46.306,vts_reward_expectancy_bt_OFFLINE,2022.2.4,59.946027953898465,
1,0,0,0,0,0,0,1,triangle,star,0,0,0,0,3,6,42,2,,,,133.73193207601435,133.73193207601435,133.73193207601435,133.73193207601435,133.73193207601435,133.73193207601435,133.73193207601435,133.73193207601435,133.73193207601435,133.73193207601435,a,0.6015756459964905,10,232,0,134.3660113659862,135.86750258901156,,,25726,2022-11-29_14h07.46.306,vts_reward_expectancy_bt_OFFLINE,2022.2.4,59.946027953898465,
0,1,0,0,0,0,0,1,circle,star,0,0,0,0,3,7,43,5,,,,136.36809711399837,136.36809711399837,136.36809711399837,136.36809711399837,136.36809711399837,136.36809711399837,136.36809711399837,136.36809711399837,136.36809711399837,136.36809711399837,l,0.13689245100249536,1,233,0,136.53487851499813,138.03676098000142,,,25726,2022-11-29_14h07.46.306,vts_reward_expectancy_bt_OFFLINE,2022.2.4,59.946027953898465,
1,0,0,0,0,0,1,0,triangle,hexagon,0,0,0,0,3,8,44,1,,,,138.53735090300324,138.53735090300324,138.53735090300324,138.53735090300324,138.53735090300324,138.53735090300324,138.53735090300324,138.53735090300324,138.53735090300324,138.53735090300324,l,0.21782763599185273,10,243,0,138.7874746460002,140.2892944549967,,,25726,2022-11-29_14h07.46.306,vts_reward_expectancy_bt_OFFLINE,2022.2.4,59.946027953898465,
0,0,1,0,0,0,0,1,hexagon,star,0,0,0,0,3,9,45,8,,,,140.7902999620128,140.7902999620128,140.7902999620128,140.7902999620128,140.7902999620128,140.7902999620128,140.7902999620128,140.7902999620128,140.7902999620128,140.7902999620128,l,0.0009651540021877736,1,244,0,140.8230446719972,142.32465881601092,,,25726,2022-11-29_14h07.46.306,vts_reward_expectancy_bt_OFFLINE,2022.2.4,59.946027953898465,
0,1,0,0,0,0,1,0,circle,hexagon,0,0,0,0,3,10,46,4,,,,142.8254317230021,142.8254317230021,142.8254317230021,142.8254317230021,142.8254317230021,142.8254317230021,142.8254317230021,142.8254317230021,142.8254317230021,142.8254317230021,l,0.13651530299102888,10,254,0,142.99215377200744,144.4937481940142,,,25726,2022-11-29_14h07.46.306,vts_reward_expectancy_bt_OFFLINE,2022.2.4,59.946027953898465,
0,0,1,0,0,1,0,0,hexagon,circle,0,0,0,0,3,11,47,7,,,,144.99456472101156,144.99456472101156,144.99456472101156,144.99456472101156,144.99456472101156,144.99456472101156,144.99456472101156,144.99456472101156,144.99456472101156,144.99456472101156,l,0.30766006000339985,10,264,0,145.32804719099659,146.83021628198912,,,25726,2022-11-29_14h07.46.306,vts_reward_expectancy_bt_OFFLINE,2022.2.4,59.946027953898465,
0,0,0,1,0,0,1,0,star,hexagon,1,0,1,0,0,0,0,11,,,,150.1082124900131,150.1082124900131,150.1082124900131,150.1082124900131,150.1082124900131,150.1082124900131,150.1082124900131,150.1082124900131,150.1082124900131,150.1082124900131,a,0.7850535859761294,1,265,1,150.91784821500187,152.41930312098702,,,25726,2022-11-29_14h07.46.306,vts_reward_expectancy_bt_OFFLINE,2022.2.4,59.946027953898465,
0,1,0,0,0,0,1,0,circle,hexagon,1,0,1,0,0,1,1,4,,,,152.91961724098655,152.91961724098655,152.91961724098655,152.91961724098655,152.91961724098655,152.91961724098655,152.91961724098655,152.91961724098655,152.91961724098655,152.91961724098655,a,0.302588371996535,10,275,1,153.25356642200495,154.75530612599687,,,25726,2022-11-29_14h07.46.306,vts_reward_expectancy_bt_OFFLINE,2022.2.4,59.946027953898465,
0,0,1,0,1,0,0,0,hexagon,triangle,1,0,1,0,0,2,2,6,,,,155.25557922400185,155.25557922400185,155.25557922400185,155.25557922400185,155.25557922400185,155.25557922400185,155.25557922400185,155.25557922400185,155.25557922400185,155.25557922400185,a,0.2737556450010743,10,285,1,155.55584278798779,157.0577807110094,,,25726,2022-11-29_14h07.46.306,vts_reward_expectancy_bt_OFFLINE,2022.2.4,59.946027953898465,
0,0,1,0,0,1,0,0,hexagon,circle,1,0,1,0,0,3,3,7,,,,157.55810525501147,157.55810525501147,157.55810525501147,157.55810525501147,157.55810525501147,157.55810525501147,157.55810525501147,157.55810525501147,157.55810525501147,157.55810525501147,a,0.23406847499427386,1,286,1,157.8084139690036,159.31013045000145,,,25726,2022-11-29_14h07.46.306,vts_reward_expectancy_bt_OFFLINE,2022.2.4,59.946027953898465,
0,0,0,1,1,0,0,0,star,triangle,1,0,1,0,0,4,4,9,,,,159.81080353900325,159.81080353900325,159.81080353900325,159.81080353900325,159.81080353900325,159.81080353900325,159.81080353900325,159.81080353900325,159.81080353900325,159.81080353900325,l,0.2292557430046145,1,287,1,160.06085619499208,161.56250586299575,,,25726,2022-11-29_14h07.46.306,vts_reward_expectancy_bt_OFFLINE,2022.2.4,59.946027953898465,
0,0,0,1,0,1,0,0,star ,circle,1,0,1,0,0,5,5,10,,,,162.06308411600185,162.06308411600185,162.06308411600185,162.06308411600185,162.06308411600185,162.06308411600185,162.06308411600185,162.06308411600185,162.06308411600185,162.06308411600185,l,0.27269588102353737,10,297,1,162.36344911300694,163.86510919500142,,,25726,2022-11-29_14h07.46.306,vts_reward_expectancy_bt_OFFLINE,2022.2.4,59.946027953898465,
0,0,1,0,0,0,0,1,hexagon,star,1,0,1,0,0,6,6,8,,,,164.3656356369902,164.3656356369902,164.3656356369902,164.3656356369902,164.3656356369902,164.3656356369902,164.3656356369902,164.3656356369902,164.3656356369902,164.3656356369902,l,0.17438239901093766,1,298,1,164.56595551600913,166.067502313992,,,25726,2022-11-29_14h07.46.306,vts_reward_expectancy_bt_OFFLINE,2022.2.4,59.946027953898465,
0,1,0,0,0,0,0,1,circle,star,1,0,1,0,0,7,7,5,,,,166.5680749769963,166.5680749769963,166.5680749769963,166.5680749769963,166.5680749769963,166.5680749769963,166.5680749769963,166.5680749769963,166.5680749769963,166.5680749769963,a,0.15593547699972987,1,299,1,166.75170678901486,168.25323742898763,,,25726,2022-11-29_14h07.46.306,vts_reward_expectancy_bt_OFFLINE,2022.2.4,59.946027953898465,
1,0,0,0,0,0,0,1,triangle,star,1,0,1,0,0,8,8,2,,,,168.7539048079925,168.7539048079925,168.7539048079925,168.7539048079925,168.7539048079925,168.7539048079925,168.7539048079925,168.7539048079925,168.7539048079925,168.7539048079925,a,0.07340315298642963,10,309,1,168.85432902400498,170.35571074599284,,,25726,2022-11-29_14h07.46.306,vts_reward_expectancy_bt_OFFLINE,2022.2.4,59.946027953898465,
1,0,0,0,0,1,0,0,triangle,circle,1,0,1,0,0,9,9,0,,,,170.8561253370135,170.8561253370135,170.8561253370135,170.8561253370135,170.8561253370135,170.8561253370135,170.8561253370135,170.8561253370135,170.8561253370135,170.8561253370135,a,0.18667878198903054,1,310,1,171.07349181501195,172.5746634049865,,,25726,2022-11-29_14h07.46.306,vts_reward_expectancy_bt_OFFLINE,2022.2.4,59.946027953898465,
1,0,0,0,0,0,1,0,triangle,hexagon,1,0,1,0,0,10,10,1,,,,173.07521568398806,173.07521568398806,173.07521568398806,173.07521568398806,173.07521568398806,173.07521568398806,173.07521568398806,173.07521568398806,173.07521568398806,173.07521568398806,a,0.1622532529872842,10,320,1,173.25929134199396,174.76068177400157,,,25726,2022-11-29_14h07.46.306,vts_reward_expectancy_bt_OFFLINE,2022.2.4,59.946027953898465,
0,1,0,0,1,0,0,0,circle,triangle,1,0,1,0,0,11,11,3,,,,175.2609719170141,175.2609719170141,175.2609719170141,175.2609719170141,175.2609719170141,175.2609719170141,175.2609719170141,175.2609719170141,175.2609719170141,175.2609719170141,a,0.28416595797170885,10,330,1,175.56152628999553,177.06299405600294,,,25726,2022-11-29_14h07.46.306,vts_reward_expectancy_bt_OFFLINE,2022.2.4,59.946027953898465,
0,0,0,1,1,0,0,0,star,triangle,1,0,1,0,1,0,12,9,,,,177.56367566701374,177.56367566701374,177.56367566701374,177.56367566701374,177.56367566701374,177.56367566701374,177.56367566701374,177.56367566701374,177.56367566701374,177.56367566701374,a,0.3310498899954837,10,340,1,177.9141886490106,179.41595879901433,,,25726,2022-11-29_14h07.46.306,vts_reward_expectancy_bt_OFFLINE,2022.2.4,59.946027953898465,
0,0,1,0,1,0,0,0,hexagon,triangle,1,0,1,0,1,1,13,6,,,,179.9161463160126,179.9161463160126,179.9161463160126,179.9161463160126,179.9161463160126,179.9161463160126,179.9161463160126,179.9161463160126,179.9161463160126,179.9161463160126,a,0.2280997679918073,10,350,1,180.16637562200776,181.66812541001127,,,25726,2022-11-29_14h07.46.306,vts_reward_expectancy_bt_OFFLINE,2022.2.4,59.946027953898465,
0,0,0,1,0,0,1,0,star,hexagon,1,0,1,0,1,2,14,11,,,,182.16877321898937,182.16877321898937,182.16877321898937,182.16877321898937,182.16877321898937,182.16877321898937,182.16877321898937,182.16877321898937,182.16877321898937,182.16877321898937,a,0.2711188559769653,10,360,1,182.46904360200278,183.97115387499798,,,25726,2022-11-29_14h07.46.306,vts_reward_expectancy_bt_OFFLINE,2022.2.4,59.946027953898465,
1,0,0,0,0,0,1,0,triangle,hexagon,1,0,1,0,1,3,15,1,,,,184.47132961000898,184.47132961000898,184.47132961000898,184.47132961000898,184.47132961000898,184.47132961000898,184.47132961000898,184.47132961000898,184.47132961000898,184.47132961000898,a,0.18456089901155792,1,361,1,184.6879922930093,186.18959068899858,,,25726,2022-11-29_14h07.46.306,vts_reward_expectancy_bt_OFFLINE,2022.2.4,59.946027953898465,
0,1,0,0,0,0,0,1,circle,star,1,0,1,0,1,4,16,5,,,,186.69020351499785,186.69020351499785,186.69020351499785,186.69020351499785,186.69020351499785,186.69020351499785,186.69020351499785,186.69020351499785,186.69020351499785,186.69020351499785,a,0.2383803889970295,1,362,1,186.95586469199043,188.45872730700648,,,25726,2022-11-29_14h07.46.306,vts_reward_expectancy_bt_OFFLINE,2022.2.4,59.946027953898465,
0,1,0,0,1,0,0,0,circle,triangle,1,0,1,0,1,5,17,3,,,,188.95937932201196,188.95937932201196,188.95937932201196,188.95937932201196,188.95937932201196,188.95937932201196,188.95937932201196,188.95937932201196,188.95937932201196,188.95937932201196,a,0.2522353749955073,10,372,1,189.24306984001305,190.74467327501043,,,25726,2022-11-29_14h07.46.306,vts_reward_expectancy_bt_OFFLINE,2022.2.4,59.946027953898465,
0,1,0,0,0,0,1,0,circle,hexagon,1,0,1,0,1,6,18,4,,,,191.24529856300796,191.24529856300796,191.24529856300796,191.24529856300796,191.24529856300796,191.24529856300796,191.24529856300796,191.24529856300796,191.24529856300796,191.24529856300796,a,0.34071032199426554,10,382,1,191.61236601500423,193.11381462900317,,,25726,2022-11-29_14h07.46.306,vts_reward_expectancy_bt_OFFLINE,2022.2.4,59.946027953898465,
0,0,1,0,0,0,0,1,hexagon,star,1,0,1,0,1,7,19,8,,,,193.61445374699542,193.61445374699542,193.61445374699542,193.61445374699542,193.61445374699542,193.61445374699542,193.61445374699542,193.61445374699542,193.61445374699542,193.61445374699542,l,0.6605214590090327,1,383,1,194.2999399699911,195.80023175300448,,,25726,2022-11-29_14h07.46.306,vts_reward_expectancy_bt_OFFLINE,2022.2.4,59.946027953898465,
1,0,0,0,0,1,0,0,triangle,circle,1,0,1,0,1,8,20,0,,,,196.3007393000007,196.3007393000007,196.3007393000007,196.3007393000007,196.3007393000007,196.3007393000007,196.3007393000007,196.3007393000007,196.3007393000007,196.3007393000007,l,0.7080060240114108,10,393,1,197.03653543099063,198.5366868340061,,,25726,2022-11-29_14h07.46.306,vts_reward_expectancy_bt_OFFLINE,2022.2.4,59.946027953898465,
0,0,0,1,0,1,0,0,star ,circle,1,0,1,0,1,9,21,10,,,,199.03712625798653,199.03712625798653,199.03712625798653,199.03712625798653,199.03712625798653,199.03712625798653,199.03712625798653,199.03712625798653,199.03712625798653,199.03712625798653,l,0.48136907900334336,1,394,1,199.538860731991,201.03942947799806,,,25726,2022-11-29_14h07.46.306,vts_reward_expectancy_bt_OFFLINE,2022.2.4,59.946027953898465,
0,0,1,0,0,1,0,0,hexagon,circle,1,0,1,0,1,10,22,7,,,,201.54007143698982,201.54007143698982,201.54007143698982,201.54007143698982,201.54007143698982,201.54007143698982,201.54007143698982,201.54007143698982,201.54007143698982,201.54007143698982,a,0.3737287299882155,10,404,1,201.94059722698876,203.44188463699538,,,25726,2022-11-29_14h07.46.306,vts_reward_expectancy_bt_OFFLINE,2022.2.4,59.946027953898465,
1,0,0,0,0,0,0,1,triangle,star,1,0,1,0,1,11,23,2,,,,203.942583016993,203.942583016993,203.942583016993,203.942583016993,203.942583016993,203.942583016993,203.942583016993,203.942583016993,203.942583016993,203.942583016993,l,0.04098544499720447,1,405,1,204.01057961399783,205.51099339700886,,,25726,2022-11-29_14h07.46.306,vts_reward_expectancy_bt_OFFLINE,2022.2.4,59.946027953898465,
0,0,1,0,0,1,0,0,hexagon,circle,1,0,1,0,2,0,24,7,,,,206.01155712699983,206.01155712699983,206.01155712699983,206.01155712699983,206.01155712699983,206.01155712699983,206.01155712699983,206.01155712699983,206.01155712699983,206.01155712699983,a,0.3799151790153701,10,415,1,206.41567747000954,207.9141090119956,,,25726,2022-11-29_14h07.46.306,vts_reward_expectancy_bt_OFFLINE,2022.2.4,59.946027953898465,
1,0,0,0,0,0,1,0,triangle,hexagon,1,0,1,0,2,1,25,1,,,,208.41430999699514,208.41430999699514,208.41430999699514,208.41430999699514,208.41430999699514,208.41430999699514,208.41430999699514,208.41430999699514,208.41430999699514,208.41430999699514,l,0.13661552901612595,10,425,1,208.581324719009,210.08294940998894,,,25726,2022-11-29_14h07.46.306,vts_reward_expectancy_bt_OFFLINE,2022.2.4,59.946027953898465,
0,1,0,0,0,0,0,1,circle,star,1,0,1,0,2,2,26,5,,,,210.5840508530091,210.5840508530091,210.5840508530091,210.5840508530091,210.5840508530091,210.5840508530091,210.5840508530091,210.5840508530091,210.5840508530091,210.5840508530091,a,0.3301797029853333,1,426,1,210.93455339298816,212.43541699499474,,,25726,2022-11-29_14h07.46.306,vts_reward_expectancy_bt_OFFLINE,2022.2.4,59.946027953898465,
0,0,1,0,0,0,0,1,hexagon,star,1,0,1,0,2,3,27,8,,,,212.9360688639863,212.9360688639863,212.9360688639863,212.9360688639863,212.9360688639863,212.9360688639863,212.9360688639863,212.9360688639863,212.9360688639863,212.9360688639863,a,0.050275349989533424,10,436,1,213.01004995999392,214.50450997799635,,,25726,2022-11-29_14h07.46.306,vts_reward_expectancy_bt_OFFLINE,2022.2.4,59.946027953898465,
0,0,0,1,0,1,0,0,star ,circle,1,0,1,0,2,4,28,10,,,,215.00545874700765,215.00545874700765,215.00545874700765,215.00545874700765,215.00545874700765,215.00545874700765,215.00545874700765,215.00545874700765,215.00545874700765,215.00545874700765,l,0.1062144489842467,1,437,1,215.1404068839911,216.6403489059885,,,25726,2022-11-29_14h07.46.306,vts_reward_expectancy_bt_OFFLINE,2022.2.4,59.946027953898465,
1,0,0,0,0,1,0,0,triangle,circle,1,0,1,0,2,5,29,0,,,,217.1408031299943,217.1408031299943,217.1408031299943,217.1408031299943,217.1408031299943,217.1408031299943,217.1408031299943,217.1408031299943,217.1408031299943,217.1408031299943,l,0.208456747001037,10,447,1,217.3748853589932,218.87590025100508,,,25726,2022-11-29_14h07.46.306,vts_reward_expectancy_bt_OFFLINE,2022.2.4,59.946027953898465,
0,1,0,0,0,0,1,0,circle,hexagon,1,0,1,0,2,6,30,4,,,,219.3770962250128,219.3770962250128,219.3770962250128,219.3770962250128,219.3770962250128,219.3770962250128,219.3770962250128,219.3770962250128,219.3770962250128,219.3770962250128,l,0.6510490319924429,1,448,1,220.06066187500255,221.5620109779993,221.5620109779993,222.0628954860149,25726,2022-11-29_14h07.46.306,vts_reward_expectancy_bt_OFFLINE,2022.2.4,59.946027953898465,
0,1,0,0,1,0,0,0,circle,triangle,1,0,1,0,2,7,31,3,,,,222.0628954860149,222.0628954860149,222.0628954860149,222.0628954860149,222.0628954860149,222.0628954860149,222.0628954860149,222.0628954860149,222.0628954860149,222.0628954860149,l,0.3038127079780679,10,458,1,222.3977568249975,223.89805476000765,,,25726,2022-11-29_14h07.46.306,vts_reward_expectancy_bt_OFFLINE,2022.2.4,59.946027953898465,
0,0,0,1,0,0,1,0,star,hexagon,1,0,1,0,2,8,32,11,,,,224.39867041099933,224.39867041099933,224.39867041099933,224.39867041099933,224.39867041099933,224.39867041099933,224.39867041099933,224.39867041099933,224.39867041099933,224.39867041099933,a,0.08426567999413237,1,459,1,224.5153482859896,226.01714571900084,,,25726,2022-11-29_14h07.46.306,vts_reward_expectancy_bt_OFFLINE,2022.2.4,59.946027953898465,
0,0,0,1,1,0,0,0,star,triangle,1,0,1,0,2,9,33,9,,,,226.51757216401165,226.51757216401165,226.51757216401165,226.51757216401165,226.51757216401165,226.51757216401165,226.51757216401165,226.51757216401165,226.51757216401165,226.51757216401165,a,0.023091705021215603,1,460,1,226.5679605740006,228.06940490900888,,,25726,2022-11-29_14h07.46.306,vts_reward_expectancy_bt_OFFLINE,2022.2.4,59.946027953898465,
1,0,0,0,0,0,0,1,triangle,star,1,0,1,0,2,10,34,2,,,,228.57004878800944,228.57004878800944,228.57004878800944,228.57004878800944,228.57004878800944,228.57004878800944,228.57004878800944,228.57004878800944,228.57004878800944,228.57004878800944,l,0.3898865999944974,1,461,1,228.98707637400366,230.4886250779964,,,25726,2022-11-29_14h07.46.306,vts_reward_expectancy_bt_OFFLINE,2022.2.4,59.946027953898465,
0,0,1,0,1,0,0,0,hexagon,triangle,1,0,1,0,2,11,35,6,,,,230.98940799300908,230.98940799300908,230.98940799300908,230.98940799300908,230.98940799300908,230.98940799300908,230.98940799300908,230.98940799300908,230.98940799300908,230.98940799300908,a,0.08544883798458613,10,471,1,231.10592096101027,232.60774595898692,,,25726,2022-11-29_14h07.46.306,vts_reward_expectancy_bt_OFFLINE,2022.2.4,59.946027953898465,
0,1,0,0,0,0,1,0,circle,hexagon,1,0,1,0,3,0,36,4,,,,233.10809869601508,233.10809869601508,233.10809869601508,233.10809869601508,233.10809869601508,233.10809869601508,233.10809869601508,233.10809869601508,233.10809869601508,233.10809869601508,a,0.6102462660055608,10,481,1,233.7425577029935,235.24415703199338,,,25726,2022-11-29_14h07.46.306,vts_reward_expectancy_bt_OFFLINE,2022.2.4,59.946027953898465,
1,0,0,0,0,1,0,0,triangle,circle,1,0,1,0,3,1,37,0,,,,235.7448103989882,235.7448103989882,235.7448103989882,235.7448103989882,235.7448103989882,235.7448103989882,235.7448103989882,235.7448103989882,235.7448103989882,235.7448103989882,a,0.0003774479846470058,1,482,1,235.7631653599965,237.26282450198778,237.26282450198778,,25726,2022-11-29_14h07.46.306,vts_reward_expectancy_bt_OFFLINE,2022.2.4,59.946027953898465,
0,1,0,0,1,0,0,0,circle,triangle,1,0,1,0,3,2,38,3,,,,237.76350595700205,237.76350595700205,237.76350595700205,237.76350595700205,237.76350595700205,237.76350595700205,237.76350595700205,237.76350595700205,237.76350595700205,237.76350595700205,a,0.18558088701684028,1,483,1,237.98020443500718,239.4817530589935,,,25726,2022-11-29_14h07.46.306,vts_reward_expectancy_bt_OFFLINE,2022.2.4,59.946027953898465,
0,0,0,1,1,0,0,0,star,triangle,1,0,1,0,3,3,39,9,,,,239.98233337901183,239.98233337901183,239.98233337901183,239.98233337901183,239.98233337901183,239.98233337901183,239.98233337901183,239.98233337901183,239.98233337901183,239.98233337901183,l,1.330577632994391,10,493,1,241.3353810539993,242.83570070299902,,,25726,2022-11-29_14h07.46.306,vts_reward_expectancy_bt_OFFLINE,2022.2.4,59.946027953898465,
0,0,0,1,0,0,1,0,star,hexagon,1,0,1,0,3,4,40,11,,,,243.33604786000797,243.33604786000797,243.33604786000797,243.33604786000797,243.33604786000797,243.33604786000797,243.33604786000797,243.33604786000797,243.33604786000797,243.33604786000797,l,0.5533381570130587,10,503,1,243.92019469599472,245.42178218899062,245.42178218899062,245.92249550198903,25726,2022-11-29_14h07.46.306,vts_reward_expectancy_bt_OFFLINE,2022.2.4,59.946027953898465,
1,0,0,0,0,0,1,0,triangle,hexagon,1,0,1,0,3,5,41,1,,,,245.92249550198903,245.92249550198903,245.92249550198903,245.92249550198903,245.92249550198903,245.92249550198903,245.92249550198903,245.92249550198903,245.92249550198903,245.92249550198903,l,9.521481050003786,10,513,1,255.46645751100732,256.9680139780103,,,25726,2022-11-29_14h07.46.306,vts_reward_expectancy_bt_OFFLINE,2022.2.4,59.946027953898465,
0,0,1,0,0,1,0,0,hexagon,circle,1,0,1,0,3,6,42,7,,,,257.46876879400224,257.46876879400224,257.46876879400224,257.46876879400224,257.46876879400224,257.46876879400224,257.46876879400224,257.46876879400224,257.46876879400224,257.46876879400224,l,0.12351834197761491,10,523,1,257.61864711000817,259.1203081989952,,,25726,2022-11-29_14h07.46.306,vts_reward_expectancy_bt_OFFLINE,2022.2.4,59.946027953898465,
0,1,0,0,0,0,0,1,circle,star,1,0,1,0,3,7,43,5,,,,259.62068550201366,259.62068550201366,259.62068550201366,259.62068550201366,259.62068550201366,259.62068550201366,259.62068550201366,259.62068550201366,259.62068550201366,259.62068550201366,a,0.5359287379833404,1,524,1,260.18851374299265,261.6896770960011,261.6896770960011,262.19048170698807,25726,2022-11-29_14h07.46.306,vts_reward_expectancy_bt_OFFLINE,2022.2.4,59.946027953898465,
0,0,1,0,0,0,0,1,hexagon,star,1,0,1,0,3,8,44,8,,,,262.19048170698807,262.19048170698807,262.19048170698807,262.19048170698807,262.19048170698807,262.19048170698807,262.19048170698807,262.19048170698807,262.19048170698807,262.19048170698807,l,0.03603377498802729,1,525,1,262.25738083801116,263.7585827290022,,,25726,2022-11-29_14h07.46.306,vts_reward_expectancy_bt_OFFLINE,2022.2.4,59.946027953898465,
0,0,0,1,0,1,0,0,star ,circle,1,0,1,0,3,9,45,10,,,,264.25921313499566,264.25921313499566,264.25921313499566,264.25921313499566,264.25921313499566,264.25921313499566,264.25921313499566,264.25921313499566,264.25921313499566,264.25921313499566,a,0.9261586799984798,1,526,1,265.21224442499806,266.7120252320019,,,25726,2022-11-29_14h07.46.306,vts_reward_expectancy_bt_OFFLINE,2022.2.4,59.946027953898465,
0,0,1,0,1,0,0,0,hexagon,triangle,1,0,1,0,3,10,46,6,,,,267.21238398901187,267.21238398901187,267.21238398901187,267.21238398901187,267.21238398901187,267.21238398901187,267.21238398901187,267.21238398901187,267.21238398901187,267.21238398901187,a,0.26873744500335306,1,527,1,267.5127304060152,269.0143264369981,269.0143264369981,,25726,2022-11-29_14h07.46.306,vts_reward_expectancy_bt_OFFLINE,2022.2.4,59.946027953898465,
1,0,0,0,0,0,0,1,triangle,star,1,0,1,0,3,11,47,2,,,,269.51497808500426,269.51497808500426,269.51497808500426,269.51497808500426,269.51497808500426,269.51497808500426,269.51497808500426,269.51497808500426,269.51497808500426,269.51497808500426,a,0.17117118099122308,1,528,1,269.71625416900497,271.216869210999,,,25726,2022-11-29_14h07.46.306,vts_reward_expectancy_bt_OFFLINE,2022.2.4,59.946027953898465,
1,0,0,0,0,1,0,0,triangle,circle,2,0,2,0,0,0,0,0,,,,274.6202750589873,274.6202750589873,274.6202750589873,274.6202750589873,274.6202750589873,274.6202750589873,274.6202750589873,274.6202750589873,274.6202750589873,274.6202750589873,l,0.7827773909957614,10,538,2,275.42306010599714,276.92304000401055,,,25726,2022-11-29_14h07.46.306,vts_reward_expectancy_bt_OFFLINE,2022.2.4,59.946027953898465,
0,0,1,0,0,1,0,0,hexagon,circle,2,0,2,0,0,1,1,7,,,,277.4236065479927,277.4236065479927,277.4236065479927,277.4236065479927,277.4236065479927,277.4236065479927,277.4236065479927,277.4236065479927,277.4236065479927,277.4236065479927,l,0.2618436820048373,10,548,2,277.7076559610141,279.2089169980027,,,25726,2022-11-29_14h07.46.306,vts_reward_expectancy_bt_OFFLINE,2022.2.4,59.946027953898465,
,,,,,,,,,,,,,,,,,,,,,279.70812120399205,279.70812120399205,279.70812120399205,279.70812120399205,279.70812120399205,279.70812120399205,279.70812120399205,279.70812120399205,279.70812120399205,279.70812120399205,,,,,,,,,,,,,,,
