LTriangleOpac,LCircleOpac,LHexagonOpac,LStarOpac,RTriangleOpac,RCircleOpac,RHexagonOpac,RStarOpac,LShape_ID,RShape_ID,training_blocks.thisRepN,training_blocks.thisTrialN,training_blocks.thisN,training_blocks.thisIndex,training.thisRepN,training.thisTrialN,training.thisN,training.thisIndex,task1_prac_redo.thisRepN,task1_prac_redo.thisTrialN,task1_prac_redo.thisN,task1_prac_redo.thisIndex,task1_prac_trials.thisRepN,task1_prac_trials.thisTrialN,task1_prac_trials.thisN,task1_prac_trials.thisIndex,key_resp.started,key_resp.keys,key_resp.rt,left_circle.started,right_circle.started,left_triangle.started,right_triangle.started,left_star.started,right_star.started,left_hexagon.started,right_hexagon.started,training_fix.started,training_resp.started,training_resp.keys,training_resp.rt,points_trial,points_cumul,trainBlock,training_feedback_txt.started,fix.started,training_feedback_txt.stopped,curr_topStim,curr_bottStim,curr_shape,ISI.started,tgt_fix_prac1.started,top_target_prac1.started,bott_target_prac1.started,target_resp_prac1.started,top_target_prac1.stopped,tgt_fix_prac1.stopped,bott_target_prac1.stopped,target_resp_prac1.stopped,acc,E1,target_resp_prac1.keys,pracBlock,prac_fback_text.started,prac_fback_text.stopped,fix.stopped,target_resp_prac1.rt,participant,date,expName,psychopyVersion,frameRate,
,,,,,,,,,,,,,,,,,,,,,,,,,,17.47708632098511,space,24.764842991018668,,,,,,,,,,,,,,,,,,,,,,,,,,,,,,,,,,,,,,,34124,2022-11-07_14h01.39.495,vts_reward_expectancy_bt_OFFLINE,2022.2.4,60.05055691387439,
1,0,0,0,0,0,0,1,triangle,star,0,0,0,0,0,0,0,2,,,,,,,,,,,,71.00188579619862,71.00188579619862,71.00188579619862,71.00188579619862,71.00188579619862,71.00188579619862,71.00188579619862,71.00188579619862,71.00188579619862,71.00188579619862,a,2.2458621507976204,1,1,0,73.26992624299601,74.77178018097766,,,,,,,,,,,,,,,,,,,,,,34124,2022-11-07_14h01.39.495,vts_reward_expectancy_bt_OFFLINE,2022.2.4,60.05055691387439,
0,0,0,1,1,0,0,0,star,triangle,0,0,0,0,0,1,1,9,,,,,,,,,,,,75.27246962301433,75.27246962301433,75.27246962301433,75.27246962301433,75.27246962301433,75.27246962301433,75.27246962301433,75.27246962301433,75.27246962301433,75.27246962301433,l,1.7343163299374282,10,11,0,77.02499267319217,78.52584834909067,78.52584834909067,,,,,,,,,,,,,,,,,,,,,34124,2022-11-07_14h01.39.495,vts_reward_expectancy_bt_OFFLINE,2022.2.4,60.05055691387439,
0,1,0,0,1,0,0,0,circle,triangle,0,0,0,0,0,2,2,3,,,,,,,,,,,,79.02673500496894,79.02673500496894,79.02673500496894,79.02673500496894,79.02673500496894,79.02673500496894,79.02673500496894,79.02673500496894,79.02673500496894,79.02673500496894,l,0.6578919889871031,1,12,0,79.71078795916401,81.21249889000319,,,,,,,,,,,,,,,,,,,,,,34124,2022-11-07_14h01.39.495,vts_reward_expectancy_bt_OFFLINE,2022.2.4,60.05055691387439,
0,0,1,0,0,0,0,1,hexagon,star,0,0,0,0,0,3,3,8,,,,,,,,,,,,81.71292821597308,81.71292821597308,81.71292821597308,81.71292821597308,81.71292821597308,81.71292821597308,81.71292821597308,81.71292821597308,81.71292821597308,81.71292821597308,a,1.6373787061311305,10,22,0,83.38132978603244,84.88297891011462,,,,,,,,,,,,,,,,,,,,,,34124,2022-11-07_14h01.39.495,vts_reward_expectancy_bt_OFFLINE,2022.2.4,60.05055691387439,
0,0,1,0,0,1,0,0,hexagon,circle,0,0,0,0,0,4,4,7,,,,,,,,,,,,85.38346647610888,85.38346647610888,85.38346647610888,85.38346647610888,85.38346647610888,85.38346647610888,85.38346647610888,85.38346647610888,85.38346647610888,85.38346647610888,a,0.9265326040331274,1,23,0,86.33445409615524,87.83618041803129,87.83618041803129,,,,,,,,,,,,,,,,,,,,,34124,2022-11-07_14h01.39.495,vts_reward_expectancy_bt_OFFLINE,2022.2.4,60.05055691387439,
0,0,0,1,0,0,1,0,star,hexagon,0,0,0,0,0,5,5,11,,,,,,,,,,,,88.33676555310376,88.33676555310376,88.33676555310376,88.33676555310376,88.33676555310376,88.33676555310376,88.33676555310376,88.33676555310376,88.33676555310376,88.33676555310376,l,0.9096232717856765,10,33,0,89.27120540500619,90.77281375019811,,,,,,,,,,,,,,,,,,,,,,34124,2022-11-07_14h01.39.495,vts_reward_expectancy_bt_OFFLINE,2022.2.4,60.05055691387439,
1,0,0,0,0,0,1,0,triangle,hexagon,0,0,0,0,0,6,6,1,,,,,,,,,,,,91.27357424097136,91.27357424097136,91.27357424097136,91.27357424097136,91.27357424097136,91.27357424097136,91.27357424097136,91.27357424097136,91.27357424097136,91.27357424097136,a,1.2922505110036582,1,34,0,92.59175251796842,94.09320006403141,,,,,,,,,,,,,,,,,,,,,,34124,2022-11-07_14h01.39.495,vts_reward_expectancy_bt_OFFLINE,2022.2.4,60.05055691387439,
0,0,1,0,1,0,0,0,hexagon,triangle,0,0,0,0,0,7,7,6,,,,,,,,,,,,94.593575255014,94.593575255014,94.593575255014,94.593575255014,94.593575255014,94.593575255014,94.593575255014,94.593575255014,94.593575255014,94.593575255014,a,1.212219286011532,1,35,0,95.82833173405379,97.33007148606703,,,,,,,,,,,,,,,,,,,,,,34124,2022-11-07_14h01.39.495,vts_reward_expectancy_bt_OFFLINE,2022.2.4,60.05055691387439,
0,1,0,0,0,0,0,1,circle,star,0,0,0,0,0,8,8,5,,,,,,,,,,,,97.83037730911747,97.83037730911747,97.83037730911747,97.83037730911747,97.83037730911747,97.83037730911747,97.83037730911747,97.83037730911747,97.83037730911747,97.83037730911747,a,0.55187654402107,10,45,0,98.41438225912862,99.91622727015056,,,,,,,,,,,,,,,,,,,,,,34124,2022-11-07_14h01.39.495,vts_reward_expectancy_bt_OFFLINE,2022.2.4,60.05055691387439,
1,0,0,0,0,1,0,0,triangle,circle,0,0,0,0,0,9,9,0,,,,,,,,,,,,100.41662657610141,100.41662657610141,100.41662657610141,100.41662657610141,100.41662657610141,100.41662657610141,100.41662657610141,100.41662657610141,100.41662657610141,100.41662657610141,l,0.49655267293564975,10,55,0,100.93400768912397,102.43567076115869,,,,,,,,,,,,,,,,,,,,,,34124,2022-11-07_14h01.39.495,vts_reward_expectancy_bt_OFFLINE,2022.2.4,60.05055691387439,
0,1,0,0,0,0,1,0,circle,hexagon,0,0,0,0,0,10,10,4,,,,,,,,,,,,102.93620201898739,102.93620201898739,102.93620201898739,102.93620201898739,102.93620201898739,102.93620201898739,102.93620201898739,102.93620201898739,102.93620201898739,102.93620201898739,a,0.520438252016902,10,65,0,103.4866972961463,104.988458288135,,,,,,,,,,,,,,,,,,,,,,34124,2022-11-07_14h01.39.495,vts_reward_expectancy_bt_OFFLINE,2022.2.4,60.05055691387439,
0,0,0,1,0,1,0,0,star ,circle,0,0,0,0,0,11,11,10,,,,,,,,,,,,105.48915523500182,105.48915523500182,105.48915523500182,105.48915523500182,105.48915523500182,105.48915523500182,105.48915523500182,105.48915523500182,105.48915523500182,105.48915523500182,l,0.4758607968688011,10,75,0,105.98967294115573,107.49131440115161,,,,,,,,,,,,,,,,,,,,,,34124,2022-11-07_14h01.39.495,vts_reward_expectancy_bt_OFFLINE,2022.2.4,60.05055691387439,
0,1,0,0,0,0,1,0,circle,hexagon,0,0,0,0,1,0,12,4,,,,,,,,,,,,107.99179407116026,107.99179407116026,107.99179407116026,107.99179407116026,107.99179407116026,107.99179407116026,107.99179407116026,107.99179407116026,107.99179407116026,107.99179407116026,a,0.6850583120249212,10,85,0,108.70932224113494,110.2108525861986,,,,,,,,,,,,,,,,,,,,,,34124,2022-11-07_14h01.39.495,vts_reward_expectancy_bt_OFFLINE,2022.2.4,60.05055691387439,
0,0,0,1,0,0,1,0,star,hexagon,0,0,0,0,1,1,13,11,,,,,,,,,,,,110.71139659616165,110.71139659616165,110.71139659616165,110.71139659616165,110.71139659616165,110.71139659616165,110.71139659616165,110.71139659616165,110.71139659616165,110.71139659616165,l,1.1713767829351127,10,95,0,111.91292148409411,113.41443338315003,,,,,,,,,,,,,,,,,,,,,,34124,2022-11-07_14h01.39.495,vts_reward_expectancy_bt_OFFLINE,2022.2.4,60.05055691387439,
0,0,0,1,1,0,0,0,star,triangle,0,0,0,0,1,2,14,9,,,,,,,,,,,,113.91507715405896,113.91507715405896,113.91507715405896,113.91507715405896,113.91507715405896,113.91507715405896,113.91507715405896,113.91507715405896,113.91507715405896,113.91507715405896,l,0.6919866639655083,1,96,0,114.63240408618003,116.13421714003198,,,,,,,,,,,,,,,,,,,,,,34124,2022-11-07_14h01.39.495,vts_reward_expectancy_bt_OFFLINE,2022.2.4,60.05055691387439,
0,0,0,1,0,1,0,0,star ,circle,0,0,0,0,1,3,15,10,,,,,,,,,,,,116.63447416899726,116.63447416899726,116.63447416899726,116.63447416899726,116.63447416899726,116.63447416899726,116.63447416899726,116.63447416899726,116.63447416899726,116.63447416899726,l,0.4355705571360886,10,106,0,117.10167354112491,118.60339061613195,,,,,,,,,,,,,,,,,,,,,,34124,2022-11-07_14h01.39.495,vts_reward_expectancy_bt_OFFLINE,2022.2.4,60.05055691387439,
0,1,0,0,1,0,0,0,circle,triangle,0,0,0,0,1,4,16,3,,,,,,,,,,,,119.10408557811752,119.10408557811752,119.10408557811752,119.10408557811752,119.10408557811752,119.10408557811752,119.10408557811752,119.10408557811752,119.10408557811752,119.10408557811752,a,0.5752518051303923,10,116,0,119.70466431416571,121.20656850305386,,,,,,,,,,,,,,,,,,,,,,34124,2022-11-07_14h01.39.495,vts_reward_expectancy_bt_OFFLINE,2022.2.4,60.05055691387439,
1,0,0,0,0,0,0,1,triangle,star,0,0,0,0,1,5,17,2,,,,,,,,,,,,121.70689172600396,121.70689172600396,121.70689172600396,121.70689172600396,121.70689172600396,121.70689172600396,121.70689172600396,121.70689172600396,121.70689172600396,121.70689172600396,l,0.8654763291124254,1,117,0,122.59131722501479,124.09299462614581,124.09299462614581,,,,,,,,,,,,,,,,,,,,,34124,2022-11-07_14h01.39.495,vts_reward_expectancy_bt_OFFLINE,2022.2.4,60.05055691387439,
0,0,1,0,1,0,0,0,hexagon,triangle,0,0,0,0,1,6,18,6,,,,,,,,,,,,124.5934485590551,124.5934485590551,124.5934485590551,124.5934485590551,124.5934485590551,124.5934485590551,124.5934485590551,124.5934485590551,124.5934485590551,124.5934485590551,a,0.9700187940616161,1,118,0,125.59451161604375,127.09615194099024,,,,,,,,,,,,,,,,,,,,,,34124,2022-11-07_14h01.39.495,vts_reward_expectancy_bt_OFFLINE,2022.2.4,60.05055691387439,
1,0,0,0,0,1,0,0,triangle,circle,0,0,0,0,1,7,19,0,,,,,,,,,,,,127.59684408619069,127.59684408619069,127.59684408619069,127.59684408619069,127.59684408619069,127.59684408619069,127.59684408619069,127.59684408619069,127.59684408619069,127.59684408619069,l,0.48661840707063675,10,128,0,128.11390379304066,129.61562599404715,,,,,,,,,,,,,,,,,,,,,,34124,2022-11-07_14h01.39.495,vts_reward_expectancy_bt_OFFLINE,2022.2.4,60.05055691387439,
0,0,1,0,0,1,0,0,hexagon,circle,0,0,0,0,1,8,20,7,,,,,,,,,,,,130.11629967810586,130.11629967810586,130.11629967810586,130.11629967810586,130.11629967810586,130.11629967810586,130.11629967810586,130.11629967810586,130.11629967810586,130.11629967810586,l,0.5443172859959304,10,138,0,130.68366355798207,132.18512309412472,,,,,,,,,,,,,,,,,,,,,,34124,2022-11-07_14h01.39.495,vts_reward_expectancy_bt_OFFLINE,2022.2.4,60.05055691387439,
0,1,0,0,0,0,0,1,circle,star,0,0,0,0,1,9,21,5,,,,,,,,,,,,132.6856888490729,132.6856888490729,132.6856888490729,132.6856888490729,132.6856888490729,132.6856888490729,132.6856888490729,132.6856888490729,132.6856888490729,132.6856888490729,a,0.39439546200446784,10,148,0,133.10272608301602,134.60446980618872,,,,,,,,,,,,,,,,,,,,,,34124,2022-11-07_14h01.39.495,vts_reward_expectancy_bt_OFFLINE,2022.2.4,60.05055691387439,
1,0,0,0,0,0,1,0,triangle,hexagon,0,0,0,0,1,10,22,1,,,,,,,,,,,,135.10519663314335,135.10519663314335,135.10519663314335,135.10519663314335,135.10519663314335,135.10519663314335,135.10519663314335,135.10519663314335,135.10519663314335,135.10519663314335,a,1.4855079259723425,1,149,0,136.6235683390405,138.12504147505388,,,,,,,,,,,,,,,,,,,,,,34124,2022-11-07_14h01.39.495,vts_reward_expectancy_bt_OFFLINE,2022.2.4,60.05055691387439,
0,0,1,0,0,0,0,1,hexagon,star,0,0,0,0,1,11,23,8,,,,,,,,,,,,138.6255644741468,138.6255644741468,138.6255644741468,138.6255644741468,138.6255644741468,138.6255644741468,138.6255644741468,138.6255644741468,138.6255644741468,138.6255644741468,a,0.5851660531479865,1,150,0,139.24288934003562,140.74463018309325,,,,,,,,,,,,,,,,,,,,,,34124,2022-11-07_14h01.39.495,vts_reward_expectancy_bt_OFFLINE,2022.2.4,60.05055691387439,
0,1,0,0,0,0,1,0,circle,hexagon,0,0,0,0,2,0,24,4,,,,,,,,,,,,141.24517998006195,141.24517998006195,141.24517998006195,141.24517998006195,141.24517998006195,141.24517998006195,141.24517998006195,141.24517998006195,141.24517998006195,141.24517998006195,a,0.9139267918653786,10,160,0,142.1795985600911,143.68113106908277,143.68113106908277,,,,,,,,,,,,,,,,,,,,,34124,2022-11-07_14h01.39.495,vts_reward_expectancy_bt_OFFLINE,2022.2.4,60.05055691387439,
1,0,0,0,0,1,0,0,triangle,circle,0,0,0,0,2,1,25,0,,,,,,,,,,,,144.18160831509158,144.18160831509158,144.18160831509158,144.18160831509158,144.18160831509158,144.18160831509158,144.18160831509158,144.18160831509158,144.18160831509158,144.18160831509158,l,0.5194514498580247,10,170,0,144.73244367912412,146.2338468960952,,,,,,,,,,,,,,,,,,,,,,34124,2022-11-07_14h01.39.495,vts_reward_expectancy_bt_OFFLINE,2022.2.4,60.05055691387439,
0,0,0,1,1,0,0,0,star,triangle,0,0,0,0,2,2,26,9,,,,,,,,,,,,146.73425952112302,146.73425952112302,146.73425952112302,146.73425952112302,146.73425952112302,146.73425952112302,146.73425952112302,146.73425952112302,146.73425952112302,146.73425952112302,a,0.892364873085171,10,180,0,147.65220617013983,149.15388780809008,,,,,,,,,,,,,,,,,,,,,,34124,2022-11-07_14h01.39.495,vts_reward_expectancy_bt_OFFLINE,2022.2.4,60.05055691387439,
0,1,0,0,0,0,0,1,circle,star,0,0,0,0,2,3,27,5,,,,,,,,,,,,149.65461785299703,149.65461785299703,149.65461785299703,149.65461785299703,149.65461785299703,149.65461785299703,149.65461785299703,149.65461785299703,149.65461785299703,149.65461785299703,a,0.5939375110901892,10,190,0,150.27174719912,151.77337372815236,,,,,,,,,,,,,,,,,,,,,,34124,2022-11-07_14h01.39.495,vts_reward_expectancy_bt_OFFLINE,2022.2.4,60.05055691387439,
0,0,1,0,0,1,0,0,hexagon,circle,0,0,0,0,2,4,28,7,,,,,,,,,,,,152.27417072909884,152.27417072909884,152.27417072909884,152.27417072909884,152.27417072909884,152.27417072909884,152.27417072909884,152.27417072909884,152.27417072909884,152.27417072909884,l,0.8430852619931102,10,200,0,153.14169200509787,154.64323096512817,,,,,,,,,,,,,,,,,,,,,,34124,2022-11-07_14h01.39.495,vts_reward_expectancy_bt_OFFLINE,2022.2.4,60.05055691387439,
1,0,0,0,0,0,1,0,triangle,hexagon,0,0,0,0,2,5,29,1,,,,,,,,,,,,155.14382369001396,155.14382369001396,155.14382369001396,155.14382369001396,155.14382369001396,155.14382369001396,155.14382369001396,155.14382369001396,155.14382369001396,155.14382369001396,l,1.055590822128579,10,210,0,156.22841969504952,157.73012807499617,,,,,,,,,,,,,,,,,,,,,,34124,2022-11-07_14h01.39.495,vts_reward_expectancy_bt_OFFLINE,2022.2.4,60.05055691387439,
0,0,0,1,0,0,1,0,star,hexagon,0,0,0,0,2,6,30,11,,,,,,,,,,,,158.2307467451319,158.2307467451319,158.2307467451319,158.2307467451319,158.2307467451319,158.2307467451319,158.2307467451319,158.2307467451319,158.2307467451319,158.2307467451319,a,1.130284566897899,1,211,0,159.38178733410314,160.8834225849714,,,,,,,,,,,,,,,,,,,,,,34124,2022-11-07_14h01.39.495,vts_reward_expectancy_bt_OFFLINE,2022.2.4,60.05055691387439,
0,0,1,0,0,0,0,1,hexagon,star,0,0,0,0,2,7,31,8,,,,,,,,,,,,161.38397622504272,161.38397622504272,161.38397622504272,161.38397622504272,161.38397622504272,161.38397622504272,161.38397622504272,161.38397622504272,161.38397622504272,161.38397622504272,a,1.4869860501494259,10,221,0,162.90230029914528,164.4040926999878,,,,,,,,,,,,,,,,,,,,,,34124,2022-11-07_14h01.39.495,vts_reward_expectancy_bt_OFFLINE,2022.2.4,60.05055691387439,
0,1,0,0,1,0,0,0,circle,triangle,0,0,0,0,2,8,32,3,,,,,,,,,,,,164.9046013110783,164.9046013110783,164.9046013110783,164.9046013110783,164.9046013110783,164.9046013110783,164.9046013110783,164.9046013110783,164.9046013110783,164.9046013110783,a,0.6568529070354998,10,231,0,165.58876504399814,167.09045868809335,,,,,,,,,,,,,,,,,,,,,,34124,2022-11-07_14h01.39.495,vts_reward_expectancy_bt_OFFLINE,2022.2.4,60.05055691387439,
0,0,1,0,1,0,0,0,hexagon,triangle,0,0,0,0,2,9,33,6,,,,,,,,,,,,167.59106902615167,167.59106902615167,167.59106902615167,167.59106902615167,167.59106902615167,167.59106902615167,167.59106902615167,167.59106902615167,167.59106902615167,167.59106902615167,a,0.737298381049186,10,241,0,168.35846543801017,169.85992542817257,,,,,,,,,,,,,,,,,,,,,,34124,2022-11-07_14h01.39.495,vts_reward_expectancy_bt_OFFLINE,2022.2.4,60.05055691387439,
1,0,0,0,0,0,0,1,triangle,star,0,0,0,0,2,10,34,2,,,,,,,,,,,,170.3606737991795,170.3606737991795,170.3606737991795,170.3606737991795,170.3606737991795,170.3606737991795,170.3606737991795,170.3606737991795,170.3606737991795,170.3606737991795,l,0.8585484770592302,10,251,0,171.244889796013,172.74672515504062,,,,,,,,,,,,,,,,,,,,,,34124,2022-11-07_14h01.39.495,vts_reward_expectancy_bt_OFFLINE,2022.2.4,60.05055691387439,
0,0,0,1,0,1,0,0,star ,circle,0,0,0,0,2,11,35,10,,,,,,,,,,,,173.24713048501872,173.24713048501872,173.24713048501872,173.24713048501872,173.24713048501872,173.24713048501872,173.24713048501872,173.24713048501872,173.24713048501872,173.24713048501872,l,0.5173947580624372,10,261,0,173.78104539611377,175.28266680403613,175.28266680403613,,,,,,,,,,,,,,,,,,,,,34124,2022-11-07_14h01.39.495,vts_reward_expectancy_bt_OFFLINE,2022.2.4,60.05055691387439,
0,1,0,0,0,0,0,1,circle,star,0,0,0,0,3,0,36,5,,,,,,,,,,,,175.7831896659918,175.7831896659918,175.7831896659918,175.7831896659918,175.7831896659918,175.7831896659918,175.7831896659918,175.7831896659918,175.7831896659918,175.7831896659918,a,0.5444847131147981,1,262,0,176.3507223741617,177.85233892407268,,,,,,,,,,,,,,,,,,,,,,34124,2022-11-07_14h01.39.495,vts_reward_expectancy_bt_OFFLINE,2022.2.4,60.05055691387439,
0,0,1,0,0,0,0,1,hexagon,star,0,0,0,0,3,1,37,8,,,,,,,,,,,,178.3528916311916,178.3528916311916,178.3528916311916,178.3528916311916,178.3528916311916,178.3528916311916,178.3528916311916,178.3528916311916,178.3528916311916,178.3528916311916,l,1.1134462638292462,10,272,0,179.48732926906087,180.98890122910962,,,,,,,,,,,,,,,,,,,,,,34124,2022-11-07_14h01.39.495,vts_reward_expectancy_bt_OFFLINE,2022.2.4,60.05055691387439,
0,1,0,0,0,0,1,0,circle,hexagon,0,0,0,0,3,2,38,4,,,,,,,,,,,,181.48960813507438,181.48960813507438,181.48960813507438,181.48960813507438,181.48960813507438,181.48960813507438,181.48960813507438,181.48960813507438,181.48960813507438,181.48960813507438,a,0.9701157028321177,10,282,0,182.4905817990657,183.99232860002667,,,,,,,,,,,,,,,,,,,,,,34124,2022-11-07_14h01.39.495,vts_reward_expectancy_bt_OFFLINE,2022.2.4,60.05055691387439,
0,0,0,1,0,1,0,0,star ,circle,0,0,0,0,3,3,39,10,,,,,,,,,,,,184.49275066098198,184.49275066098198,184.49275066098198,184.49275066098198,184.49275066098198,184.49275066098198,184.49275066098198,184.49275066098198,184.49275066098198,184.49275066098198,l,0.532819258980453,10,292,0,185.04344829102047,186.54506331519224,186.54506331519224,,,,,,,,,,,,,,,,,,,,,34124,2022-11-07_14h01.39.495,vts_reward_expectancy_bt_OFFLINE,2022.2.4,60.05055691387439,
0,0,1,0,1,0,0,0,hexagon,triangle,0,0,0,0,3,4,40,6,,,,,,,,,,,,187.0455397181213,187.0455397181213,187.0455397181213,187.0455397181213,187.0455397181213,187.0455397181213,187.0455397181213,187.0455397181213,187.0455397181213,187.0455397181213,a,0.6579839361365885,1,293,0,187.72985880519263,189.23156858514994,,,,,,,,,,,,,,,,,,,,,,34124,2022-11-07_14h01.39.495,vts_reward_expectancy_bt_OFFLINE,2022.2.4,60.05055691387439,
1,0,0,0,0,0,1,0,triangle,hexagon,0,0,0,0,3,5,41,1,,,,,,,,,,,,189.73192058107816,189.73192058107816,189.73192058107816,189.73192058107816,189.73192058107816,189.73192058107816,189.73192058107816,189.73192058107816,189.73192058107816,189.73192058107816,l,0.985766485799104,1,294,0,190.74983441410586,192.25144544406794,,,,,,,,,,,,,,,,,,,,,,34124,2022-11-07_14h01.39.495,vts_reward_expectancy_bt_OFFLINE,2022.2.4,60.05055691387439,
1,0,0,0,0,0,0,1,triangle,star,0,0,0,0,3,6,42,2,,,,,,,,,,,,192.7518901100848,192.7518901100848,192.7518901100848,192.7518901100848,192.7518901100848,192.7518901100848,192.7518901100848,192.7518901100848,192.7518901100848,192.7518901100848,l,0.6208843789063394,10,304,0,193.4026157001499,194.90434346999973,,,,,,,,,,,,,,,,,,,,,,34124,2022-11-07_14h01.39.495,vts_reward_expectancy_bt_OFFLINE,2022.2.4,60.05055691387439,
1,0,0,0,0,1,0,0,triangle,circle,0,0,0,0,3,7,43,0,,,,,,,,,,,,195.4051030401606,195.4051030401606,195.4051030401606,195.4051030401606,195.4051030401606,195.4051030401606,195.4051030401606,195.4051030401606,195.4051030401606,195.4051030401606,l,0.36461967788636684,10,314,0,195.7886270750314,197.2902708700858,,,,,,,,,,,,,,,,,,,,,,34124,2022-11-07_14h01.39.495,vts_reward_expectancy_bt_OFFLINE,2022.2.4,60.05055691387439,
0,0,0,1,0,0,1,0,star,hexagon,0,0,0,0,3,8,44,11,,,,,,,,,,,,197.79084889800288,197.79084889800288,197.79084889800288,197.79084889800288,197.79084889800288,197.79084889800288,197.79084889800288,197.79084889800288,197.79084889800288,197.79084889800288,a,1.128314385889098,1,315,0,198.94238477619365,200.4437648251187,,,,,,,,,,,,,,,,,,,,,,34124,2022-11-07_14h01.39.495,vts_reward_expectancy_bt_OFFLINE,2022.2.4,60.05055691387439,
0,1,0,0,1,0,0,0,circle,triangle,0,0,0,0,3,9,45,3,,,,,,,,,,,,200.9442298640497,200.9442298640497,200.9442298640497,200.9442298640497,200.9442298640497,200.9442298640497,200.9442298640497,200.9442298640497,200.9442298640497,200.9442298640497,a,0.4849089088384062,1,316,0,201.46153421117924,202.96322203800082,,,,,,,,,,,,,,,,,,,,,,34124,2022-11-07_14h01.39.495,vts_reward_expectancy_bt_OFFLINE,2022.2.4,60.05055691387439,
0,0,1,0,0,1,0,0,hexagon,circle,0,0,0,0,3,10,46,7,,,,,,,,,,,,203.46372669003904,203.46372669003904,203.46372669003904,203.46372669003904,203.46372669003904,203.46372669003904,203.46372669003904,203.46372669003904,203.46372669003904,203.46372669003904,l,0.562985329888761,1,317,0,204.0477926339954,205.5493825650774,,,,,,,,,,,,,,,,,,,,,,34124,2022-11-07_14h01.39.495,vts_reward_expectancy_bt_OFFLINE,2022.2.4,60.05055691387439,
0,0,0,1,1,0,0,0,star,triangle,0,0,0,0,3,11,47,9,,,,,,,,,,,,206.0500713251531,206.0500713251531,206.0500713251531,206.0500713251531,206.0500713251531,206.0500713251531,206.0500713251531,206.0500713251531,206.0500713251531,206.0500713251531,l,0.9361345518846065,1,318,0,207.01789582916535,208.51942494418472,,,,,,,,,,,,,,,,,,,,,,34124,2022-11-07_14h01.39.495,vts_reward_expectancy_bt_OFFLINE,2022.2.4,60.05055691387439,
0,0,1,0,1,0,0,0,hexagon,triangle,1,0,1,0,0,0,0,6,,,,,,,,,,,,214.80989579111338,214.80989579111338,214.80989579111338,214.80989579111338,214.80989579111338,214.80989579111338,214.80989579111338,214.80989579111338,214.80989579111338,214.80989579111338,a,0.6828757179901004,10,328,1,215.51065185316838,217.0120485140942,217.0120485140942,,,,,,,,,,,,,,,,,,,,,34124,2022-11-07_14h01.39.495,vts_reward_expectancy_bt_OFFLINE,2022.2.4,60.05055691387439,
1,0,0,0,0,0,0,1,triangle,star,1,0,1,0,0,1,1,2,,,,,,,,,,,,217.51259338110685,217.51259338110685,217.51259338110685,217.51259338110685,217.51259338110685,217.51259338110685,217.51259338110685,217.51259338110685,217.51259338110685,217.51259338110685,l,0.7688192590139806,10,338,1,218.31357912905514,219.81507971603423,,,,,,,,,,,,,,,,,,,,,,34124,2022-11-07_14h01.39.495,vts_reward_expectancy_bt_OFFLINE,2022.2.4,60.05055691387439,
0,1,0,0,0,0,1,0,circle,hexagon,1,0,1,0,0,2,2,4,,,,,,,,,,,,220.31578888511285,220.31578888511285,220.31578888511285,220.31578888511285,220.31578888511285,220.31578888511285,220.31578888511285,220.31578888511285,220.31578888511285,220.31578888511285,a,0.610227552941069,10,348,1,220.94991142116487,222.45126878516749,222.45126878516749,,,,,,,,,,,,,,,,,,,,,34124,2022-11-07_14h01.39.495,vts_reward_expectancy_bt_OFFLINE,2022.2.4,60.05055691387439,
0,0,1,0,0,1,0,0,hexagon,circle,1,0,1,0,0,3,3,7,,,,,,,,,,,,222.95198241597973,222.95198241597973,222.95198241597973,222.95198241597973,222.95198241597973,222.95198241597973,222.95198241597973,222.95198241597973,222.95198241597973,222.95198241597973,l,0.4259375468827784,10,358,1,223.40253076818772,224.90422901813872,,,,,,,,,,,,,,,,,,,,,,34124,2022-11-07_14h01.39.495,vts_reward_expectancy_bt_OFFLINE,2022.2.4,60.05055691387439,
1,0,0,0,0,0,1,0,triangle,hexagon,1,0,1,0,0,4,4,1,,,,,,,,,,,,225.40478279604577,225.40478279604577,225.40478279604577,225.40478279604577,225.40478279604577,225.40478279604577,225.40478279604577,225.40478279604577,225.40478279604577,225.40478279604577,l,0.4941540490835905,1,359,1,225.92191856517456,227.42359511600807,,,,,,,,,,,,,,,,,,,,,,34124,2022-11-07_14h01.39.495,vts_reward_expectancy_bt_OFFLINE,2022.2.4,60.05055691387439,
1,0,0,0,0,1,0,0,triangle,circle,1,0,1,0,0,5,5,0,,,,,,,,,,,,227.92435315507464,227.92435315507464,227.92435315507464,227.92435315507464,227.92435315507464,227.92435315507464,227.92435315507464,227.92435315507464,227.92435315507464,227.92435315507464,l,0.48405495285987854,1,360,1,228.4246877131518,229.92647246806882,229.92647246806882,,,,,,,,,,,,,,,,,,,,,34124,2022-11-07_14h01.39.495,vts_reward_expectancy_bt_OFFLINE,2022.2.4,60.05055691387439,
0,0,0,1,0,0,1,0,star,hexagon,1,0,1,0,0,6,6,11,,,,,,,,,,,,230.42702755797654,230.42702755797654,230.42702755797654,230.42702755797654,230.42702755797654,230.42702755797654,230.42702755797654,230.42702755797654,230.42702755797654,230.42702755797654,l,4.979956172872335,10,370,1,235.432544979034,236.93414706503972,,,,,,,,,,,,,,,,,,,,,,34124,2022-11-07_14h01.39.495,vts_reward_expectancy_bt_OFFLINE,2022.2.4,60.05055691387439,
0,0,0,1,1,0,0,0,star,triangle,1,0,1,0,0,7,7,9,,,,,,,,,,,,237.43452024413273,237.43452024413273,237.43452024413273,237.43452024413273,237.43452024413273,237.43452024413273,237.43452024413273,237.43452024413273,237.43452024413273,237.43452024413273,l,1.4695833828300238,1,371,1,238.93616390996613,240.43814783310518,,,,,,,,,,,,,,,,,,,,,,34124,2022-11-07_14h01.39.495,vts_reward_expectancy_bt_OFFLINE,2022.2.4,60.05055691387439,
0,1,0,0,0,0,0,1,circle,star,1,0,1,0,0,8,8,5,,,,,,,,,,,,240.93844733014703,240.93844733014703,240.93844733014703,240.93844733014703,240.93844733014703,240.93844733014703,240.93844733014703,240.93844733014703,240.93844733014703,240.93844733014703,a,0.9588224859908223,1,372,1,241.92280849302188,243.4247299481649,,,,,,,,,,,,,,,,,,,,,,34124,2022-11-07_14h01.39.495,vts_reward_expectancy_bt_OFFLINE,2022.2.4,60.05055691387439,
0,0,1,0,0,0,0,1,hexagon,star,1,0,1,0,0,9,9,8,,,,,,,,,,,,243.92525391001254,243.92525391001254,243.92525391001254,243.92525391001254,243.92525391001254,243.92525391001254,243.92525391001254,243.92525391001254,243.92525391001254,243.92525391001254,a,1.9668887490406632,10,382,1,245.91065584798343,247.4123411301989,247.4123411301989,,,,,,,,,,,,,,,,,,,,,34124,2022-11-07_14h01.39.495,vts_reward_expectancy_bt_OFFLINE,2022.2.4,60.05055691387439,
0,1,0,0,1,0,0,0,circle,triangle,1,0,1,0,0,10,10,3,,,,,,,,,,,,247.9127612451557,247.9127612451557,247.9127612451557,247.9127612451557,247.9127612451557,247.9127612451557,247.9127612451557,247.9127612451557,247.9127612451557,247.9127612451557,a,0.5674554088618606,1,383,1,248.4967370990198,249.99853471596725,249.99853471596725,,,,,,,,,,,,,,,,,,,,,34124,2022-11-07_14h01.39.495,vts_reward_expectancy_bt_OFFLINE,2022.2.4,60.05055691387439,
0,0,0,1,0,1,0,0,star ,circle,1,0,1,0,0,11,11,10,,,,,,,,,,,,250.49917474016547,250.49917474016547,250.49917474016547,250.49917474016547,250.49917474016547,250.49917474016547,250.49917474016547,250.49917474016547,250.49917474016547,250.49917474016547,l,0.95158153004013,10,393,1,251.48338038800284,252.98514680098742,,,,,,,,,,,,,,,,,,,,,,34124,2022-11-07_14h01.39.495,vts_reward_expectancy_bt_OFFLINE,2022.2.4,60.05055691387439,
0,0,0,1,0,0,1,0,star,hexagon,1,0,1,0,1,0,12,11,,,,,,,,,,,,253.48588983318768,253.48588983318768,253.48588983318768,253.48588983318768,253.48588983318768,253.48588983318768,253.48588983318768,253.48588983318768,253.48588983318768,253.48588983318768,a,1.2709382849279791,10,403,1,254.78717784001492,256.2886213690508,,,,,,,,,,,,,,,,,,,,,,34124,2022-11-07_14h01.39.495,vts_reward_expectancy_bt_OFFLINE,2022.2.4,60.05055691387439,
0,0,0,1,0,1,0,0,star ,circle,1,0,1,0,1,1,13,10,,,,,,,,,,,,256.78945012018085,256.78945012018085,256.78945012018085,256.78945012018085,256.78945012018085,256.78945012018085,256.78945012018085,256.78945012018085,256.78945012018085,256.78945012018085,a,0.7684011748060584,10,413,1,257.5900699910708,259.09179688896984,,,,,,,,,,,,,,,,,,,,,,34124,2022-11-07_14h01.39.495,vts_reward_expectancy_bt_OFFLINE,2022.2.4,60.05055691387439,
0,0,1,0,0,1,0,0,hexagon,circle,1,0,1,0,1,2,14,7,,,,,,,,,,,,259.59240765613504,259.59240765613504,259.59240765613504,259.59240765613504,259.59240765613504,259.59240765613504,259.59240765613504,259.59240765613504,259.59240765613504,259.59240765613504,l,0.9820041218772531,10,423,1,260.59339351416565,262.09506906499155,,,,,,,,,,,,,,,,,,,,,,34124,2022-11-07_14h01.39.495,vts_reward_expectancy_bt_OFFLINE,2022.2.4,60.05055691387439,
0,0,0,1,1,0,0,0,star,triangle,1,0,1,0,1,3,15,9,,,,,,,,,,,,262.59561329404823,262.59561329404823,262.59561329404823,262.59561329404823,262.59561329404823,262.59561329404823,262.59561329404823,262.59561329404823,262.59561329404823,262.59561329404823,a,0.8353910488076508,1,424,1,263.46339129516855,264.9650026310701,,,,,,,,,,,,,,,,,,,,,,34124,2022-11-07_14h01.39.495,vts_reward_expectancy_bt_OFFLINE,2022.2.4,60.05055691387439,
0,0,1,0,1,0,0,0,hexagon,triangle,1,0,1,0,1,4,16,6,,,,,,,,,,,,265.4655168650206,265.4655168650206,265.4655168650206,265.4655168650206,265.4655168650206,265.4655168650206,265.4655168650206,265.4655168650206,265.4655168650206,265.4655168650206,l,1.3421834837645292,1,425,1,266.83368655014783,268.33537323609926,,,,,,,,,,,,,,,,,,,,,,34124,2022-11-07_14h01.39.495,vts_reward_expectancy_bt_OFFLINE,2022.2.4,60.05055691387439,
0,1,0,0,0,0,0,1,circle,star,1,0,1,0,1,5,17,5,,,,,,,,,,,,268.83609640900977,268.83609640900977,268.83609640900977,268.83609640900977,268.83609640900977,268.83609640900977,268.83609640900977,268.83609640900977,268.83609640900977,268.83609640900977,a,0.6839585180860013,1,426,1,269.53672519815154,271.0383627889678,271.0383627889678,,,,,,,,,,,,,,,,,,,,,34124,2022-11-07_14h01.39.495,vts_reward_expectancy_bt_OFFLINE,2022.2.4,60.05055691387439,
0,1,0,0,0,0,1,0,circle,hexagon,1,0,1,0,1,6,18,4,,,,,,,,,,,,271.538950414164,271.538950414164,271.538950414164,271.538950414164,271.538950414164,271.538950414164,271.538950414164,271.538950414164,271.538950414164,271.538950414164,a,1.579759654123336,10,436,1,273.1408038150985,274.6424910831265,,,,,,,,,,,,,,,,,,,,,,34124,2022-11-07_14h01.39.495,vts_reward_expectancy_bt_OFFLINE,2022.2.4,60.05055691387439,
0,0,1,0,0,0,0,1,hexagon,star,1,0,1,0,1,7,19,8,,,,,,,,,,,,275.1429282540921,275.1429282540921,275.1429282540921,275.1429282540921,275.1429282540921,275.1429282540921,275.1429282540921,275.1429282540921,275.1429282540921,275.1429282540921,l,1.2514568269252777,1,437,1,276.41095489403233,277.9126100281719,277.9126100281719,,,,,,,,,,,,,,,,,,,,,34124,2022-11-07_14h01.39.495,vts_reward_expectancy_bt_OFFLINE,2022.2.4,60.05055691387439,
1,0,0,0,0,0,1,0,triangle,hexagon,1,0,1,0,1,8,20,1,,,,,,,,,,,,278.41317099006847,278.41317099006847,278.41317099006847,278.41317099006847,278.41317099006847,278.41317099006847,278.41317099006847,278.41317099006847,278.41317099006847,278.41317099006847,l,0.6578897230792791,10,447,1,279.0973398881033,280.5990624811966,,,,,,,,,,,,,,,,,,,,,,34124,2022-11-07_14h01.39.495,vts_reward_expectancy_bt_OFFLINE,2022.2.4,60.05055691387439,
0,1,0,0,1,0,0,0,circle,triangle,1,0,1,0,1,9,21,3,,,,,,,,,,,,281.0997065661941,281.0997065661941,281.0997065661941,281.0997065661941,281.0997065661941,281.0997065661941,281.0997065661941,281.0997065661941,281.0997065661941,281.0997065661941,a,0.5580475269816816,10,457,1,281.68339626002125,283.1850833101198,,,,,,,,,,,,,,,,,,,,,,34124,2022-11-07_14h01.39.495,vts_reward_expectancy_bt_OFFLINE,2022.2.4,60.05055691387439,
1,0,0,0,0,1,0,0,triangle,circle,1,0,1,0,1,10,22,0,,,,,,,,,,,,283.6856021960266,283.6856021960266,283.6856021960266,283.6856021960266,283.6856021960266,283.6856021960266,283.6856021960266,283.6856021960266,283.6856021960266,283.6856021960266,l,0.4691012389957905,10,467,1,284.18641724297777,285.6878501190804,,,,,,,,,,,,,,,,,,,,,,34124,2022-11-07_14h01.39.495,vts_reward_expectancy_bt_OFFLINE,2022.2.4,60.05055691387439,
1,0,0,0,0,0,0,1,triangle,star,1,0,1,0,1,11,23,2,,,,,,,,,,,,286.1885594581254,286.1885594581254,286.1885594581254,286.1885594581254,286.1885594581254,286.1885594581254,286.1885594581254,286.1885594581254,286.1885594581254,286.1885594581254,l,0.4413379388861358,10,477,1,286.65555438399315,288.15716915298253,,,,,,,,,,,,,,,,,,,,,,34124,2022-11-07_14h01.39.495,vts_reward_expectancy_bt_OFFLINE,2022.2.4,60.05055691387439,
0,1,0,0,0,0,1,0,circle,hexagon,1,0,1,0,2,0,24,4,,,,,,,,,,,,288.65787798003294,288.65787798003294,288.65787798003294,288.65787798003294,288.65787798003294,288.65787798003294,288.65787798003294,288.65787798003294,288.65787798003294,288.65787798003294,a,0.4369454709812999,1,478,1,289.1249922751449,290.6266712511424,,,,,,,,,,,,,,,,,,,,,,34124,2022-11-07_14h01.39.495,vts_reward_expectancy_bt_OFFLINE,2022.2.4,60.05055691387439,
0,0,1,0,0,1,0,0,hexagon,circle,1,0,1,0,2,1,25,7,,,,,,,,,,,,291.1270028750878,291.1270028750878,291.1270028750878,291.1270028750878,291.1270028750878,291.1270028750878,291.1270028750878,291.1270028750878,291.1270028750878,291.1270028750878,l,0.5883287477772683,10,488,1,291.7444091329817,293.2463256511837,293.2463256511837,,,,,,,,,,,,,,,,,,,,,34124,2022-11-07_14h01.39.495,vts_reward_expectancy_bt_OFFLINE,2022.2.4,60.05055691387439,
0,1,0,0,0,0,0,1,circle,star,1,0,1,0,2,2,26,5,,,,,,,,,,,,293.7468147131149,293.7468147131149,293.7468147131149,293.7468147131149,293.7468147131149,293.7468147131149,293.7468147131149,293.7468147131149,293.7468147131149,293.7468147131149,a,0.7028868119232357,10,498,1,294.480736610014,295.9824712839909,,,,,,,,,,,,,,,,,,,,,,34124,2022-11-07_14h01.39.495,vts_reward_expectancy_bt_OFFLINE,2022.2.4,60.05055691387439,
1,0,0,0,0,0,0,1,triangle,star,1,0,1,0,2,3,27,2,,,,,,,,,,,,296.48306664498523,296.48306664498523,296.48306664498523,296.48306664498523,296.48306664498523,296.48306664498523,296.48306664498523,296.48306664498523,296.48306664498523,296.48306664498523,l,0.45281316293403506,10,508,1,296.9669379349798,298.4685339911375,,,,,,,,,,,,,,,,,,,,,,34124,2022-11-07_14h01.39.495,vts_reward_expectancy_bt_OFFLINE,2022.2.4,60.05055691387439,
0,1,0,0,1,0,0,0,circle,triangle,1,0,1,0,2,4,28,3,,,,,,,,,,,,298.9690503650345,298.9690503650345,298.9690503650345,298.9690503650345,298.9690503650345,298.9690503650345,298.9690503650345,298.9690503650345,298.9690503650345,298.9690503650345,a,0.35242215008474886,1,509,1,299.35279768519104,300.85453611798584,,,,,,,,,,,,,,,,,,,,,,34124,2022-11-07_14h01.39.495,vts_reward_expectancy_bt_OFFLINE,2022.2.4,60.05055691387439,
0,0,0,1,0,0,1,0,star,hexagon,1,0,1,0,2,5,29,11,,,,,,,,,,,,301.355131075019,301.355131075019,301.355131075019,301.355131075019,301.355131075019,301.355131075019,301.355131075019,301.355131075019,301.355131075019,301.355131075019,l,0.4188732230104506,10,519,1,301.8057083650492,303.3072813951876,,,,,,,,,,,,,,,,,,,,,,34124,2022-11-07_14h01.39.495,vts_reward_expectancy_bt_OFFLINE,2022.2.4,60.05055691387439,
0,0,0,1,1,0,0,0,star,triangle,1,0,1,0,2,6,30,9,,,,,,,,,,,,303.8077869829722,303.8077869829722,303.8077869829722,303.8077869829722,303.8077869829722,303.8077869829722,303.8077869829722,303.8077869829722,303.8077869829722,303.8077869829722,a,0.644451041938737,10,529,1,304.4751669331454,305.97699838504195,,,,,,,,,,,,,,,,,,,,,,34124,2022-11-07_14h01.39.495,vts_reward_expectancy_bt_OFFLINE,2022.2.4,60.05055691387439,
0,0,1,0,1,0,0,0,hexagon,triangle,1,0,1,0,2,7,31,6,,,,,,,,,,,,306.4773403550498,306.4773403550498,306.4773403550498,306.4773403550498,306.4773403550498,306.4773403550498,306.4773403550498,306.4773403550498,306.4773403550498,306.4773403550498,a,0.5064759561792016,1,530,1,307.0115482211113,308.51308947009966,,,,,,,,,,,,,,,,,,,,,,34124,2022-11-07_14h01.39.495,vts_reward_expectancy_bt_OFFLINE,2022.2.4,60.05055691387439,
0,0,1,0,0,0,0,1,hexagon,star,1,0,1,0,2,8,32,8,,,,,,,,,,,,309.01355233509094,309.01355233509094,309.01355233509094,309.01355233509094,309.01355233509094,309.01355233509094,309.01355233509094,309.01355233509094,309.01355233509094,309.01355233509094,l,0.5011865291744471,10,540,1,309.54758215113543,311.04915140918456,,,,,,,,,,,,,,,,,,,,,,34124,2022-11-07_14h01.39.495,vts_reward_expectancy_bt_OFFLINE,2022.2.4,60.05055691387439,
0,0,0,1,0,1,0,0,star ,circle,1,0,1,0,2,9,33,10,,,,,,,,,,,,311.54988504899666,311.54988504899666,311.54988504899666,311.54988504899666,311.54988504899666,311.54988504899666,311.54988504899666,311.54988504899666,311.54988504899666,311.54988504899666,l,0.4289423869922757,1,541,1,312.00023609399796,313.50197743903846,,,,,,,,,,,,,,,,,,,,,,34124,2022-11-07_14h01.39.495,vts_reward_expectancy_bt_OFFLINE,2022.2.4,60.05055691387439,
1,0,0,0,0,0,1,0,triangle,hexagon,1,0,1,0,2,10,34,1,,,,,,,,,,,,314.00258081406355,314.00258081406355,314.00258081406355,314.00258081406355,314.00258081406355,314.00258081406355,314.00258081406355,314.00258081406355,314.00258081406355,314.00258081406355,l,0.6428675230126828,10,551,1,314.66993325413205,316.1714739310555,,,,,,,,,,,,,,,,,,,,,,34124,2022-11-07_14h01.39.495,vts_reward_expectancy_bt_OFFLINE,2022.2.4,60.05055691387439,
1,0,0,0,0,1,0,0,triangle,circle,1,0,1,0,2,11,35,0,,,,,,,,,,,,316.67202304000966,316.67202304000966,316.67202304000966,316.67202304000966,316.67202304000966,316.67202304000966,316.67202304000966,316.67202304000966,316.67202304000966,316.67202304000966,l,0.618495827075094,10,561,1,317.32260432606563,318.82430411106907,,,,,,,,,,,,,,,,,,,,,,34124,2022-11-07_14h01.39.495,vts_reward_expectancy_bt_OFFLINE,2022.2.4,60.05055691387439,
0,0,0,1,0,0,1,0,star,hexagon,1,0,1,0,3,0,36,11,,,,,,,,,,,,319.3250016751699,319.3250016751699,319.3250016751699,319.3250016751699,319.3250016751699,319.3250016751699,319.3250016751699,319.3250016751699,319.3250016751699,319.3250016751699,l,2.5099100759252906,10,571,1,321.8610212909989,323.36277253506705,,,,,,,,,,,,,,,,,,,,,,34124,2022-11-07_14h01.39.495,vts_reward_expectancy_bt_OFFLINE,2022.2.4,60.05055691387439,
0,0,1,0,0,0,0,1,hexagon,star,1,0,1,0,3,1,37,8,,,,,,,,,,,,323.8634658539668,323.8634658539668,323.8634658539668,323.8634658539668,323.8634658539668,323.8634658539668,323.8634658539668,323.8634658539668,323.8634658539668,323.8634658539668,l,1.8757858229801059,1,572,1,325.76548953796737,327.2670996491797,,,,,,,,,,,,,,,,,,,,,,34124,2022-11-07_14h01.39.495,vts_reward_expectancy_bt_OFFLINE,2022.2.4,60.05055691387439,
0,0,0,1,1,0,0,0,star,triangle,1,0,1,0,3,2,38,9,,,,,,,,,,,,327.7676535041537,327.7676535041537,327.7676535041537,327.7676535041537,327.7676535041537,327.7676535041537,327.7676535041537,327.7676535041537,327.7676535041537,327.7676535041537,a,1.3582734710071236,10,582,1,329.15251526399516,330.65428430610336,,,,,,,,,,,,,,,,,,,,,,34124,2022-11-07_14h01.39.495,vts_reward_expectancy_bt_OFFLINE,2022.2.4,60.05055691387439,
0,0,0,1,0,1,0,0,star ,circle,1,0,1,0,3,3,39,10,,,,,,,,,,,,331.1547267390415,331.1547267390415,331.1547267390415,331.1547267390415,331.1547267390415,331.1547267390415,331.1547267390415,331.1547267390415,331.1547267390415,331.1547267390415,l,0.4240244319662452,1,583,1,331.6051966100931,333.10705976514146,,,,,,,,,,,,,,,,,,,,,,34124,2022-11-07_14h01.39.495,vts_reward_expectancy_bt_OFFLINE,2022.2.4,60.05055691387439,
0,0,1,0,0,1,0,0,hexagon,circle,1,0,1,0,3,4,40,7,,,,,,,,,,,,333.60743925417773,333.60743925417773,333.60743925417773,333.60743925417773,333.60743925417773,333.60743925417773,333.60743925417773,333.60743925417773,333.60743925417773,333.60743925417773,l,0.6031850238796324,10,593,1,334.241607506061,335.7430619550869,,,,,,,,,,,,,,,,,,,,,,34124,2022-11-07_14h01.39.495,vts_reward_expectancy_bt_OFFLINE,2022.2.4,60.05055691387439,
0,1,0,0,0,0,0,1,circle,star,1,0,1,0,3,5,41,5,,,,,,,,,,,,336.2435297181364,336.2435297181364,336.2435297181364,336.2435297181364,336.2435297181364,336.2435297181364,336.2435297181364,336.2435297181364,336.2435297181364,336.2435297181364,l,1.4427280731033534,10,603,1,337.7119223549962,339.2136723101139,,,,,,,,,,,,,,,,,,,,,,34124,2022-11-07_14h01.39.495,vts_reward_expectancy_bt_OFFLINE,2022.2.4,60.05055691387439,
1,0,0,0,0,1,0,0,triangle,circle,1,0,1,0,3,6,42,0,,,,,,,,,,,,339.7141128841322,339.7141128841322,339.7141128841322,339.7141128841322,339.7141128841322,339.7141128841322,339.7141128841322,339.7141128841322,339.7141128841322,339.7141128841322,l,0.741528945043683,10,613,1,340.4817860929761,341.98335936502554,,,,,,,,,,,,,,,,,,,,,,34124,2022-11-07_14h01.39.495,vts_reward_expectancy_bt_OFFLINE,2022.2.4,60.05055691387439,
0,0,1,0,1,0,0,0,hexagon,triangle,1,0,1,0,3,7,43,6,,,,,,,,,,,,342.4839912680909,342.4839912680909,342.4839912680909,342.4839912680909,342.4839912680909,342.4839912680909,342.4839912680909,342.4839912680909,342.4839912680909,342.4839912680909,a,1.0193898919969797,1,614,1,343.5352797731757,345.03685752418824,,,,,,,,,,,,,,,,,,,,,,34124,2022-11-07_14h01.39.495,vts_reward_expectancy_bt_OFFLINE,2022.2.4,60.05055691387439,
1,0,0,0,0,0,1,0,triangle,hexagon,1,0,1,0,3,8,44,1,,,,,,,,,,,,345.5371882400941,345.5371882400941,345.5371882400941,345.5371882400941,345.5371882400941,345.5371882400941,345.5371882400941,345.5371882400941,345.5371882400941,345.5371882400941,l,1.0268283740151674,10,624,1,346.58831017417833,348.09016967518255,,,,,,,,,,,,,,,,,,,,,,34124,2022-11-07_14h01.39.495,vts_reward_expectancy_bt_OFFLINE,2022.2.4,60.05055691387439,
0,1,0,0,1,0,0,0,circle,triangle,1,0,1,0,3,9,45,3,,,,,,,,,,,,348.5907292680349,348.5907292680349,348.5907292680349,348.5907292680349,348.5907292680349,348.5907292680349,348.5907292680349,348.5907292680349,348.5907292680349,348.5907292680349,a,0.6622801679186523,10,634,1,349.2746754561085,350.7764760861173,,,,,,,,,,,,,,,,,,,,,,34124,2022-11-07_14h01.39.495,vts_reward_expectancy_bt_OFFLINE,2022.2.4,60.05055691387439,
0,1,0,0,0,0,1,0,circle,hexagon,1,0,1,0,3,10,46,4,,,,,,,,,,,,351.27712910505943,351.27712910505943,351.27712910505943,351.27712910505943,351.27712910505943,351.27712910505943,351.27712910505943,351.27712910505943,351.27712910505943,351.27712910505943,a,1.0132683031260967,10,644,1,352.31131769600324,353.8131384430453,353.8131384430453,,,,,,,,,,,,,,,,,,,,,34124,2022-11-07_14h01.39.495,vts_reward_expectancy_bt_OFFLINE,2022.2.4,60.05055691387439,
1,0,0,0,0,0,0,1,triangle,star,1,0,1,0,3,11,47,2,,,,,,,,,,,,354.31363999610767,354.31363999610767,354.31363999610767,354.31363999610767,354.31363999610767,354.31363999610767,354.31363999610767,354.31363999610767,354.31363999610767,354.31363999610767,a,1.7118626509327441,1,645,1,356.0486807881389,357.55040511116385,,,,,,,,,,,,,,,,,,,,,,34124,2022-11-07_14h01.39.495,vts_reward_expectancy_bt_OFFLINE,2022.2.4,60.05055691387439,
0,1,0,0,1,0,0,0,circle,triangle,2,0,2,0,0,0,0,3,,,,,,,,,,,,364.1578017140273,364.1578017140273,364.1578017140273,364.1578017140273,364.1578017140273,364.1578017140273,364.1578017140273,364.1578017140273,364.1578017140273,364.1578017140273,a,0.6684484218712896,10,655,2,364.8584522830788,366.3603319900576,,,,,,,,,,,,,,,,,,,,,,34124,2022-11-07_14h01.39.495,vts_reward_expectancy_bt_OFFLINE,2022.2.4,60.05055691387439,
0,1,0,0,0,0,1,0,circle,hexagon,2,0,2,0,0,1,1,4,,,,,,,,,,,,366.8606497661676,366.8606497661676,366.8606497661676,366.8606497661676,366.8606497661676,366.8606497661676,366.8606497661676,366.8606497661676,366.8606497661676,366.8606497661676,a,0.528676558053121,10,665,2,367.41126708406955,368.91305936616845,,,,,,,,,,,,,,,,,,,,,,34124,2022-11-07_14h01.39.495,vts_reward_expectancy_bt_OFFLINE,2022.2.4,60.05055691387439,
0,0,0,1,0,0,1,0,star,hexagon,2,0,2,0,0,2,2,11,,,,,,,,,,,,369.4137454300653,369.4137454300653,369.4137454300653,369.4137454300653,369.4137454300653,369.4137454300653,369.4137454300653,369.4137454300653,369.4137454300653,369.4137454300653,a,1.2852227739058435,1,666,2,370.7316376240924,372.23321970319375,,,,,,,,,,,,,,,,,,,,,,34124,2022-11-07_14h01.39.495,vts_reward_expectancy_bt_OFFLINE,2022.2.4,60.05055691387439,
0,0,1,0,0,1,0,0,hexagon,circle,2,0,2,0,0,3,3,7,,,,,,,,,,,,372.7339905509725,372.7339905509725,372.7339905509725,372.7339905509725,372.7339905509725,372.7339905509725,372.7339905509725,372.7339905509725,372.7339905509725,372.7339905509725,l,0.9213558491319418,10,676,2,373.68497236119583,375.18672351096757,,,,,,,,,,,,,,,,,,,,,,34124,2022-11-07_14h01.39.495,vts_reward_expectancy_bt_OFFLINE,2022.2.4,60.05055691387439,
0,0,0,1,1,0,0,0,star,triangle,2,0,2,0,0,4,4,9,,,,,,,,,,,,375.6871304900851,375.6871304900851,375.6871304900851,375.6871304900851,375.6871304900851,375.6871304900851,375.6871304900851,375.6871304900851,375.6871304900851,375.6871304900851,a,1.0285748729947954,10,686,2,376.7382282190956,378.2399431380909,,,,,,,,,,,,,,,,,,,,,,34124,2022-11-07_14h01.39.495,vts_reward_expectancy_bt_OFFLINE,2022.2.4,60.05055691387439,
0,1,0,0,0,0,0,1,circle,star,2,0,2,0,0,5,5,5,,,,,,,,,,,,378.7404198329896,378.7404198329896,378.7404198329896,378.7404198329896,378.7404198329896,378.7404198329896,378.7404198329896,378.7404198329896,378.7404198329896,378.7404198329896,l,1.3387470219749957,1,687,2,380.1087248811964,381.6103082681075,,,,,,,,,,,,,,,,,,,,,,34124,2022-11-07_14h01.39.495,vts_reward_expectancy_bt_OFFLINE,2022.2.4,60.05055691387439,
0,0,0,1,0,1,0,0,star ,circle,2,0,2,0,0,6,6,10,,,,,,,,,,,,382.11091695399955,382.11091695399955,382.11091695399955,382.11091695399955,382.11091695399955,382.11091695399955,382.11091695399955,382.11091695399955,382.11091695399955,382.11091695399955,l,0.48849560390226543,10,697,2,382.628075651126,384.1297352241818,,,,,,,,,,,,,,,,,,,,,,34124,2022-11-07_14h01.39.495,vts_reward_expectancy_bt_OFFLINE,2022.2.4,60.05055691387439,
1,0,0,0,0,0,0,1,triangle,star,2,0,2,0,0,7,7,2,,,,,,,,,,,,384.63048265804537,384.63048265804537,384.63048265804537,384.63048265804537,384.63048265804537,384.63048265804537,384.63048265804537,384.63048265804537,384.63048265804537,384.63048265804537,l,0.591472065076232,1,698,2,385.2475820041727,386.74952752911486,,,,,,,,,,,,,,,,,,,,,,34124,2022-11-07_14h01.39.495,vts_reward_expectancy_bt_OFFLINE,2022.2.4,60.05055691387439,
0,0,1,0,1,0,0,0,hexagon,triangle,2,0,2,0,0,8,8,6,,,,,,,,,,,,387.2500020551961,387.2500020551961,387.2500020551961,387.2500020551961,387.2500020551961,387.2500020551961,387.2500020551961,387.2500020551961,387.2500020551961,387.2500020551961,a,0.7946692788973451,10,708,2,388.0674262291286,389.5693104590755,389.5693104590755,,,,,,,,,,,,,,,,,,,,,34124,2022-11-07_14h01.39.495,vts_reward_expectancy_bt_OFFLINE,2022.2.4,60.05055691387439,
1,0,0,0,0,1,0,0,triangle,circle,2,0,2,0,0,9,9,0,,,,,,,,,,,,390.0699155260809,390.0699155260809,390.0699155260809,390.0699155260809,390.0699155260809,390.0699155260809,390.0699155260809,390.0699155260809,390.0699155260809,390.0699155260809,l,0.5848916738759726,10,718,2,390.68699578009546,392.18893723003566,,,,,,,,,,,,,,,,,,,,,,34124,2022-11-07_14h01.39.495,vts_reward_expectancy_bt_OFFLINE,2022.2.4,60.05055691387439,
0,0,1,0,0,0,0,1,hexagon,star,2,0,2,0,0,10,10,8,,,,,,,,,,,,392.6894362650346,392.6894362650346,392.6894362650346,392.6894362650346,392.6894362650346,392.6894362650346,392.6894362650346,392.6894362650346,392.6894362650346,392.6894362650346,a,1.635022158967331,1,719,2,394.3412989540957,395.84265429899096,395.84265429899096,,,,,,,,,,,,,,,,,,,,,34124,2022-11-07_14h01.39.495,vts_reward_expectancy_bt_OFFLINE,2022.2.4,60.05055691387439,
1,0,0,0,0,0,1,0,triangle,hexagon,2,0,2,0,0,11,11,1,,,,,,,,,,,,396.3433357339818,396.3433357339818,396.3433357339818,396.3433357339818,396.3433357339818,396.3433357339818,396.3433357339818,396.3433357339818,396.3433357339818,396.3433357339818,l,0.6120635301340371,10,729,2,396.9772324899677,398.4790016030893,,,,,,,,,,,,,,,,,,,,,,34124,2022-11-07_14h01.39.495,vts_reward_expectancy_bt_OFFLINE,2022.2.4,60.05055691387439,
1,0,0,0,0,0,1,0,triangle,hexagon,2,0,2,0,1,0,12,1,,,,,,,,,,,,398.9795084511861,398.9795084511861,398.9795084511861,398.9795084511861,398.9795084511861,398.9795084511861,398.9795084511861,398.9795084511861,398.9795084511861,398.9795084511861,l,0.4411002539563924,1,730,2,399.4466791690793,400.94822515617125,,,,,,,,,,,,,,,,,,,,,,34124,2022-11-07_14h01.39.495,vts_reward_expectancy_bt_OFFLINE,2022.2.4,60.05055691387439,
1,0,0,0,0,0,0,1,triangle,star,2,0,2,0,1,1,13,2,,,,,,,,,,,,401.4489127290435,401.4489127290435,401.4489127290435,401.4489127290435,401.4489127290435,401.4489127290435,401.4489127290435,401.4489127290435,401.4489127290435,401.4489127290435,a,0.9417087959591299,1,731,2,402.41671853815205,403.9181480209809,,,,,,,,,,,,,,,,,,,,,,34124,2022-11-07_14h01.39.495,vts_reward_expectancy_bt_OFFLINE,2022.2.4,60.05055691387439,
0,1,0,0,0,0,1,0,circle,hexagon,2,0,2,0,1,2,14,4,,,,,,,,,,,,404.4187727160752,404.4187727160752,404.4187727160752,404.4187727160752,404.4187727160752,404.4187727160752,404.4187727160752,404.4187727160752,404.4187727160752,404.4187727160752,a,0.6709257499314845,10,741,2,405.1195102930069,406.62116859899834,,,,,,,,,,,,,,,,,,,,,,34124,2022-11-07_14h01.39.495,vts_reward_expectancy_bt_OFFLINE,2022.2.4,60.05055691387439,
0,0,1,0,0,1,0,0,hexagon,circle,2,0,2,0,1,3,15,7,,,,,,,,,,,,407.1217491000425,407.1217491000425,407.1217491000425,407.1217491000425,407.1217491000425,407.1217491000425,407.1217491000425,407.1217491000425,407.1217491000425,407.1217491000425,l,0.6125361460726708,1,742,2,407.7557388280984,409.25752756604925,,,,,,,,,,,,,,,,,,,,,,34124,2022-11-07_14h01.39.495,vts_reward_expectancy_bt_OFFLINE,2022.2.4,60.05055691387439,
0,0,1,0,0,0,0,1,hexagon,star,2,0,2,0,1,4,16,8,,,,,,,,,,,,409.7581546541769,409.7581546541769,409.7581546541769,409.7581546541769,409.7581546541769,409.7581546541769,409.7581546541769,409.7581546541769,409.7581546541769,409.7581546541769,l,0.4961813350673765,10,752,2,410.2752222029958,411.77714690519497,,,,,,,,,,,,,,,,,,,,,,34124,2022-11-07_14h01.39.495,vts_reward_expectancy_bt_OFFLINE,2022.2.4,60.05055691387439,
0,1,0,0,0,0,0,1,circle,star,2,0,2,0,1,5,17,5,,,,,,,,,,,,412.2774970761966,412.2774970761966,412.2774970761966,412.2774970761966,412.2774970761966,412.2774970761966,412.2774970761966,412.2774970761966,412.2774970761966,412.2774970761966,l,0.7009425240103155,1,753,2,412.9952030500863,414.49671994615346,414.49671994615346,,,,,,,,,,,,,,,,,,,,,34124,2022-11-07_14h01.39.495,vts_reward_expectancy_bt_OFFLINE,2022.2.4,60.05055691387439,
0,0,0,1,1,0,0,0,star,triangle,2,0,2,0,1,6,18,9,,,,,,,,,,,,414.9973147250712,414.9973147250712,414.9973147250712,414.9973147250712,414.9973147250712,414.9973147250712,414.9973147250712,414.9973147250712,414.9973147250712,414.9973147250712,a,0.6792888718191534,10,763,2,415.69766035908833,417.19944653310813,,,,,,,,,,,,,,,,,,,,,,34124,2022-11-07_14h01.39.495,vts_reward_expectancy_bt_OFFLINE,2022.2.4,60.05055691387439,
0,0,1,0,1,0,0,0,hexagon,triangle,2,0,2,0,1,7,19,6,,,,,,,,,,,,417.7002117850352,417.7002117850352,417.7002117850352,417.7002117850352,417.7002117850352,417.7002117850352,417.7002117850352,417.7002117850352,417.7002117850352,417.7002117850352,a,0.6340936941560358,1,764,2,418.3510662741028,419.8524443011265,419.8524443011265,,,,,,,,,,,,,,,,,,,,,34124,2022-11-07_14h01.39.495,vts_reward_expectancy_bt_OFFLINE,2022.2.4,60.05055691387439,
0,0,0,1,0,0,1,0,star,hexagon,2,0,2,0,1,8,20,11,,,,,,,,,,,,420.35317803011276,420.35317803011276,420.35317803011276,420.35317803011276,420.35317803011276,420.35317803011276,420.35317803011276,420.35317803011276,420.35317803011276,420.35317803011276,a,0.8488873168826103,10,774,2,421.22066475404426,422.722426854074,,,,,,,,,,,,,,,,,,,,,,34124,2022-11-07_14h01.39.495,vts_reward_expectancy_bt_OFFLINE,2022.2.4,60.05055691387439,
0,1,0,0,1,0,0,0,circle,triangle,2,0,2,0,1,9,21,3,,,,,,,,,,,,423.2228352741804,423.2228352741804,423.2228352741804,423.2228352741804,423.2228352741804,423.2228352741804,423.2228352741804,423.2228352741804,423.2228352741804,423.2228352741804,a,0.7352673730347306,10,784,2,423.99038071813993,425.49219060107134,,,,,,,,,,,,,,,,,,,,,,34124,2022-11-07_14h01.39.495,vts_reward_expectancy_bt_OFFLINE,2022.2.4,60.05055691387439,
1,0,0,0,0,1,0,0,triangle,circle,2,0,2,0,1,10,22,0,,,,,,,,,,,,425.99269960913807,425.99269960913807,425.99269960913807,425.99269960913807,425.99269960913807,425.99269960913807,425.99269960913807,425.99269960913807,425.99269960913807,425.99269960913807,l,0.4284490861464292,1,785,2,426.44324992597103,427.9447604010347,,,,,,,,,,,,,,,,,,,,,,34124,2022-11-07_14h01.39.495,vts_reward_expectancy_bt_OFFLINE,2022.2.4,60.05055691387439,
0,0,0,1,0,1,0,0,star ,circle,2,0,2,0,1,11,23,10,,,,,,,,,,,,428.4454263250809,428.4454263250809,428.4454263250809,428.4454263250809,428.4454263250809,428.4454263250809,428.4454263250809,428.4454263250809,428.4454263250809,428.4454263250809,l,0.958464119816199,1,786,2,429.42973766918294,430.93150513106957,,,,,,,,,,,,,,,,,,,,,,34124,2022-11-07_14h01.39.495,vts_reward_expectancy_bt_OFFLINE,2022.2.4,60.05055691387439,
0,0,1,0,0,1,0,0,hexagon,circle,2,0,2,0,2,0,24,7,,,,,,,,,,,,431.4319631981198,431.4319631981198,431.4319631981198,431.4319631981198,431.4319631981198,431.4319631981198,431.4319631981198,431.4319631981198,431.4319631981198,431.4319631981198,l,0.6934540858492255,10,796,2,432.149606365012,433.6511697990354,,,,,,,,,,,,,,,,,,,,,,34124,2022-11-07_14h01.39.495,vts_reward_expectancy_bt_OFFLINE,2022.2.4,60.05055691387439,
1,0,0,0,0,1,0,0,triangle,circle,2,0,2,0,2,1,25,0,,,,,,,,,,,,434.1516562651377,434.1516562651377,434.1516562651377,434.1516562651377,434.1516562651377,434.1516562651377,434.1516562651377,434.1516562651377,434.1516562651377,434.1516562651377,a,1.001832026988268,1,797,2,435.18615330499597,436.68789586401545,,,,,,,,,,,,,,,,,,,,,,34124,2022-11-07_14h01.39.495,vts_reward_expectancy_bt_OFFLINE,2022.2.4,60.05055691387439,
0,0,0,1,1,0,0,0,star,triangle,2,0,2,0,2,2,26,9,,,,,,,,,,,,437.1884994681459,437.1884994681459,437.1884994681459,437.1884994681459,437.1884994681459,437.1884994681459,437.1884994681459,437.1884994681459,437.1884994681459,437.1884994681459,a,0.618876846972853,1,798,2,437.8392689700704,439.3407732981723,,,,,,,,,,,,,,,,,,,,,,34124,2022-11-07_14h01.39.495,vts_reward_expectancy_bt_OFFLINE,2022.2.4,60.05055691387439,
0,1,0,0,1,0,0,0,circle,triangle,2,0,2,0,2,3,27,3,,,,,,,,,,,,439.84125196607783,439.84125196607783,439.84125196607783,439.84125196607783,439.84125196607783,439.84125196607783,439.84125196607783,439.84125196607783,439.84125196607783,439.84125196607783,a,0.46358681190758944,10,808,2,440.3252219511196,441.8268483050633,441.8268483050633,,,,,,,,,,,,,,,,,,,,,34124,2022-11-07_14h01.39.495,vts_reward_expectancy_bt_OFFLINE,2022.2.4,60.05055691387439,
1,0,0,0,0,0,0,1,triangle,star,2,0,2,0,2,4,28,2,,,,,,,,,,,,442.32726542511955,442.32726542511955,442.32726542511955,442.32726542511955,442.32726542511955,442.32726542511955,442.32726542511955,442.32726542511955,442.32726542511955,442.32726542511955,l,0.5431394688785076,1,809,2,442.8945890360046,444.3962774691172,,,,,,,,,,,,,,,,,,,,,,34124,2022-11-07_14h01.39.495,vts_reward_expectancy_bt_OFFLINE,2022.2.4,60.05055691387439,
0,0,1,0,1,0,0,0,hexagon,triangle,2,0,2,0,2,5,29,6,,,,,,,,,,,,444.89671926316805,444.89671926316805,444.89671926316805,444.89671926316805,444.89671926316805,444.89671926316805,444.89671926316805,444.89671926316805,444.89671926316805,444.89671926316805,a,0.37029151897877455,1,810,2,445.29733620397747,446.7990987340454,,,,,,,,,,,,,,,,,,,,,,34124,2022-11-07_14h01.39.495,vts_reward_expectancy_bt_OFFLINE,2022.2.4,60.05055691387439,
0,0,1,0,0,0,0,1,hexagon,star,2,0,2,0,2,6,30,8,,,,,,,,,,,,447.2994510100689,447.2994510100689,447.2994510100689,447.2994510100689,447.2994510100689,447.2994510100689,447.2994510100689,447.2994510100689,447.2994510100689,447.2994510100689,l,0.4763609238434583,10,820,2,447.8000864800997,449.3017645701766,,,,,,,,,,,,,,,,,,,,,,34124,2022-11-07_14h01.39.495,vts_reward_expectancy_bt_OFFLINE,2022.2.4,60.05055691387439,
1,0,0,0,0,0,1,0,triangle,hexagon,2,0,2,0,2,7,31,1,,,,,,,,,,,,449.8021695150528,449.8021695150528,449.8021695150528,449.8021695150528,449.8021695150528,449.8021695150528,449.8021695150528,449.8021695150528,449.8021695150528,449.8021695150528,l,0.45968423900194466,1,821,2,450.2866170431953,451.7876761201769,,,,,,,,,,,,,,,,,,,,,,34124,2022-11-07_14h01.39.495,vts_reward_expectancy_bt_OFFLINE,2022.2.4,60.05055691387439,
0,1,0,0,0,0,1,0,circle,hexagon,2,0,2,0,2,8,32,4,,,,,,,,,,,,452.28823496517725,452.28823496517725,452.28823496517725,452.28823496517725,452.28823496517725,452.28823496517725,452.28823496517725,452.28823496517725,452.28823496517725,452.28823496517725,a,0.7647249719593674,1,822,2,453.07261449610814,454.57421940518543,,,,,,,,,,,,,,,,,,,,,,34124,2022-11-07_14h01.39.495,vts_reward_expectancy_bt_OFFLINE,2022.2.4,60.05055691387439,
0,1,0,0,0,0,0,1,circle,star,2,0,2,0,2,9,33,5,,,,,,,,,,,,455.0745672911871,455.0745672911871,455.0745672911871,455.0745672911871,455.0745672911871,455.0745672911871,455.0745672911871,455.0745672911871,455.0745672911871,455.0745672911871,a,0.5330343800596893,10,832,2,455.6253490410745,457.1269160201773,,,,,,,,,,,,,,,,,,,,,,34124,2022-11-07_14h01.39.495,vts_reward_expectancy_bt_OFFLINE,2022.2.4,60.05055691387439,
0,0,0,1,0,0,1,0,star,hexagon,2,0,2,0,2,10,34,11,,,,,,,,,,,,457.62752410396934,457.62752410396934,457.62752410396934,457.62752410396934,457.62752410396934,457.62752410396934,457.62752410396934,457.62752410396934,457.62752410396934,457.62752410396934,l,0.4871972070541233,10,842,2,458.1446349741891,459.64639508118853,,,,,,,,,,,,,,,,,,,,,,34124,2022-11-07_14h01.39.495,vts_reward_expectancy_bt_OFFLINE,2022.2.4,60.05055691387439,
0,0,0,1,0,1,0,0,star ,circle,2,0,2,0,2,11,35,10,,,,,,,,,,,,460.14699637307785,460.14699637307785,460.14699637307785,460.14699637307785,460.14699637307785,460.14699637307785,460.14699637307785,460.14699637307785,460.14699637307785,460.14699637307785,l,0.4001423630397767,10,852,2,460.5643251060974,462.06594239897095,462.06594239897095,,,,,,,,,,,,,,,,,,,,,34124,2022-11-07_14h01.39.495,vts_reward_expectancy_bt_OFFLINE,2022.2.4,60.05055691387439,
1,0,0,0,0,1,0,0,triangle,circle,2,0,2,0,3,0,36,0,,,,,,,,,,,,462.56645361101255,462.56645361101255,462.56645361101255,462.56645361101255,462.56645361101255,462.56645361101255,462.56645361101255,462.56645361101255,462.56645361101255,462.56645361101255,l,0.5105313512030989,1,853,2,463.1002471181564,464.60144844511524,464.60144844511524,,,,,,,,,,,,,,,,,,,,,34124,2022-11-07_14h01.39.495,vts_reward_expectancy_bt_OFFLINE,2022.2.4,60.05055691387439,
0,1,0,0,1,0,0,0,circle,triangle,2,0,2,0,3,1,37,3,,,,,,,,,,,,465.10196773405187,465.10196773405187,465.10196773405187,465.10196773405187,465.10196773405187,465.10196773405187,465.10196773405187,465.10196773405187,465.10196773405187,465.10196773405187,a,1.6099015418440104,10,863,2,466.73761704796925,468.23938189819455,,,,,,,,,,,,,,,,,,,,,,34124,2022-11-07_14h01.39.495,vts_reward_expectancy_bt_OFFLINE,2022.2.4,60.05055691387439,
0,1,0,0,0,0,1,0,circle,hexagon,2,0,2,0,3,2,38,4,,,,,,,,,,,,468.73968568304554,468.73968568304554,468.73968568304554,468.73968568304554,468.73968568304554,468.73968568304554,468.73968568304554,468.73968568304554,468.73968568304554,468.73968568304554,a,0.5029937219806015,10,873,2,469.2737009031698,470.7754748831503,,,,,,,,,,,,,,,,,,,,,,34124,2022-11-07_14h01.39.495,vts_reward_expectancy_bt_OFFLINE,2022.2.4,60.05055691387439,
0,0,1,0,0,0,0,1,hexagon,star,2,0,2,0,3,3,39,8,,,,,,,,,,,,471.2759921310935,471.2759921310935,471.2759921310935,471.2759921310935,471.2759921310935,471.2759921310935,471.2759921310935,471.2759921310935,471.2759921310935,471.2759921310935,l,1.1282014229800552,10,883,2,472.4273240030743,473.9288958001416,,,,,,,,,,,,,,,,,,,,,,34124,2022-11-07_14h01.39.495,vts_reward_expectancy_bt_OFFLINE,2022.2.4,60.05055691387439,
1,0,0,0,0,0,1,0,triangle,hexagon,2,0,2,0,3,4,40,1,,,,,,,,,,,,474.42940229317173,474.42940229317173,474.42940229317173,474.42940229317173,474.42940229317173,474.42940229317173,474.42940229317173,474.42940229317173,474.42940229317173,474.42940229317173,l,1.3381239280570298,10,893,2,475.79762765113264,477.2994515260216,,,,,,,,,,,,,,,,,,,,,,34124,2022-11-07_14h01.39.495,vts_reward_expectancy_bt_OFFLINE,2022.2.4,60.05055691387439,
0,0,1,0,1,0,0,0,hexagon,triangle,2,0,2,0,3,5,41,6,,,,,,,,,,,,477.79994355817325,477.79994355817325,477.79994355817325,477.79994355817325,477.79994355817325,477.79994355817325,477.79994355817325,477.79994355817325,477.79994355817325,477.79994355817325,a,0.556339604081586,10,903,2,478.3839253091719,479.8853312910069,,,,,,,,,,,,,,,,,,,,,,34124,2022-11-07_14h01.39.495,vts_reward_expectancy_bt_OFFLINE,2022.2.4,60.05055691387439,
0,1,0,0,0,0,0,1,circle,star,2,0,2,0,3,6,42,5,,,,,,,,,,,,480.3862007400021,480.3862007400021,480.3862007400021,480.3862007400021,480.3862007400021,480.3862007400021,480.3862007400021,480.3862007400021,480.3862007400021,480.3862007400021,a,0.7026772790122777,10,913,2,481.12025896809064,482.62192136002705,,,,,,,,,,,,,,,,,,,,,,34124,2022-11-07_14h01.39.495,vts_reward_expectancy_bt_OFFLINE,2022.2.4,60.05055691387439,
0,0,0,1,1,0,0,0,star,triangle,2,0,2,0,3,7,43,9,,,,,,,,,,,,483.1222783960402,483.1222783960402,483.1222783960402,483.1222783960402,483.1222783960402,483.1222783960402,483.1222783960402,483.1222783960402,483.1222783960402,483.1222783960402,l,0.3748384469654411,1,914,2,483.52284651016816,485.0247127930634,,,,,,,,,,,,,,,,,,,,,,34124,2022-11-07_14h01.39.495,vts_reward_expectancy_bt_OFFLINE,2022.2.4,60.05055691387439,
1,0,0,0,0,0,0,1,triangle,star,2,0,2,0,3,8,44,2,,,,,,,,,,,,485.52507594111376,485.52507594111376,485.52507594111376,485.52507594111376,485.52507594111376,485.52507594111376,485.52507594111376,485.52507594111376,485.52507594111376,485.52507594111376,l,1.0679563179146498,10,924,2,486.6105911650229,488.1112639911007,488.1112639911007,,,,,,,,,,,,,,,,,,,,,34124,2022-11-07_14h01.39.495,vts_reward_expectancy_bt_OFFLINE,2022.2.4,60.05055691387439,
0,0,0,1,0,0,1,0,star,hexagon,2,0,2,0,3,9,45,11,,,,,,,,,,,,488.6116299601272,488.6116299601272,488.6116299601272,488.6116299601272,488.6116299601272,488.6116299601272,488.6116299601272,488.6116299601272,488.6116299601272,488.6116299601272,a,0.8490695308428258,10,934,2,489.47946153511293,490.9809561180882,,,,,,,,,,,,,,,,,,,,,,34124,2022-11-07_14h01.39.495,vts_reward_expectancy_bt_OFFLINE,2022.2.4,60.05055691387439,
0,0,1,0,0,1,0,0,hexagon,circle,2,0,2,0,3,10,46,7,,,,,,,,,,,,491.4815311091952,491.4815311091952,491.4815311091952,491.4815311091952,491.4815311091952,491.4815311091952,491.4815311091952,491.4815311091952,491.4815311091952,491.4815311091952,l,0.6112289289012551,10,944,2,492.1155190260615,493.6173752530012,,,,,,,,,,,,,,,,,,,,,,34124,2022-11-07_14h01.39.495,vts_reward_expectancy_bt_OFFLINE,2022.2.4,60.05055691387439,
0,0,0,1,0,1,0,0,star ,circle,2,0,2,0,3,11,47,10,,,,,,,,,,,,494.1178010760341,494.1178010760341,494.1178010760341,494.1178010760341,494.1178010760341,494.1178010760341,494.1178010760341,494.1178010760341,494.1178010760341,494.1178010760341,l,0.46126645989716053,10,954,2,494.60162975499406,496.1032613599673,,,,,,,,,,,,,,,,,,,,,,34124,2022-11-07_14h01.39.495,vts_reward_expectancy_bt_OFFLINE,2022.2.4,60.05055691387439,
,,,,,,,,,,,,,,,,,,0,0,0,0,0,0,0,0,,,,,,,,,,,,,,,,,,,,540.6690848399885,,167,U,triangle,0.0017761588096618652,534.6639956131112,536.164123600116,536.164123600116,536.164123600116,539.1674652481452,539.1674652481452,539.1674652481452,539.1674652481452,0,0,None,0,539.1674652481452,540.6690848399885,541.169765625149,,34124,2022-11-07_14h01.39.495,vts_reward_expectancy_bt_OFFLINE,2022.2.4,60.05055691387439,
,,,,,,,,,,,,,,,,,,0,0,0,0,1,0,1,0,,,,,,,,,,,,,,,,,,,,545.3075805760454,,139,S,circle,0.00882687489502132,541.7537007951178,543.1719848890789,543.1719848890789,543.1719848890789,,,,,0,1,f,0,543.8059257250279,,,0.6076901839114726,34124,2022-11-07_14h01.39.495,vts_reward_expectancy_bt_OFFLINE,2022.2.4,60.05055691387439,
,,,,,,,,,,,,,,,,,,0,0,0,0,2,0,2,0,,,,,,,,,,,,,,,,,,,,550.0963156651706,,132,B,star,0.0013615810312330723,546.2921817640308,547.7936222641729,547.7936222641729,547.7936222641729,,,,,1,1,d,0,548.6111796260811,,,0.7781126720365137,34124,2022-11-07_14h01.39.495,vts_reward_expectancy_bt_OFFLINE,2022.2.4,60.05055691387439,
,,,,,,,,,,,,,,,,,,0,0,0,0,3,0,3,0,,,,,,,,,,,,,,,,,,,,555.0849522580393,,125,H,hexagon,0.0013389259111136198,551.0807710911613,552.5822885499801,552.5822885499801,552.5822885499801,,,,,1,0,d,0,553.5834671151824,,,0.9750294780824333,34124,2022-11-07_14h01.39.495,vts_reward_expectancy_bt_OFFLINE,2022.2.4,60.05055691387439,
,,,,,,,,,,,,,,,,,,0,0,0,0,4,0,4,0,,,,,,,,,,,,,,,,,,,,559.6236441161018,,174,D,hexagon,0.0012649181298911572,556.069573864108,557.5711278351955,557.5711278351955,557.5711278351955,,,,,1,0,f,0,558.1216663359664,,,0.5296117977704853,34124,2022-11-07_14h01.39.495,vts_reward_expectancy_bt_OFFLINE,2022.2.4,60.05055691387439,
,,,,,,,,,,,,,,,,,,0,0,0,0,5,0,5,0,,,,,,,,,,,,,,,,,,,,564.0784382240381,,181,Y,star,0.0013268559705466032,560.6080132601783,562.1095297110733,562.1095297110733,562.1095297110733,,,,,1,0,f,0,562.5767130700406,,,0.43518280587159097,34124,2022-11-07_14h01.39.495,vts_reward_expectancy_bt_OFFLINE,2022.2.4,60.05055691387439,
,,,,,,,,,,,,,,,,,,0,0,0,0,6,0,6,0,,,,,,,,,,,,,,,,,,,,568.5834239101969,,160,W,triangle,0.0013851679395884275,565.0628766540904,566.5643984579947,566.5643984579947,566.5643984579947,,,,,1,0,f,0,567.0817233501002,,,0.4927618820220232,34124,2022-11-07_14h01.39.495,vts_reward_expectancy_bt_OFFLINE,2022.2.4,60.05055691387439,
,,,,,,,,,,,,,,,,,,0,0,0,0,7,0,7,0,,,,,,,,,,,,,,,,,,,,573.8223440800793,,146,F,circle,0.0012724269181489944,569.5677422040608,571.0693169001024,571.0693169001024,571.0693169001024,,,,,1,0,d,0,572.3208876410499,,,1.2191614850889891,34124,2022-11-07_14h01.39.495,vts_reward_expectancy_bt_OFFLINE,2022.2.4,60.05055691387439,
,,,,,,,,,,,,,,,,,,0,0,0,0,8,0,8,0,,,,,,,,,,,,,,,,,,,,578.5941299691331,,167,U,triangle,0.001371914055198431,574.806902176002,576.3085308009759,576.3085308009759,576.3085308009759,,,,,1,0,f,0,577.0924904730637,,,0.751906304853037,34124,2022-11-07_14h01.39.495,vts_reward_expectancy_bt_OFFLINE,2022.2.4,60.05055691387439,
,,,,,,,,,,,,,,,,,,0,0,0,0,9,0,9,0,,,,,,,,,,,,,,,,,,,,583.182692815084,,139,S,hexagon,0.0012194619048386812,579.5786679850426,581.0803304561414,581.0803304561414,581.0803304561414,,,,,1,0,d,0,581.6810224009678,,,0.5685580421704799,34124,2022-11-07_14h01.39.495,vts_reward_expectancy_bt_OFFLINE,2022.2.4,60.05055691387439,
