LTriangleOpac,LCircleOpac,LHexagonOpac,LStarOpac,RTriangleOpac,RCircleOpac,RHexagonOpac,RStarOpac,LShape_ID,RShape_ID,training_blocks.thisRepN,training_blocks.thisTrialN,training_blocks.thisN,training_blocks.thisIndex,training.thisRepN,training.thisTrialN,training.thisN,training.thisIndex,task1_prac_redo.thisRepN,task1_prac_redo.thisTrialN,task1_prac_redo.thisN,task1_prac_redo.thisIndex,key_resp.started,key_resp.keys,key_resp.rt,left_circle.started,right_circle.started,left_triangle.started,right_triangle.started,left_star.started,right_star.started,left_hexagon.started,right_hexagon.started,training_fix.started,training_resp.started,training_resp.keys,training_resp.rt,points_trial,points_cumul,trainBlock,training_feedback_txt.started,fix.started,training_feedback_txt.stopped,participant,date,expName,psychopyVersion,frameRate,
,,,,,,,,,,,,,,,,,,,,,,512.3179646689996,space,33.56850154499989,,,,,,,,,,,,,,,,,,,37688,2022-10-25_10h15.41.314,vts_reward_expectancy_bt_OFFLINE,2022.2.4,59.97729967155138,
0,0,0,1,0,1,0,0,star ,circle,0,0,0,0,0,0,0,10,,,,,,,,582.0777467179996,582.0777467179996,582.0777467179996,582.0777467179996,582.0777467179996,582.0777467179996,582.0777467179996,582.0777467179996,582.0777467179996,582.0777467179996,a,3.6150021659996128,0,0,0,585.7155660469998,587.2170639229998,,37688,2022-10-25_10h15.41.314,vts_reward_expectancy_bt_OFFLINE,2022.2.4,59.97729967155138,
0,0,1,0,0,1,0,0,hexagon,circle,0,0,0,0,0,1,1,7,,,,,,,,587.7175459689997,587.7175459689997,587.7175459689997,587.7175459689997,587.7175459689997,587.7175459689997,587.7175459689997,587.7175459689997,587.7175459689997,587.7175459689997,l,1.3852399289999084,1,1,0,589.1189178969998,590.6207821039998,590.6207821039998,37688,2022-10-25_10h15.41.314,vts_reward_expectancy_bt_OFFLINE,2022.2.4,59.97729967155138,
0,1,0,0,0,0,1,0,circle,hexagon,0,0,0,0,0,2,2,4,,,,,,,,591.1213787569995,591.1213787569995,591.1213787569995,591.1213787569995,591.1213787569995,591.1213787569995,591.1213787569995,591.1213787569995,591.1213787569995,591.1213787569995,a,1.275816986000791,10,11,0,592.4226487219994,593.9246083779999,,37688,2022-10-25_10h15.41.314,vts_reward_expectancy_bt_OFFLINE,2022.2.4,59.97729967155138,
0,0,1,0,0,0,0,1,hexagon,star,0,0,0,0,0,3,3,8,,,,,,,,594.4249743349992,594.4249743349992,594.4249743349992,594.4249743349992,594.4249743349992,594.4249743349992,594.4249743349992,594.4249743349992,594.4249743349992,594.4249743349992,a,3.0542433050004547,1,12,0,597.5118776119998,599.0132262549996,,37688,2022-10-25_10h15.41.314,vts_reward_expectancy_bt_OFFLINE,2022.2.4,59.97729967155138,
1,0,0,0,0,1,0,0,triangle,circle,0,0,0,0,0,4,4,0,,,,,,,,599.5138045469994,599.5138045469994,599.5138045469994,599.5138045469994,599.5138045469994,599.5138045469994,599.5138045469994,599.5138045469994,599.5138045469994,599.5138045469994,l,1.6429320839997672,1,13,0,601.182306232,602.6840556679999,,37688,2022-10-25_10h15.41.314,vts_reward_expectancy_bt_OFFLINE,2022.2.4,59.97729967155138,
1,0,0,0,0,0,1,0,triangle,hexagon,0,0,0,0,0,5,5,1,,,,,,,,603.1846948099992,603.1846948099992,603.1846948099992,603.1846948099992,603.1846948099992,603.1846948099992,603.1846948099992,603.1846948099992,603.1846948099992,603.1846948099992,l,1.2854523890000564,1,14,0,604.5026757689993,606.0045971479994,,37688,2022-10-25_10h15.41.314,vts_reward_expectancy_bt_OFFLINE,2022.2.4,59.97729967155138,
0,0,0,1,0,0,1,0,star,hexagon,0,0,0,0,0,6,6,11,,,,,,,,606.5051320189996,606.5051320189996,606.5051320189996,606.5051320189996,606.5051320189996,606.5051320189996,606.5051320189996,606.5051320189996,606.5051320189996,606.5051320189996,a,0.6039583010006027,10,24,0,607.1390528439988,608.6406463839994,,37688,2022-10-25_10h15.41.314,vts_reward_expectancy_bt_OFFLINE,2022.2.4,59.97729967155138,
0,0,0,1,1,0,0,0,star,triangle,0,0,0,0,0,7,7,9,,,,,,,,609.1412201740004,609.1412201740004,609.1412201740004,609.1412201740004,609.1412201740004,609.1412201740004,609.1412201740004,609.1412201740004,609.1412201740004,609.1412201740004,a,3.153938925001057,1,25,0,612.3277989139988,613.8295599489993,,37688,2022-10-25_10h15.41.314,vts_reward_expectancy_bt_OFFLINE,2022.2.4,59.97729967155138,
0,0,1,0,1,0,0,0,hexagon,triangle,0,0,0,0,0,8,8,6,,,,,,,,614.3304397569991,614.3304397569991,614.3304397569991,614.3304397569991,614.3304397569991,614.3304397569991,614.3304397569991,614.3304397569991,614.3304397569991,614.3304397569991,l,1.4520125140006712,10,35,0,615.8152080969994,617.3169199740005,,37688,2022-10-25_10h15.41.314,vts_reward_expectancy_bt_OFFLINE,2022.2.4,59.97729967155138,
1,0,0,0,0,0,0,1,triangle,star,0,0,0,0,0,9,9,2,,,,,,,,617.8176245390005,617.8176245390005,617.8176245390005,617.8176245390005,617.8176245390005,617.8176245390005,617.8176245390005,617.8176245390005,617.8176245390005,617.8176245390005,a,1.804208073999689,10,45,0,619.652933067,621.1545172690003,,37688,2022-10-25_10h15.41.314,vts_reward_expectancy_bt_OFFLINE,2022.2.4,59.97729967155138,
0,1,0,0,0,0,0,1,circle,star,0,0,0,0,0,10,10,5,,,,,,,,621.6551805340005,621.6551805340005,621.6551805340005,621.6551805340005,621.6551805340005,621.6551805340005,621.6551805340005,621.6551805340005,621.6551805340005,621.6551805340005,a,1.1990325600017968,10,55,0,622.8729913879997,624.3746594579989,,37688,2022-10-25_10h15.41.314,vts_reward_expectancy_bt_OFFLINE,2022.2.4,59.97729967155138,
0,1,0,0,1,0,0,0,circle,triangle,0,0,0,0,0,11,11,3,,,,,,,,624.8752298389991,624.8752298389991,624.8752298389991,624.8752298389991,624.8752298389991,624.8752298389991,624.8752298389991,624.8752298389991,624.8752298389991,624.8752298389991,l,2.0269304509984067,10,65,0,626.9275318669988,628.4292877480002,,37688,2022-10-25_10h15.41.314,vts_reward_expectancy_bt_OFFLINE,2022.2.4,59.97729967155138,
0,0,1,0,1,0,0,0,hexagon,triangle,0,0,0,0,1,0,12,6,,,,,,,,628.9297183250001,628.9297183250001,628.9297183250001,628.9297183250001,628.9297183250001,628.9297183250001,628.9297183250001,628.9297183250001,628.9297183250001,628.9297183250001,l,1.3870141340012196,1,66,0,630.348089088,631.8494856149991,,37688,2022-10-25_10h15.41.314,vts_reward_expectancy_bt_OFFLINE,2022.2.4,59.97729967155138,
0,0,0,1,0,1,0,0,star ,circle,0,0,0,0,1,1,13,10,,,,,,,,632.3502050829993,632.3502050829993,632.3502050829993,632.3502050829993,632.3502050829993,632.3502050829993,632.3502050829993,632.3502050829993,632.3502050829993,632.3502050829993,l,1.2545428020002873,1,67,0,633.6347000400001,635.136311323,,37688,2022-10-25_10h15.41.314,vts_reward_expectancy_bt_OFFLINE,2022.2.4,59.97729967155138,
0,1,0,0,0,0,1,0,circle,hexagon,0,0,0,0,1,2,14,4,,,,,,,,635.6368221969988,635.6368221969988,635.6368221969988,635.6368221969988,635.6368221969988,635.6368221969988,635.6368221969988,635.6368221969988,635.6368221969988,635.6368221969988,a,2.520922518999214,1,68,0,638.1897738219996,639.6917112179999,,37688,2022-10-25_10h15.41.314,vts_reward_expectancy_bt_OFFLINE,2022.2.4,59.97729967155138,
1,0,0,0,0,0,1,0,triangle,hexagon,0,0,0,0,1,3,15,1,,,,,,,,640.1921134669992,640.1921134669992,640.1921134669992,640.1921134669992,640.1921134669992,640.1921134669992,640.1921134669992,640.1921134669992,640.1921134669992,640.1921134669992,a,1.1664700380006252,1,69,0,641.3768367949997,642.8784252149999,,37688,2022-10-25_10h15.41.314,vts_reward_expectancy_bt_OFFLINE,2022.2.4,59.97729967155138,
0,1,0,0,0,0,0,1,circle,star,0,0,0,0,1,4,16,5,,,,,,,,643.3790507840004,643.3790507840004,643.3790507840004,643.3790507840004,643.3790507840004,643.3790507840004,643.3790507840004,643.3790507840004,643.3790507840004,643.3790507840004,l,1.7304086190015369,1,70,0,645.1309322670004,646.6326077550002,,37688,2022-10-25_10h15.41.314,vts_reward_expectancy_bt_OFFLINE,2022.2.4,59.97729967155138,
0,0,1,0,0,0,0,1,hexagon,star,0,0,0,0,1,5,17,8,,,,,,,,647.1333190120004,647.1333190120004,647.1333190120004,647.1333190120004,647.1333190120004,647.1333190120004,647.1333190120004,647.1333190120004,647.1333190120004,647.1333190120004,a,1.5522943639989535,1,71,0,648.7183973539995,650.2198273679987,,37688,2022-10-25_10h15.41.314,vts_reward_expectancy_bt_OFFLINE,2022.2.4,59.97729967155138,
0,0,1,0,0,1,0,0,hexagon,circle,0,0,0,0,1,6,18,7,,,,,,,,650.7205002249993,650.7205002249993,650.7205002249993,650.7205002249993,650.7205002249993,650.7205002249993,650.7205002249993,650.7205002249993,650.7205002249993,650.7205002249993,l,0.6123177810004563,1,72,0,651.3544738069995,652.8560739919994,,37688,2022-10-25_10h15.41.314,vts_reward_expectancy_bt_OFFLINE,2022.2.4,59.97729967155138,
0,0,0,1,0,0,1,0,star,hexagon,0,0,0,0,1,7,19,11,,,,,,,,653.3564984730001,653.3564984730001,653.3564984730001,653.3564984730001,653.3564984730001,653.3564984730001,653.3564984730001,653.3564984730001,653.3564984730001,653.3564984730001,l,1.8097134210001968,10,82,0,655.1920398900002,656.6936742529997,,37688,2022-10-25_10h15.41.314,vts_reward_expectancy_bt_OFFLINE,2022.2.4,59.97729967155138,
1,0,0,0,0,0,0,1,triangle,star,0,0,0,0,1,8,20,2,,,,,,,,657.1942000580002,657.1942000580002,657.1942000580002,657.1942000580002,657.1942000580002,657.1942000580002,657.1942000580002,657.1942000580002,657.1942000580002,657.1942000580002,l,1.771266163999826,1,83,0,658.9961915469994,660.4980055449996,,37688,2022-10-25_10h15.41.314,vts_reward_expectancy_bt_OFFLINE,2022.2.4,59.97729967155138,
0,0,0,1,1,0,0,0,star,triangle,0,0,0,0,1,9,21,9,,,,,,,,660.9983126070001,660.9983126070001,660.9983126070001,660.9983126070001,660.9983126070001,660.9983126070001,660.9983126070001,660.9983126070001,660.9983126070001,660.9983126070001,a,1.319228219001161,1,84,0,662.3499907219993,663.8517273729994,,37688,2022-10-25_10h15.41.314,vts_reward_expectancy_bt_OFFLINE,2022.2.4,59.97729967155138,
1,0,0,0,0,1,0,0,triangle,circle,0,0,0,0,1,10,22,0,,,,,,,,664.3522062119991,664.3522062119991,664.3522062119991,664.3522062119991,664.3522062119991,664.3522062119991,664.3522062119991,664.3522062119991,664.3522062119991,664.3522062119991,l,1.0366231780008093,10,94,0,665.4200780470001,666.9219136369993,,37688,2022-10-25_10h15.41.314,vts_reward_expectancy_bt_OFFLINE,2022.2.4,59.97729967155138,
0,1,0,0,1,0,0,0,circle,triangle,0,0,0,0,1,11,23,3,,,,,,,,667.4222589299989,667.4222589299989,667.4222589299989,667.4222589299989,667.4222589299989,667.4222589299989,667.4222589299989,667.4222589299989,667.4222589299989,667.4222589299989,a,1.5590455410001596,10,104,0,669.0073219329988,670.5091786640005,,37688,2022-10-25_10h15.41.314,vts_reward_expectancy_bt_OFFLINE,2022.2.4,59.97729967155138,
0,0,0,1,0,1,0,0,star ,circle,0,0,0,0,2,0,24,10,,,,,,,,671.009517131999,671.009517131999,671.009517131999,671.009517131999,671.009517131999,671.009517131999,671.009517131999,671.009517131999,671.009517131999,671.009517131999,a,1.3400224719989637,10,114,0,672.3778379340001,673.879297563999,,37688,2022-10-25_10h15.41.314,vts_reward_expectancy_bt_OFFLINE,2022.2.4,59.97729967155138,
0,1,0,0,0,0,1,0,circle,hexagon,0,0,0,0,2,1,25,4,,,,,,,,674.3798172879997,674.3798172879997,674.3798172879997,674.3798172879997,674.3798172879997,674.3798172879997,674.3798172879997,674.3798172879997,674.3798172879997,674.3798172879997,l,0.6970219830000133,10,124,0,675.0971933839992,676.5988686399996,,37688,2022-10-25_10h15.41.314,vts_reward_expectancy_bt_OFFLINE,2022.2.4,59.97729967155138,
0,0,0,1,0,0,1,0,star,hexagon,0,0,0,0,2,2,26,11,,,,,,,,677.0994208499997,677.0994208499997,677.0994208499997,677.0994208499997,677.0994208499997,677.0994208499997,677.0994208499997,677.0994208499997,677.0994208499997,677.0994208499997,l,1.5858014180012105,1,125,0,678.7179286930004,680.2196400640005,,37688,2022-10-25_10h15.41.314,vts_reward_expectancy_bt_OFFLINE,2022.2.4,59.97729967155138,
0,0,1,0,1,0,0,0,hexagon,triangle,0,0,0,0,2,3,27,6,,,,,,,,680.7201494279998,680.7201494279998,680.7201494279998,680.7201494279998,680.7201494279998,680.7201494279998,680.7201494279998,680.7201494279998,680.7201494279998,680.7201494279998,a,0.988570098999844,1,126,0,681.7379881149991,683.2395437020004,,37688,2022-10-25_10h15.41.314,vts_reward_expectancy_bt_OFFLINE,2022.2.4,59.97729967155138,
0,0,0,1,1,0,0,0,star,triangle,0,0,0,0,2,4,28,9,,,,,,,,683.7402916219999,683.7402916219999,683.7402916219999,683.7402916219999,683.7402916219999,683.7402916219999,683.7402916219999,683.7402916219999,683.7402916219999,683.7402916219999,l,2.042379552998682,1,127,0,685.809073032,687.3106719730004,,37688,2022-10-25_10h15.41.314,vts_reward_expectancy_bt_OFFLINE,2022.2.4,59.97729967155138,
1,0,0,0,0,0,0,1,triangle,star,0,0,0,0,2,5,29,2,,,,,,,,687.8112499540002,687.8112499540002,687.8112499540002,687.8112499540002,687.8112499540002,687.8112499540002,687.8112499540002,687.8112499540002,687.8112499540002,687.8112499540002,l,0.8829354770005011,10,137,0,688.712120324999,690.2141891270003,,37688,2022-10-25_10h15.41.314,vts_reward_expectancy_bt_OFFLINE,2022.2.4,59.97729967155138,
0,0,1,0,0,1,0,0,hexagon,circle,0,0,0,0,2,6,30,7,,,,,,,,690.7144849699998,690.7144849699998,690.7144849699998,690.7144849699998,690.7144849699998,690.7144849699998,690.7144849699998,690.7144849699998,690.7144849699998,690.7144849699998,a,1.3473257730001933,1,138,0,692.0827580679997,693.5843608180003,,37688,2022-10-25_10h15.41.314,vts_reward_expectancy_bt_OFFLINE,2022.2.4,59.97729967155138,
0,1,0,0,1,0,0,0,circle,triangle,0,0,0,0,2,7,31,3,,,,,,,,694.0847636239996,694.0847636239996,694.0847636239996,694.0847636239996,694.0847636239996,694.0847636239996,694.0847636239996,694.0847636239996,694.0847636239996,694.0847636239996,l,0.6184721530007664,1,139,0,694.7358692469988,696.2374268879994,,37688,2022-10-25_10h15.41.314,vts_reward_expectancy_bt_OFFLINE,2022.2.4,59.97729967155138,
0,1,0,0,0,0,0,1,circle,star,0,0,0,0,2,8,32,5,,,,,,,,696.7377753500004,696.7377753500004,696.7377753500004,696.7377753500004,696.7377753500004,696.7377753500004,696.7377753500004,696.7377753500004,696.7377753500004,696.7377753500004,a,1.9639737540001079,1,140,0,698.7235221219998,700.2251183629996,,37688,2022-10-25_10h15.41.314,vts_reward_expectancy_bt_OFFLINE,2022.2.4,59.97729967155138,
1,0,0,0,0,1,0,0,triangle,circle,0,0,0,0,2,9,33,0,,,,,,,,700.7257161839989,700.7257161839989,700.7257161839989,700.7257161839989,700.7257161839989,700.7257161839989,700.7257161839989,700.7257161839989,700.7257161839989,700.7257161839989,l,1.0871199519988295,1,141,0,701.8436858669993,703.3451097489997,,37688,2022-10-25_10h15.41.314,vts_reward_expectancy_bt_OFFLINE,2022.2.4,59.97729967155138,
1,0,0,0,0,0,1,0,triangle,hexagon,0,0,0,0,2,10,34,1,,,,,,,,703.8456736119988,703.8456736119988,703.8456736119988,703.8456736119988,703.8456736119988,703.8456736119988,703.8456736119988,703.8456736119988,703.8456736119988,703.8456736119988,l,4.231964856999184,10,151,0,708.1003870799996,709.6019460240004,,37688,2022-10-25_10h15.41.314,vts_reward_expectancy_bt_OFFLINE,2022.2.4,59.97729967155138,
0,0,1,0,0,0,0,1,hexagon,star,0,0,0,0,2,11,35,8,,,,,,,,710.102360154,710.102360154,710.102360154,710.102360154,710.102360154,710.102360154,710.102360154,710.102360154,710.102360154,710.102360154,l,1.2708068740012095,10,161,0,711.4038324189987,712.9055662739993,,37688,2022-10-25_10h15.41.314,vts_reward_expectancy_bt_OFFLINE,2022.2.4,59.97729967155138,
0,0,0,1,1,0,0,0,star,triangle,0,0,0,0,3,0,36,9,,,,,,,,713.4062904879993,713.4062904879993,713.4062904879993,713.4062904879993,713.4062904879993,713.4062904879993,713.4062904879993,713.4062904879993,713.4062904879993,713.4062904879993,a,2.0867515900008584,10,171,0,715.525408214,717.0268209490005,,37688,2022-10-25_10h15.41.314,vts_reward_expectancy_bt_OFFLINE,2022.2.4,59.97729967155138,
0,1,0,0,1,0,0,0,circle,triangle,0,0,0,0,3,1,37,3,,,,,,,,717.5274021179994,717.5274021179994,717.5274021179994,717.5274021179994,717.5274021179994,717.5274021179994,717.5274021179994,717.5274021179994,717.5274021179994,717.5274021179994,l,1.12539095899956,1,172,0,718.6786868069994,720.180229829999,,37688,2022-10-25_10h15.41.314,vts_reward_expectancy_bt_OFFLINE,2022.2.4,59.97729967155138,
1,0,0,0,0,1,0,0,triangle,circle,0,0,0,0,3,2,38,0,,,,,,,,720.6806304399997,720.6806304399997,720.6806304399997,720.6806304399997,720.6806304399997,720.6806304399997,720.6806304399997,720.6806304399997,720.6806304399997,720.6806304399997,l,1.4442067990003125,1,173,0,722.1489991849994,723.6508538969993,,37688,2022-10-25_10h15.41.314,vts_reward_expectancy_bt_OFFLINE,2022.2.4,59.97729967155138,
1,0,0,0,0,0,0,1,triangle,star,0,0,0,0,3,3,39,2,,,,,,,,724.1514762440002,724.1514762440002,724.1514762440002,724.1514762440002,724.1514762440002,724.1514762440002,724.1514762440002,724.1514762440002,724.1514762440002,724.1514762440002,a,1.0620014440009982,10,183,0,725.2357789670004,726.7376401820002,,37688,2022-10-25_10h15.41.314,vts_reward_expectancy_bt_OFFLINE,2022.2.4,59.97729967155138,
0,0,0,1,0,0,1,0,star,hexagon,0,0,0,0,3,4,40,11,,,,,,,,727.2381939240004,727.2381939240004,727.2381939240004,727.2381939240004,727.2381939240004,727.2381939240004,727.2381939240004,727.2381939240004,727.2381939240004,727.2381939240004,a,2.447699742000623,1,184,0,729.7078588189997,731.2092207149999,,37688,2022-10-25_10h15.41.314,vts_reward_expectancy_bt_OFFLINE,2022.2.4,59.97729967155138,
0,0,1,0,1,0,0,0,hexagon,triangle,0,0,0,0,3,5,41,6,,,,,,,,731.7099647769992,731.7099647769992,731.7099647769992,731.7099647769992,731.7099647769992,731.7099647769992,731.7099647769992,731.7099647769992,731.7099647769992,731.7099647769992,a,0.9923475730010978,10,194,0,732.7275864929998,734.2291913779991,,37688,2022-10-25_10h15.41.314,vts_reward_expectancy_bt_OFFLINE,2022.2.4,59.97729967155138,
0,0,0,1,0,1,0,0,star ,circle,0,0,0,0,3,6,42,10,,,,,,,,734.7297543589993,734.7297543589993,734.7297543589993,734.7297543589993,734.7297543589993,734.7297543589993,734.7297543589993,734.7297543589993,734.7297543589993,734.7297543589993,l,0.771406936000858,1,195,0,735.5306040340001,737.0324390349997,,37688,2022-10-25_10h15.41.314,vts_reward_expectancy_bt_OFFLINE,2022.2.4,59.97729967155138,
0,1,0,0,0,0,0,1,circle,star,0,0,0,0,3,7,43,5,,,,,,,,737.5329106049994,737.5329106049994,737.5329106049994,737.5329106049994,737.5329106049994,737.5329106049994,737.5329106049994,737.5329106049994,737.5329106049994,737.5329106049994,l,0.4249862899996515,10,205,0,737.9835101230001,739.4851987339989,,37688,2022-10-25_10h15.41.314,vts_reward_expectancy_bt_OFFLINE,2022.2.4,59.97729967155138,
1,0,0,0,0,0,1,0,triangle,hexagon,0,0,0,0,3,8,44,1,,,,,,,,739.9857551599998,739.9857551599998,739.9857551599998,739.9857551599998,739.9857551599998,739.9857551599998,739.9857551599998,739.9857551599998,739.9857551599998,739.9857551599998,a,1.155025554000531,1,206,0,741.1704544490003,742.6717402499999,,37688,2022-10-25_10h15.41.314,vts_reward_expectancy_bt_OFFLINE,2022.2.4,59.97729967155138,
0,1,0,0,0,0,1,0,circle,hexagon,0,0,0,0,3,9,45,4,,,,,,,,743.1724170029993,743.1724170029993,743.1724170029993,743.1724170029993,743.1724170029993,743.1724170029993,743.1724170029993,743.1724170029993,743.1724170029993,743.1724170029993,l,2.5292683579991717,1,207,0,745.7252813470004,747.2268523989987,,37688,2022-10-25_10h15.41.314,vts_reward_expectancy_bt_OFFLINE,2022.2.4,59.97729967155138,
0,0,1,0,0,0,0,1,hexagon,star,0,0,0,0,3,10,46,8,,,,,,,,747.7275662119991,747.7275662119991,747.7275662119991,747.7275662119991,747.7275662119991,747.7275662119991,747.7275662119991,747.7275662119991,747.7275662119991,747.7275662119991,l,1.3580981450013496,10,217,0,749.1124883329994,750.6139613769992,,37688,2022-10-25_10h15.41.314,vts_reward_expectancy_bt_OFFLINE,2022.2.4,59.97729967155138,
0,0,1,0,0,1,0,0,hexagon,circle,0,0,0,0,3,11,47,7,,,,,,,,751.1146413789993,751.1146413789993,751.1146413789993,751.1146413789993,751.1146413789993,751.1146413789993,751.1146413789993,751.1146413789993,751.1146413789993,751.1146413789993,l,1.9786295869998867,1,218,0,753.116762009,754.6184670029998,,37688,2022-10-25_10h15.41.314,vts_reward_expectancy_bt_OFFLINE,2022.2.4,59.97729967155138,
1,0,0,0,0,0,1,0,triangle,hexagon,1,0,1,0,0,0,0,1,,,,,,,,768.7672243099987,768.7672243099987,768.7672243099987,768.7672243099987,768.7672243099987,768.7672243099987,768.7672243099987,768.7672243099987,768.7672243099987,768.7672243099987,a,3.0216512759998295,1,219,1,771.8207192689988,773.3220114799988,,37688,2022-10-25_10h15.41.314,vts_reward_expectancy_bt_OFFLINE,2022.2.4,59.97729967155138,
0,1,0,0,1,0,0,0,circle,triangle,1,0,1,0,0,1,1,3,,,,,,,,773.8229032130002,773.8229032130002,773.8229032130002,773.8229032130002,773.8229032130002,773.8229032130002,773.8229032130002,773.8229032130002,773.8229032130002,773.8229032130002,a,2.0299756229997,10,229,1,775.8751542379996,777.3769998939988,,37688,2022-10-25_10h15.41.314,vts_reward_expectancy_bt_OFFLINE,2022.2.4,59.97729967155138,
1,0,0,0,0,1,0,0,triangle,circle,1,0,1,0,0,2,2,0,,,,,,,,777.8772818369998,777.8772818369998,777.8772818369998,777.8772818369998,777.8772818369998,777.8772818369998,777.8772818369998,777.8772818369998,777.8772818369998,777.8772818369998,a,1.7198934440002631,10,239,1,779.6291893380003,781.1309843620002,,37688,2022-10-25_10h15.41.314,vts_reward_expectancy_bt_OFFLINE,2022.2.4,59.97729967155138,
0,0,0,1,0,0,1,0,star,hexagon,1,0,1,0,0,3,3,11,,,,,,,,781.6316501170004,781.6316501170004,781.6316501170004,781.6316501170004,781.6316501170004,781.6316501170004,781.6316501170004,781.6316501170004,781.6316501170004,781.6316501170004,l,1.4779245160007122,10,249,1,783.1333299919988,784.6349870350004,,37688,2022-10-25_10h15.41.314,vts_reward_expectancy_bt_OFFLINE,2022.2.4,59.97729967155138,
0,0,0,1,1,0,0,0,star,triangle,1,0,1,0,0,4,4,9,,,,,,,,785.1354136099999,785.1354136099999,785.1354136099999,785.1354136099999,785.1354136099999,785.1354136099999,785.1354136099999,785.1354136099999,785.1354136099999,785.1354136099999,l,2.478037480999774,1,250,1,787.6383263339994,789.1395900299995,,37688,2022-10-25_10h15.41.314,vts_reward_expectancy_bt_OFFLINE,2022.2.4,59.97729967155138,
0,0,1,0,0,0,0,1,hexagon,star,1,0,1,0,0,5,5,8,,,,,,,,789.6402470979992,789.6402470979992,789.6402470979992,789.6402470979992,789.6402470979992,789.6402470979992,789.6402470979992,789.6402470979992,789.6402470979992,789.6402470979992,a,1.3415975909992994,1,251,1,791.0085672639998,792.5103653139995,,37688,2022-10-25_10h15.41.314,vts_reward_expectancy_bt_OFFLINE,2022.2.4,59.97729967155138,
0,1,0,0,0,0,0,1,circle,star,1,0,1,0,0,6,6,5,,,,,,,,793.0106401739995,793.0106401739995,793.0106401739995,793.0106401739995,793.0106401739995,793.0106401739995,793.0106401739995,793.0106401739995,793.0106401739995,793.0106401739995,a,1.4689581370002998,1,252,1,794.5124103919989,796.013969959,,37688,2022-10-25_10h15.41.314,vts_reward_expectancy_bt_OFFLINE,2022.2.4,59.97729967155138,
0,0,0,1,0,1,0,0,star ,circle,1,0,1,0,0,7,7,10,,,,,,,,796.5145367120003,796.5145367120003,796.5145367120003,796.5145367120003,796.5145367120003,796.5145367120003,796.5145367120003,796.5145367120003,796.5145367120003,796.5145367120003,a,0.9161751640003786,1,253,1,797.4491307569988,798.950596626999,,37688,2022-10-25_10h15.41.314,vts_reward_expectancy_bt_OFFLINE,2022.2.4,59.97729967155138,
0,0,1,0,0,1,0,0,hexagon,circle,1,0,1,0,0,8,8,7,,,,,,,,799.4510661839995,799.4510661839995,799.4510661839995,799.4510661839995,799.4510661839995,799.4510661839995,799.4510661839995,799.4510661839995,799.4510661839995,799.4510661839995,a,1.8107722310014651,10,263,1,801.2864351199987,802.7882876980002,,37688,2022-10-25_10h15.41.314,vts_reward_expectancy_bt_OFFLINE,2022.2.4,59.97729967155138,
0,1,0,0,0,0,1,0,circle,hexagon,1,0,1,0,0,9,9,4,,,,,,,,803.2886546739992,803.2886546739992,803.2886546739992,803.2886546739992,803.2886546739992,803.2886546739992,803.2886546739992,803.2886546739992,803.2886546739992,803.2886546739992,l,1.7090181450003001,10,273,1,805.0241218930005,806.5255009720004,,37688,2022-10-25_10h15.41.314,vts_reward_expectancy_bt_OFFLINE,2022.2.4,59.97729967155138,
1,0,0,0,0,0,0,1,triangle,star,1,0,1,0,0,10,10,2,,,,,,,,807.0262378549996,807.0262378549996,807.0262378549996,807.0262378549996,807.0262378549996,807.0262378549996,807.0262378549996,807.0262378549996,807.0262378549996,807.0262378549996,l,0.7076163490000908,1,274,1,807.7604855219997,809.2620822789995,809.2620822789995,37688,2022-10-25_10h15.41.314,vts_reward_expectancy_bt_OFFLINE,2022.2.4,59.97729967155138,
0,0,1,0,1,0,0,0,hexagon,triangle,1,0,1,0,0,11,11,6,,,,,,,,809.7625271220004,809.7625271220004,809.7625271220004,809.7625271220004,809.7625271220004,809.7625271220004,809.7625271220004,809.7625271220004,809.7625271220004,809.7625271220004,a,2.0682723069985514,10,284,1,811.8483257440002,813.3499133490004,813.3499133490004,37688,2022-10-25_10h15.41.314,vts_reward_expectancy_bt_OFFLINE,2022.2.4,59.97729967155138,
1,0,0,0,0,0,1,0,triangle,hexagon,1,0,1,0,1,0,12,1,,,,,,,,813.8502997229989,813.8502997229989,813.8502997229989,813.8502997229989,813.8502997229989,813.8502997229989,813.8502997229989,813.8502997229989,813.8502997229989,813.8502997229989,a,2.2525654769997345,1,285,1,816.1197049729999,817.621316273,817.621316273,37688,2022-10-25_10h15.41.314,vts_reward_expectancy_bt_OFFLINE,2022.2.4,59.97729967155138,
1,0,0,0,0,0,0,1,triangle,star,1,0,1,0,1,1,13,2,,,,,,,,818.121650142999,818.121650142999,818.121650142999,818.121650142999,818.121650142999,818.121650142999,818.121650142999,818.121650142999,818.121650142999,818.121650142999,a,1.4852964700003213,1,286,1,819.6236521489991,821.1249819019995,821.1249819019995,37688,2022-10-25_10h15.41.314,vts_reward_expectancy_bt_OFFLINE,2022.2.4,59.97729967155138,
0,0,1,0,0,1,0,0,hexagon,circle,1,0,1,0,1,2,14,7,,,,,,,,821.625805751999,821.625805751999,821.625805751999,821.625805751999,821.625805751999,821.625805751999,821.625805751999,821.625805751999,821.625805751999,821.625805751999,a,1.5242190419994586,1,287,1,823.1774497739989,824.6789371599989,,37688,2022-10-25_10h15.41.314,vts_reward_expectancy_bt_OFFLINE,2022.2.4,59.97729967155138,
0,0,1,0,0,0,0,1,hexagon,star,1,0,1,0,1,3,15,8,,,,,,,,825.1795341599991,825.1795341599991,825.1795341599991,825.1795341599991,825.1795341599991,825.1795341599991,825.1795341599991,825.1795341599991,825.1795341599991,825.1795341599991,l,0.5852472370006581,10,297,1,825.7968319970005,827.2987357269994,,37688,2022-10-25_10h15.41.314,vts_reward_expectancy_bt_OFFLINE,2022.2.4,59.97729967155138,
0,0,1,0,1,0,0,0,hexagon,triangle,1,0,1,0,1,4,16,6,,,,,,,,827.7990492099998,827.7990492099998,827.7990492099998,827.7990492099998,827.7990492099998,827.7990492099998,827.7990492099998,827.7990492099998,827.7990492099998,827.7990492099998,l,1.3981789400004345,1,298,1,829.2174075040002,830.719119845,,37688,2022-10-25_10h15.41.314,vts_reward_expectancy_bt_OFFLINE,2022.2.4,59.97729967155138,
0,1,0,0,0,0,0,1,circle,star,1,0,1,0,1,5,17,5,,,,,,,,831.219634703999,831.219634703999,831.219634703999,831.219634703999,831.219634703999,831.219634703999,831.219634703999,831.219634703999,831.219634703999,831.219634703999,l,1.5217510729999049,1,299,1,832.7712199999987,834.2729160170002,,37688,2022-10-25_10h15.41.314,vts_reward_expectancy_bt_OFFLINE,2022.2.4,59.97729967155138,
0,0,0,1,0,1,0,0,star ,circle,1,0,1,0,1,6,18,10,,,,,,,,834.7736049100004,834.7736049100004,834.7736049100004,834.7736049100004,834.7736049100004,834.7736049100004,834.7736049100004,834.7736049100004,834.7736049100004,834.7736049100004,a,0.6875897139998415,1,300,1,835.4911677839991,836.9925765440003,,37688,2022-10-25_10h15.41.314,vts_reward_expectancy_bt_OFFLINE,2022.2.4,59.97729967155138,
0,1,0,0,1,0,0,0,circle,triangle,1,0,1,0,1,7,19,3,,,,,,,,837.4932930979994,837.4932930979994,837.4932930979994,837.4932930979994,837.4932930979994,837.4932930979994,837.4932930979994,837.4932930979994,837.4932930979994,837.4932930979994,a,2.3363974050007528,1,301,1,839.8624095979994,841.3640705369999,,37688,2022-10-25_10h15.41.314,vts_reward_expectancy_bt_OFFLINE,2022.2.4,59.97729967155138,
1,0,0,0,0,1,0,0,triangle,circle,1,0,1,0,1,8,20,0,,,,,,,,841.8646728929998,841.8646728929998,841.8646728929998,841.8646728929998,841.8646728929998,841.8646728929998,841.8646728929998,841.8646728929998,841.8646728929998,841.8646728929998,l,0.7016127919996507,10,311,1,842.5986577099993,844.1002308850002,,37688,2022-10-25_10h15.41.314,vts_reward_expectancy_bt_OFFLINE,2022.2.4,59.97729967155138,
0,1,0,0,0,0,1,0,circle,hexagon,1,0,1,0,1,9,21,4,,,,,,,,844.6008535239998,844.6008535239998,844.6008535239998,844.6008535239998,844.6008535239998,844.6008535239998,844.6008535239998,844.6008535239998,844.6008535239998,844.6008535239998,l,6.5415738279989455,1,312,1,851.174704908999,852.6765796,,37688,2022-10-25_10h15.41.314,vts_reward_expectancy_bt_OFFLINE,2022.2.4,59.97729967155138,
0,0,0,1,0,0,1,0,star,hexagon,1,0,1,0,1,10,22,11,,,,,,,,853.1769907069993,853.1769907069993,853.1769907069993,853.1769907069993,853.1769907069993,853.1769907069993,853.1769907069993,853.1769907069993,853.1769907069993,853.1769907069993,a,2.627833864000422,10,322,1,855.8298660069995,857.3317307839989,,37688,2022-10-25_10h15.41.314,vts_reward_expectancy_bt_OFFLINE,2022.2.4,59.97729967155138,
0,0,0,1,1,0,0,0,star,triangle,1,0,1,0,1,11,23,9,,,,,,,,857.8324476029993,857.8324476029993,857.8324476029993,857.8324476029993,857.8324476029993,857.8324476029993,857.8324476029993,857.8324476029993,857.8324476029993,857.8324476029993,l,1.365595024999493,10,332,1,859.2171709679988,860.7187315039992,,37688,2022-10-25_10h15.41.314,vts_reward_expectancy_bt_OFFLINE,2022.2.4,59.97729967155138,
1,0,0,0,0,1,0,0,triangle,circle,1,0,1,0,2,0,24,0,,,,,,,,861.2193102919991,861.2193102919991,861.2193102919991,861.2193102919991,861.2193102919991,861.2193102919991,861.2193102919991,861.2193102919991,861.2193102919991,861.2193102919991,a,1.5063130269991234,1,333,1,862.7544397749989,864.256103362999,,37688,2022-10-25_10h15.41.314,vts_reward_expectancy_bt_OFFLINE,2022.2.4,59.97729967155138,
0,0,0,1,0,1,0,0,star ,circle,1,0,1,0,2,1,25,10,,,,,,,,864.7563227329993,864.7563227329993,864.7563227329993,864.7563227329993,864.7563227329993,864.7563227329993,864.7563227329993,864.7563227329993,864.7563227329993,864.7563227329993,a,4.1060119989997474,1,334,1,868.8943003879995,870.3961217029992,,37688,2022-10-25_10h15.41.314,vts_reward_expectancy_bt_OFFLINE,2022.2.4,59.97729967155138,
0,1,0,0,0,0,0,1,circle,star,1,0,1,0,2,2,26,5,,,,,,,,870.896650482,870.896650482,870.896650482,870.896650482,870.896650482,870.896650482,870.896650482,870.896650482,870.896650482,870.896650482,a,1.828737858999375,1,335,1,872.7486420690002,874.2505836939999,,37688,2022-10-25_10h15.41.314,vts_reward_expectancy_bt_OFFLINE,2022.2.4,59.97729967155138,
1,0,0,0,0,0,1,0,triangle,hexagon,1,0,1,0,2,3,27,1,,,,,,,,874.7508999419988,874.7508999419988,874.7508999419988,874.7508999419988,874.7508999419988,874.7508999419988,874.7508999419988,874.7508999419988,874.7508999419988,874.7508999419988,a,1.3027507970000443,1,336,1,876.0857246630003,877.5875307389997,,37688,2022-10-25_10h15.41.314,vts_reward_expectancy_bt_OFFLINE,2022.2.4,59.97729967155138,
0,0,0,1,1,0,0,0,star,triangle,1,0,1,0,2,4,28,9,,,,,,,,878.0881816029996,878.0881816029996,878.0881816029996,878.0881816029996,878.0881816029996,878.0881816029996,878.0881816029996,878.0881816029996,878.0881816029996,878.0881816029996,a,0.8775405870001123,10,346,1,878.9890062189988,880.4904993749988,,37688,2022-10-25_10h15.41.314,vts_reward_expectancy_bt_OFFLINE,2022.2.4,59.97729967155138,
0,1,0,0,0,0,1,0,circle,hexagon,1,0,1,0,2,5,29,4,,,,,,,,880.991167704,880.991167704,880.991167704,880.991167704,880.991167704,880.991167704,880.991167704,880.991167704,880.991167704,880.991167704,l,2.5511680290001095,10,356,1,883.5606363379993,885.0621180629987,,37688,2022-10-25_10h15.41.314,vts_reward_expectancy_bt_OFFLINE,2022.2.4,59.97729967155138,
0,0,0,1,0,0,1,0,star,hexagon,1,0,1,0,2,6,30,11,,,,,,,,885.5630500930001,885.5630500930001,885.5630500930001,885.5630500930001,885.5630500930001,885.5630500930001,885.5630500930001,885.5630500930001,885.5630500930001,885.5630500930001,a,1.4267979790001846,1,357,1,887.0145629649996,888.5159856619994,,37688,2022-10-25_10h15.41.314,vts_reward_expectancy_bt_OFFLINE,2022.2.4,59.97729967155138,
0,0,1,0,1,0,0,0,hexagon,triangle,1,0,1,0,2,7,31,6,,,,,,,,889.0167927170005,889.0167927170005,889.0167927170005,889.0167927170005,889.0167927170005,889.0167927170005,889.0167927170005,889.0167927170005,889.0167927170005,889.0167927170005,a,0.7730766090007819,1,358,1,889.8175127350005,891.3191476539996,,37688,2022-10-25_10h15.41.314,vts_reward_expectancy_bt_OFFLINE,2022.2.4,59.97729967155138,
1,0,0,0,0,0,0,1,triangle,star,1,0,1,0,2,8,32,2,,,,,,,,891.8198091969989,891.8198091969989,891.8198091969989,891.8198091969989,891.8198091969989,891.8198091969989,891.8198091969989,891.8198091969989,891.8198091969989,891.8198091969989,a,1.5860918410016893,10,368,1,893.4382493579997,894.9397602949994,,37688,2022-10-25_10h15.41.314,vts_reward_expectancy_bt_OFFLINE,2022.2.4,59.97729967155138,
0,0,1,0,0,1,0,0,hexagon,circle,1,0,1,0,2,9,33,7,,,,,,,,895.4405028700003,895.4405028700003,895.4405028700003,895.4405028700003,895.4405028700003,895.4405028700003,895.4405028700003,895.4405028700003,895.4405028700003,895.4405028700003,l,2.428917430999718,10,378,1,897.8930402639999,899.3948317249997,,37688,2022-10-25_10h15.41.314,vts_reward_expectancy_bt_OFFLINE,2022.2.4,59.97729967155138,
0,1,0,0,1,0,0,0,circle,triangle,1,0,1,0,2,10,34,3,,,,,,,,899.8953920169988,899.8953920169988,899.8953920169988,899.8953920169988,899.8953920169988,899.8953920169988,899.8953920169988,899.8953920169988,899.8953920169988,899.8953920169988,l,1.3024750719996518,1,379,1,901.2303268239993,902.731889187,,37688,2022-10-25_10h15.41.314,vts_reward_expectancy_bt_OFFLINE,2022.2.4,59.97729967155138,
0,0,1,0,0,0,0,1,hexagon,star,1,0,1,0,2,11,35,8,,,,,,,,903.2322661689996,903.2322661689996,903.2322661689996,903.2322661689996,903.2322661689996,903.2322661689996,903.2322661689996,903.2322661689996,903.2322661689996,903.2322661689996,l,1.4125486929988256,10,389,1,904.6673436330002,906.1689670619999,,37688,2022-10-25_10h15.41.314,vts_reward_expectancy_bt_OFFLINE,2022.2.4,59.97729967155138,
1,0,0,0,0,1,0,0,triangle,circle,1,0,1,0,3,0,36,0,,,,,,,,906.669386562,906.669386562,906.669386562,906.669386562,906.669386562,906.669386562,906.669386562,906.669386562,906.669386562,906.669386562,a,1.3196627020006417,1,390,1,908.0210118689993,909.5227674779999,,37688,2022-10-25_10h15.41.314,vts_reward_expectancy_bt_OFFLINE,2022.2.4,59.97729967155138,
0,0,0,1,0,1,0,0,star ,circle,1,0,1,0,3,1,37,10,,,,,,,,910.0232660439997,910.0232660439997,910.0232660439997,910.0232660439997,910.0232660439997,910.0232660439997,910.0232660439997,910.0232660439997,910.0232660439997,910.0232660439997,a,0.9745529539995914,1,391,1,911.0241547650003,912.5258366670005,,37688,2022-10-25_10h15.41.314,vts_reward_expectancy_bt_OFFLINE,2022.2.4,59.97729967155138,
0,1,0,0,0,0,1,0,circle,hexagon,1,0,1,0,3,2,38,4,,,,,,,,913.0264251879998,913.0264251879998,913.0264251879998,913.0264251879998,913.0264251879998,913.0264251879998,913.0264251879998,913.0264251879998,913.0264251879998,913.0264251879998,a,0.7012552340002003,1,392,1,913.7607241400001,915.2621953220005,,37688,2022-10-25_10h15.41.314,vts_reward_expectancy_bt_OFFLINE,2022.2.4,59.97729967155138,
0,0,1,0,0,0,0,1,hexagon,star,1,0,1,0,3,3,39,8,,,,,,,,915.7629091069994,915.7629091069994,915.7629091069994,915.7629091069994,915.7629091069994,915.7629091069994,915.7629091069994,915.7629091069994,915.7629091069994,915.7629091069994,a,0.8845052330016188,10,402,1,916.6641890840001,918.1656305069992,918.1656305069992,37688,2022-10-25_10h15.41.314,vts_reward_expectancy_bt_OFFLINE,2022.2.4,59.97729967155138,
1,0,0,0,0,0,0,1,triangle,star,1,0,1,0,3,4,40,2,,,,,,,,918.665950224,918.665950224,918.665950224,918.665950224,918.665950224,918.665950224,918.665950224,918.665950224,918.665950224,918.665950224,a,0.708270540999365,1,403,1,919.4002888329996,920.901837342999,,37688,2022-10-25_10h15.41.314,vts_reward_expectancy_bt_OFFLINE,2022.2.4,59.97729967155138,
0,0,1,0,1,0,0,0,hexagon,triangle,1,0,1,0,3,5,41,6,,,,,,,,921.402321988,921.402321988,921.402321988,921.402321988,921.402321988,921.402321988,921.402321988,921.402321988,921.402321988,921.402321988,a,1.8426257980008813,10,413,1,923.2709357139993,924.772890373999,,37688,2022-10-25_10h15.41.314,vts_reward_expectancy_bt_OFFLINE,2022.2.4,59.97729967155138,
0,1,0,0,1,0,0,0,circle,triangle,1,0,1,0,3,6,42,3,,,,,,,,925.2732759299997,925.2732759299997,925.2732759299997,925.2732759299997,925.2732759299997,925.2732759299997,925.2732759299997,925.2732759299997,925.2732759299997,925.2732759299997,a,2.347605303000819,10,423,1,927.642520854999,929.1442047540004,,37688,2022-10-25_10h15.41.314,vts_reward_expectancy_bt_OFFLINE,2022.2.4,59.97729967155138,
1,0,0,0,0,0,1,0,triangle,hexagon,1,0,1,0,3,7,43,1,,,,,,,,929.6447054620003,929.6447054620003,929.6447054620003,929.6447054620003,929.6447054620003,929.6447054620003,929.6447054620003,929.6447054620003,929.6447054620003,929.6447054620003,a,1.5771766270008811,1,424,1,931.246635862999,932.7481558870004,,37688,2022-10-25_10h15.41.314,vts_reward_expectancy_bt_OFFLINE,2022.2.4,59.97729967155138,
0,0,0,1,0,0,1,0,star,hexagon,1,0,1,0,3,8,44,11,,,,,,,,933.2487898290001,933.2487898290001,933.2487898290001,933.2487898290001,933.2487898290001,933.2487898290001,933.2487898290001,933.2487898290001,933.2487898290001,933.2487898290001,a,1.5019743449993257,10,434,1,934.7670574980002,936.2686839369999,936.2686839369999,37688,2022-10-25_10h15.41.314,vts_reward_expectancy_bt_OFFLINE,2022.2.4,59.97729967155138,
0,0,1,0,0,1,0,0,hexagon,circle,1,0,1,0,3,9,45,7,,,,,,,,936.769437899,936.769437899,936.769437899,936.769437899,936.769437899,936.769437899,936.769437899,936.769437899,936.769437899,936.769437899,l,1.268934628000352,1,435,1,938.0708106719994,939.5723474719998,,37688,2022-10-25_10h15.41.314,vts_reward_expectancy_bt_OFFLINE,2022.2.4,59.97729967155138,
0,1,0,0,0,0,0,1,circle,star,1,0,1,0,3,10,46,5,,,,,,,,940.0729394419996,940.0729394419996,940.0729394419996,940.0729394419996,940.0729394419996,940.0729394419996,940.0729394419996,940.0729394419996,940.0729394419996,940.0729394419996,a,1.052443623999352,1,436,1,941.157489801999,942.6591104979998,,37688,2022-10-25_10h15.41.314,vts_reward_expectancy_bt_OFFLINE,2022.2.4,59.97729967155138,
0,0,0,1,1,0,0,0,star,triangle,1,0,1,0,3,11,47,9,,,,,,,,943.1596588270004,943.1596588270004,943.1596588270004,943.1596588270004,943.1596588270004,943.1596588270004,943.1596588270004,943.1596588270004,943.1596588270004,943.1596588270004,a,0.7353415919988038,1,437,1,943.9272300379998,945.4290507819987,,37688,2022-10-25_10h15.41.314,vts_reward_expectancy_bt_OFFLINE,2022.2.4,59.97729967155138,
0,0,1,0,1,0,0,0,hexagon,triangle,2,0,2,0,0,0,0,6,,,,,,,,963.1150390229996,963.1150390229996,963.1150390229996,963.1150390229996,963.1150390229996,963.1150390229996,963.1150390229996,963.1150390229996,963.1150390229996,963.1150390229996,l,2.090690007999001,1,438,2,965.2341717750005,966.7356371419992,966.7356371419992,37688,2022-10-25_10h15.41.314,vts_reward_expectancy_bt_OFFLINE,2022.2.4,59.97729967155138,
0,1,0,0,0,0,0,1,circle,star,2,0,2,0,0,1,1,5,,,,,,,,967.2362189340001,967.2362189340001,967.2362189340001,967.2362189340001,967.2362189340001,967.2362189340001,967.2362189340001,967.2362189340001,967.2362189340001,967.2362189340001,l,2.626574260999405,10,448,2,969.8892701969999,971.3909490719998,,37688,2022-10-25_10h15.41.314,vts_reward_expectancy_bt_OFFLINE,2022.2.4,59.97729967155138,
0,0,1,0,0,1,0,0,hexagon,circle,2,0,2,0,0,2,2,7,,,,,,,,971.8915404269992,971.8915404269992,971.8915404269992,971.8915404269992,971.8915404269992,971.8915404269992,971.8915404269992,971.8915404269992,971.8915404269992,971.8915404269992,a,0.6260577579996607,10,458,2,972.542341462,974.0439943919991,,37688,2022-10-25_10h15.41.314,vts_reward_expectancy_bt_OFFLINE,2022.2.4,59.97729967155138,
1,0,0,0,0,0,0,1,triangle,star,2,0,2,0,0,3,3,2,,,,,,,,974.5443904399999,974.5443904399999,974.5443904399999,974.5443904399999,974.5443904399999,974.5443904399999,974.5443904399999,974.5443904399999,974.5443904399999,974.5443904399999,a,3.020877269000266,10,468,2,977.5975153319996,979.0992193839993,,37688,2022-10-25_10h15.41.314,vts_reward_expectancy_bt_OFFLINE,2022.2.4,59.97729967155138,
1,0,0,0,0,1,0,0,triangle,circle,2,0,2,0,0,4,4,0,,,,,,,,979.5998316619989,979.5998316619989,979.5998316619989,979.5998316619989,979.5998316619989,979.5998316619989,979.5998316619989,979.5998316619989,979.5998316619989,979.5998316619989,l,0.4617119089998596,1,469,2,980.0839424679998,981.5854976800001,,37688,2022-10-25_10h15.41.314,vts_reward_expectancy_bt_OFFLINE,2022.2.4,59.97729967155138,
0,0,0,1,0,0,1,0,star,hexagon,2,0,2,0,0,5,5,11,,,,,,,,982.0860488039998,982.0860488039998,982.0860488039998,982.0860488039998,982.0860488039998,982.0860488039998,982.0860488039998,982.0860488039998,982.0860488039998,982.0860488039998,a,1.263338496999495,10,479,2,983.3708156849989,984.8725117639988,,37688,2022-10-25_10h15.41.314,vts_reward_expectancy_bt_OFFLINE,2022.2.4,59.97729967155138,
0,0,0,1,1,0,0,0,star,triangle,2,0,2,0,0,6,6,9,,,,,,,,985.3729398790001,985.3729398790001,985.3729398790001,985.3729398790001,985.3729398790001,985.3729398790001,985.3729398790001,985.3729398790001,985.3729398790001,985.3729398790001,l,2.4808884439989924,1,480,2,987.8756571550002,989.3772725830004,,37688,2022-10-25_10h15.41.314,vts_reward_expectancy_bt_OFFLINE,2022.2.4,59.97729967155138,
0,0,1,0,0,0,0,1,hexagon,star,2,0,2,0,0,7,7,8,,,,,,,,989.8779053489998,989.8779053489998,989.8779053489998,989.8779053489998,989.8779053489998,989.8779053489998,989.8779053489998,989.8779053489998,989.8779053489998,989.8779053489998,a,0.4174755340009142,10,490,2,990.3121703529996,991.8133201170003,991.8133201170003,37688,2022-10-25_10h15.41.314,vts_reward_expectancy_bt_OFFLINE,2022.2.4,59.97729967155138,
0,1,0,0,1,0,0,0,circle,triangle,2,0,2,0,0,8,8,3,,,,,,,,992.3139572839991,992.3139572839991,992.3139572839991,992.3139572839991,992.3139572839991,992.3139572839991,992.3139572839991,992.3139572839991,992.3139572839991,992.3139572839991,a,0.33206293799958075,10,500,2,992.6643928720005,994.1661205290002,,37688,2022-10-25_10h15.41.314,vts_reward_expectancy_bt_OFFLINE,2022.2.4,59.97729967155138,
0,0,0,1,0,1,0,0,star ,circle,2,0,2,0,0,9,9,10,,,,,,,,994.6664597750005,994.6664597750005,994.6664597750005,994.6664597750005,994.6664597750005,994.6664597750005,994.6664597750005,994.6664597750005,994.6664597750005,994.6664597750005,l,0.6512921430003189,10,510,2,995.3505754929993,996.852403932,996.852403932,37688,2022-10-25_10h15.41.314,vts_reward_expectancy_bt_OFFLINE,2022.2.4,59.97729967155138,
0,1,0,0,0,0,1,0,circle,hexagon,2,0,2,0,0,10,10,4,,,,,,,,997.3526241389991,997.3526241389991,997.3526241389991,997.3526241389991,997.3526241389991,997.3526241389991,997.3526241389991,997.3526241389991,997.3526241389991,997.3526241389991,a,0.5660823950001941,1,511,2,997.9368134939996,999.438312713999,,37688,2022-10-25_10h15.41.314,vts_reward_expectancy_bt_OFFLINE,2022.2.4,59.97729967155138,
1,0,0,0,0,0,1,0,triangle,hexagon,2,0,2,0,0,11,11,1,,,,,,,,999.9390246040002,999.9390246040002,999.9390246040002,999.9390246040002,999.9390246040002,999.9390246040002,999.9390246040002,999.9390246040002,999.9390246040002,999.9390246040002,l,0.5456818880011269,1,512,2,1000.5061826099991,1002.0077981519989,,37688,2022-10-25_10h15.41.314,vts_reward_expectancy_bt_OFFLINE,2022.2.4,59.97729967155138,
0,0,1,0,1,0,0,0,hexagon,triangle,2,0,2,0,1,0,12,6,,,,,,,,1002.5085061329992,1002.5085061329992,1002.5085061329992,1002.5085061329992,1002.5085061329992,1002.5085061329992,1002.5085061329992,1002.5085061329992,1002.5085061329992,1002.5085061329992,l,0.736290208000355,1,513,2,1003.2758890919995,1004.7776795369991,,37688,2022-10-25_10h15.41.314,vts_reward_expectancy_bt_OFFLINE,2022.2.4,59.97729967155138,
0,0,1,0,0,0,0,1,hexagon,star,2,0,2,0,1,1,13,8,,,,,,,,1005.2781416580001,1005.2781416580001,1005.2781416580001,1005.2781416580001,1005.2781416580001,1005.2781416580001,1005.2781416580001,1005.2781416580001,1005.2781416580001,1005.2781416580001,l,2.4077780740008166,10,523,2,1007.7142519919998,1009.2160804939995,,37688,2022-10-25_10h15.41.314,vts_reward_expectancy_bt_OFFLINE,2022.2.4,59.97729967155138,
0,1,0,0,0,0,1,0,circle,hexagon,2,0,2,0,1,2,14,4,,,,,,,,1009.7164305099996,1009.7164305099996,1009.7164305099996,1009.7164305099996,1009.7164305099996,1009.7164305099996,1009.7164305099996,1009.7164305099996,1009.7164305099996,1009.7164305099996,l,1.3606460230002995,1,524,2,1011.1011851869989,1012.603021633,,37688,2022-10-25_10h15.41.314,vts_reward_expectancy_bt_OFFLINE,2022.2.4,59.97729967155138,
1,0,0,0,0,0,0,1,triangle,star,2,0,2,0,1,3,15,2,,,,,,,,1013.1035923740001,1013.1035923740001,1013.1035923740001,1013.1035923740001,1013.1035923740001,1013.1035923740001,1013.1035923740001,1013.1035923740001,1013.1035923740001,1013.1035923740001,a,1.358863592000489,10,534,2,1014.4884814449997,1015.990122449999,,37688,2022-10-25_10h15.41.314,vts_reward_expectancy_bt_OFFLINE,2022.2.4,59.97729967155138,
0,0,0,1,0,0,1,0,star,hexagon,2,0,2,0,1,4,16,11,,,,,,,,1016.4904593079991,1016.4904593079991,1016.4904593079991,1016.4904593079991,1016.4904593079991,1016.4904593079991,1016.4904593079991,1016.4904593079991,1016.4904593079991,1016.4904593079991,a,0.5942916549993242,1,535,2,1017.1080075279988,1018.6096114969987,,37688,2022-10-25_10h15.41.314,vts_reward_expectancy_bt_OFFLINE,2022.2.4,59.97729967155138,
0,0,0,1,1,0,0,0,star,triangle,2,0,2,0,1,5,17,9,,,,,,,,1019.1102209719993,1019.1102209719993,1019.1102209719993,1019.1102209719993,1019.1102209719993,1019.1102209719993,1019.1102209719993,1019.1102209719993,1019.1102209719993,1019.1102209719993,a,1.6002030420004303,10,545,2,1020.7286349490005,1022.2304462089996,,37688,2022-10-25_10h15.41.314,vts_reward_expectancy_bt_OFFLINE,2022.2.4,59.97729967155138,
0,0,1,0,0,1,0,0,hexagon,circle,2,0,2,0,1,6,18,7,,,,,,,,1022.7308981120004,1022.7308981120004,1022.7308981120004,1022.7308981120004,1022.7308981120004,1022.7308981120004,1022.7308981120004,1022.7308981120004,1022.7308981120004,1022.7308981120004,a,0.6265259239989973,1,546,2,1023.3816830340002,1024.8830702899995,,37688,2022-10-25_10h15.41.314,vts_reward_expectancy_bt_OFFLINE,2022.2.4,59.97729967155138,
0,1,0,0,0,0,0,1,circle,star,2,0,2,0,1,7,19,5,,,,,,,,1025.383711429,1025.383711429,1025.383711429,1025.383711429,1025.383711429,1025.383711429,1025.383711429,1025.383711429,1025.383711429,1025.383711429,a,1.0140473169994948,10,556,2,1026.4180629000002,1027.9198060149993,,37688,2022-10-25_10h15.41.314,vts_reward_expectancy_bt_OFFLINE,2022.2.4,59.97729967155138,
0,0,0,1,0,1,0,0,star ,circle,2,0,2,0,1,8,20,10,,,,,,,,1028.4202794880002,1028.4202794880002,1028.4202794880002,1028.4202794880002,1028.4202794880002,1028.4202794880002,1028.4202794880002,1028.4202794880002,1028.4202794880002,1028.4202794880002,l,1.001783649000572,10,566,2,1029.455026751999,1030.956704021999,,37688,2022-10-25_10h15.41.314,vts_reward_expectancy_bt_OFFLINE,2022.2.4,59.97729967155138,
0,1,0,0,1,0,0,0,circle,triangle,2,0,2,0,1,9,21,3,,,,,,,,1031.4573106339994,1031.4573106339994,1031.4573106339994,1031.4573106339994,1031.4573106339994,1031.4573106339994,1031.4573106339994,1031.4573106339994,1031.4573106339994,1031.4573106339994,l,2.019735830999707,1,567,2,1033.509565282,1035.0112532919993,,37688,2022-10-25_10h15.41.314,vts_reward_expectancy_bt_OFFLINE,2022.2.4,59.97729967155138,
1,0,0,0,0,1,0,0,triangle,circle,2,0,2,0,1,10,22,0,,,,,,,,1035.5116452869988,1035.5116452869988,1035.5116452869988,1035.5116452869988,1035.5116452869988,1035.5116452869988,1035.5116452869988,1035.5116452869988,1035.5116452869988,1035.5116452869988,a,0.8774669270005688,1,568,2,1036.4127761830005,1037.91432471,,37688,2022-10-25_10h15.41.314,vts_reward_expectancy_bt_OFFLINE,2022.2.4,59.97729967155138,
1,0,0,0,0,0,1,0,triangle,hexagon,2,0,2,0,1,11,23,1,,,,,,,,1038.415051431999,1038.415051431999,1038.415051431999,1038.415051431999,1038.415051431999,1038.415051431999,1038.415051431999,1038.415051431999,1038.415051431999,1038.415051431999,a,0.8786453680004342,10,578,2,1039.3157440630002,1040.8177071480004,,37688,2022-10-25_10h15.41.314,vts_reward_expectancy_bt_OFFLINE,2022.2.4,59.97729967155138,
0,0,0,1,0,0,1,0,star,hexagon,2,0,2,0,2,0,24,11,,,,,,,,1041.3179512919996,1041.3179512919996,1041.3179512919996,1041.3179512919996,1041.3179512919996,1041.3179512919996,1041.3179512919996,1041.3179512919996,1041.3179512919996,1041.3179512919996,a,11.184155864999411,1,579,2,1052.530376494,1054.0322082169987,,37688,2022-10-25_10h15.41.314,vts_reward_expectancy_bt_OFFLINE,2022.2.4,59.97729967155138,
1,0,0,0,0,0,1,0,triangle,hexagon,2,0,2,0,2,1,25,1,,,,,,,,1054.532491074,1054.532491074,1054.532491074,1054.532491074,1054.532491074,1054.532491074,1054.532491074,1054.532491074,1054.532491074,1054.532491074,a,3.186154630000601,10,589,2,1057.736326573,1059.2376354489988,1059.2376354489988,37688,2022-10-25_10h15.41.314,vts_reward_expectancy_bt_OFFLINE,2022.2.4,59.97729967155138,
1,0,0,0,0,0,0,1,triangle,star,2,0,2,0,2,2,26,2,,,,,,,,1059.7383453129987,1059.7383453129987,1059.7383453129987,1059.7383453129987,1059.7383453129987,1059.7383453129987,1059.7383453129987,1059.7383453129987,1059.7383453129987,1059.7383453129987,a,1.6686689799989836,10,599,2,1061.4235191839998,1062.9253368869995,1062.9253368869995,37688,2022-10-25_10h15.41.314,vts_reward_expectancy_bt_OFFLINE,2022.2.4,59.97729967155138,
0,1,0,0,0,0,1,0,circle,hexagon,2,0,2,0,2,3,27,4,,,,,,,,1063.425634633999,1063.425634633999,1063.425634633999,1063.425634633999,1063.425634633999,1063.425634633999,1063.425634633999,1063.425634633999,1063.425634633999,1063.425634633999,a,2.236421898998742,1,600,2,1065.694945273999,1067.1963761219995,,37688,2022-10-25_10h15.41.314,vts_reward_expectancy_bt_OFFLINE,2022.2.4,59.97729967155138,
0,1,0,0,0,0,0,1,circle,star,2,0,2,0,2,4,28,5,,,,,,,,1067.6971121200004,1067.6971121200004,1067.6971121200004,1067.6971121200004,1067.6971121200004,1067.6971121200004,1067.6971121200004,1067.6971121200004,1067.6971121200004,1067.6971121200004,l,2.4861636650002765,1,601,2,1070.2000187969988,1071.701549907999,1071.701549907999,37688,2022-10-25_10h15.41.314,vts_reward_expectancy_bt_OFFLINE,2022.2.4,59.97729967155138,
0,0,1,0,0,0,0,1,hexagon,star,2,0,2,0,2,5,29,8,,,,,,,,1072.202035471999,1072.202035471999,1072.202035471999,1072.202035471999,1072.202035471999,1072.202035471999,1072.202035471999,1072.202035471999,1072.202035471999,1072.202035471999,l,0.6353139139991981,1,602,2,1072.8694265129998,1074.3710880130002,,37688,2022-10-25_10h15.41.314,vts_reward_expectancy_bt_OFFLINE,2022.2.4,59.97729967155138,
0,1,0,0,1,0,0,0,circle,triangle,2,0,2,0,2,6,30,3,,,,,,,,1074.8717757269987,1074.8717757269987,1074.8717757269987,1074.8717757269987,1074.8717757269987,1074.8717757269987,1074.8717757269987,1074.8717757269987,1074.8717757269987,1074.8717757269987,l,0.3412301819989807,1,603,2,1075.2388397989998,1076.7404710480005,,37688,2022-10-25_10h15.41.314,vts_reward_expectancy_bt_OFFLINE,2022.2.4,59.97729967155138,
0,0,1,0,0,1,0,0,hexagon,circle,2,0,2,0,2,7,31,7,,,,,,,,1077.2410429169995,1077.2410429169995,1077.2410429169995,1077.2410429169995,1077.2410429169995,1077.2410429169995,1077.2410429169995,1077.2410429169995,1077.2410429169995,1077.2410429169995,l,0.7176525590002711,10,613,2,1077.9755206319987,1079.4768846449988,1079.4768846449988,37688,2022-10-25_10h15.41.314,vts_reward_expectancy_bt_OFFLINE,2022.2.4,59.97729967155138,
1,0,0,0,0,1,0,0,triangle,circle,2,0,2,0,2,8,32,0,,,,,,,,1079.9772156999989,1079.9772156999989,1079.9772156999989,1079.9772156999989,1079.9772156999989,1079.9772156999989,1079.9772156999989,1079.9772156999989,1079.9772156999989,1079.9772156999989,a,0.33398782999938703,1,614,2,1080.3281446829988,1081.8293505829988,1081.8293505829988,37688,2022-10-25_10h15.41.314,vts_reward_expectancy_bt_OFFLINE,2022.2.4,59.97729967155138,
0,0,0,1,1,0,0,0,star,triangle,2,0,2,0,2,9,33,9,,,,,,,,1082.3298939249999,1082.3298939249999,1082.3298939249999,1082.3298939249999,1082.3298939249999,1082.3298939249999,1082.3298939249999,1082.3298939249999,1082.3298939249999,1082.3298939249999,a,0.6275136820004263,10,624,2,1082.9810214279987,1084.4824109050005,,37688,2022-10-25_10h15.41.314,vts_reward_expectancy_bt_OFFLINE,2022.2.4,59.97729967155138,
0,0,1,0,1,0,0,0,hexagon,triangle,2,0,2,0,2,10,34,6,,,,,,,,1084.982751448999,1084.982751448999,1084.982751448999,1084.982751448999,1084.982751448999,1084.982751448999,1084.982751448999,1084.982751448999,1084.982751448999,1084.982751448999,a,0.36791025799902854,1,625,2,1085.3831621249992,1086.8850313129988,,37688,2022-10-25_10h15.41.314,vts_reward_expectancy_bt_OFFLINE,2022.2.4,59.97729967155138,
0,0,0,1,0,1,0,0,star ,circle,2,0,2,0,2,11,35,10,,,,,,,,1087.3853632150003,1087.3853632150003,1087.3853632150003,1087.3853632150003,1087.3853632150003,1087.3853632150003,1087.3853632150003,1087.3853632150003,1087.3853632150003,1087.3853632150003,a,0.6914137030016718,1,626,2,1088.1031096939987,1089.6045470850004,,37688,2022-10-25_10h15.41.314,vts_reward_expectancy_bt_OFFLINE,2022.2.4,59.97729967155138,
1,0,0,0,0,1,0,0,triangle,circle,2,0,2,0,3,0,36,0,,,,,,,,1090.1052667629992,1090.1052667629992,1090.1052667629992,1090.1052667629992,1090.1052667629992,1090.1052667629992,1090.1052667629992,1090.1052667629992,1090.1052667629992,1090.1052667629992,l,0.40372142200067174,10,636,2,1090.538877511999,1092.0406257920004,,37688,2022-10-25_10h15.41.314,vts_reward_expectancy_bt_OFFLINE,2022.2.4,59.97729967155138,
0,0,1,0,1,0,0,0,hexagon,triangle,2,0,2,0,3,1,37,6,,,,,,,,1092.541140198,1092.541140198,1092.541140198,1092.541140198,1092.541140198,1092.541140198,1092.541140198,1092.541140198,1092.541140198,1092.541140198,a,9.455787618999238,10,646,2,1102.018200523,1103.5198612189997,,37688,2022-10-25_10h15.41.314,vts_reward_expectancy_bt_OFFLINE,2022.2.4,59.97729967155138,
0,1,0,0,0,0,1,0,circle,hexagon,2,0,2,0,3,2,38,4,,,,,,,,1104.0203613679987,1104.0203613679987,1104.0203613679987,1104.0203613679987,1104.0203613679987,1104.0203613679987,1104.0203613679987,1104.0203613679987,1104.0203613679987,1104.0203613679987,a,1.2973652219989162,1,647,2,1105.3385599579997,1106.8401193070004,,37688,2022-10-25_10h15.41.314,vts_reward_expectancy_bt_OFFLINE,2022.2.4,59.97729967155138,
0,0,0,1,0,1,0,0,star ,circle,2,0,2,0,3,3,39,10,,,,,,,,1107.3409316489997,1107.3409316489997,1107.3409316489997,1107.3409316489997,1107.3409316489997,1107.3409316489997,1107.3409316489997,1107.3409316489997,1107.3409316489997,1107.3409316489997,a,0.842001248998713,1,648,2,1108.2084571569994,1109.7100989150003,,37688,2022-10-25_10h15.41.314,vts_reward_expectancy_bt_OFFLINE,2022.2.4,59.97729967155138,
1,0,0,0,0,0,1,0,triangle,hexagon,2,0,2,0,3,4,40,1,,,,,,,,1110.210749468999,1110.210749468999,1110.210749468999,1110.210749468999,1110.210749468999,1110.210749468999,1110.210749468999,1110.210749468999,1110.210749468999,1110.210749468999,a,2.0360812449998775,1,649,2,1112.2796958849995,1113.7811948629987,,37688,2022-10-25_10h15.41.314,vts_reward_expectancy_bt_OFFLINE,2022.2.4,59.97729967155138,
0,0,0,1,1,0,0,0,star,triangle,2,0,2,0,3,5,41,9,,,,,,,,1114.2817918639994,1114.2817918639994,1114.2817918639994,1114.2817918639994,1114.2817918639994,1114.2817918639994,1114.2817918639994,1114.2817918639994,1114.2817918639994,1114.2817918639994,a,0.9484699519998685,1,650,2,1115.249726062999,1116.7511725040004,,37688,2022-10-25_10h15.41.314,vts_reward_expectancy_bt_OFFLINE,2022.2.4,59.97729967155138,
1,0,0,0,0,0,0,1,triangle,star,2,0,2,0,3,6,42,2,,,,,,,,1117.251931753999,1117.251931753999,1117.251931753999,1117.251931753999,1117.251931753999,1117.251931753999,1117.251931753999,1117.251931753999,1117.251931753999,1117.251931753999,l,1.6979279740007769,1,651,2,1118.970474889,1120.471986335,,37688,2022-10-25_10h15.41.314,vts_reward_expectancy_bt_OFFLINE,2022.2.4,59.97729967155138,
0,0,0,1,0,0,1,0,star,hexagon,2,0,2,0,3,7,43,11,,,,,,,,1120.9724756100004,1120.9724756100004,1120.9724756100004,1120.9724756100004,1120.9724756100004,1120.9724756100004,1120.9724756100004,1120.9724756100004,1120.9724756100004,1120.9724756100004,a,6.400582188000044,10,661,2,1127.396522953999,1128.8981018550003,,37688,2022-10-25_10h15.41.314,vts_reward_expectancy_bt_OFFLINE,2022.2.4,59.97729967155138,
0,0,1,0,0,1,0,0,hexagon,circle,2,0,2,0,3,8,44,7,,,,,,,,1129.3986790719991,1129.3986790719991,1129.3986790719991,1129.3986790719991,1129.3986790719991,1129.3986790719991,1129.3986790719991,1129.3986790719991,1129.3986790719991,1129.3986790719991,a,2.0631227289995877,1,662,2,1131.5008884899999,1132.9857880380005,,37688,2022-10-25_10h15.41.314,vts_reward_expectancy_bt_OFFLINE,2022.2.4,59.97729967155138,
0,0,1,0,0,0,0,1,hexagon,star,2,0,2,0,3,9,45,8,,,,,,,,1133.486359425,1133.486359425,1133.486359425,1133.486359425,1133.486359425,1133.486359425,1133.486359425,1133.486359425,1133.486359425,1133.486359425,a,5.103834993000419,1,663,2,1138.608801323,1140.1102590239989,,37688,2022-10-25_10h15.41.314,vts_reward_expectancy_bt_OFFLINE,2022.2.4,59.97729967155138,
0,1,0,0,1,0,0,0,circle,triangle,2,0,2,0,3,10,46,3,,,,,,,,1140.6107845379993,1140.6107845379993,1140.6107845379993,1140.6107845379993,1140.6107845379993,1140.6107845379993,1140.6107845379993,1140.6107845379993,1140.6107845379993,1140.6107845379993,a,0.5005870780005353,1,664,2,1141.1279979769988,1142.6296375290003,1142.6296375290003,37688,2022-10-25_10h15.41.314,vts_reward_expectancy_bt_OFFLINE,2022.2.4,59.97729967155138,
0,1,0,0,0,0,0,1,circle,star,2,0,2,0,3,11,47,5,,,,,,,,1143.13019541,1143.13019541,1143.13019541,1143.13019541,1143.13019541,1143.13019541,1143.13019541,1143.13019541,1143.13019541,1143.13019541,a,0.643205336000392,10,674,2,1143.7978086179992,1145.2994252569988,,37688,2022-10-25_10h15.41.314,vts_reward_expectancy_bt_OFFLINE,2022.2.4,59.97729967155138,
