training_blocks.thisRepN,training_blocks.thisTrialN,training_blocks.thisN,training_blocks.thisIndex,task1_prac_redo.thisRepN,task1_prac_redo.thisTrialN,task1_prac_redo.thisN,task1_prac_redo.thisIndex,task1_prac_trials.thisRepN,task1_prac_trials.thisTrialN,task1_prac_trials.thisN,task1_prac_trials.thisIndex,task2_prac_redo.thisRepN,task2_prac_redo.thisTrialN,task2_prac_redo.thisN,task2_prac_redo.thisIndex,task2_praac_trials.thisRepN,task2_praac_trials.thisTrialN,task2_praac_trials.thisN,task2_praac_trials.thisIndex,vts_prac_redo.thisRepN,vts_prac_redo.thisTrialN,vts_prac_redo.thisN,vts_prac_redo.thisIndex,vts_practice_trials.thisRepN,vts_practice_trials.thisTrialN,vts_practice_trials.thisN,vts_practice_trials.thisIndex,trials_norew.thisRepN,trials_norew.thisTrialN,trials_norew.thisN,trials_norew.thisIndex,block.thisRepN,block.thisTrialN,block.thisN,block.thisIndex,trials_rew.thisRepN,trials_rew.thisTrialN,trials_rew.thisN,trials_rew.thisIndex,key_resp.started,key_resp.keys,key_resp.rt,curr_topStim,curr_bottStim,curr_shape,ISI.started,tgt_fix_prac1.started,top_target_prac1.started,bott_target_prac1.started,target_resp_prac1.started,top_target_prac1.stopped,tgt_fix_prac1.stopped,bott_target_prac1.stopped,target_resp_prac1.stopped,acc,E1,target_resp_prac1.keys,pracBlock,prac_fback_text.started,prac_fback_text.stopped,fix.started,fix.stopped,target_resp_prac1.rt,tgt_fix_prac2.started,top_target_prac2.started,bott_target_prac2.started,target_resp_prac2.started,target_resp_prac2.keys,target_resp_prac2.rt,star.started,hegagon.started,triangle.started,circle.started,top_target.started,tgt_fix.started,bot_target.started,target_resp.started,star.stopped,hegagon.stopped,triangle.stopped,circle.stopped,alt,task,condition,target_resp.keys,target_resp.rt,rewCond,points_trial,points_cumul,vts_fback.started,vts_fback.stopped,blockNum,norew_fback.started,norew_fback.stopped,key_resp_2.keys,key_resp_2.rt,rewExpectancy,feedbk_text.started,feedbk_text.stopped,text_3.started,text_3.stopped,button.started,debrief.index,debrief.itemText,debrief.type,debrief.granularity,debrief.font,debrief.markerColor,debrief.response,debrief.rt,button.numClicks,button.timesOn,button.timesOff,participant,date,expName,psychopyVersion,frameRate,
,,,,,,,,,,,,,,,,,,,,,,,,,,,,,,,,,,,,,,,,13.815970222000033,space,5.170940827001687,,,,,,,,,,,,,,,,,,,,,,,,,,,,,,,,,,,,,,,,,,,,,,,,,,,,,,,,,,,,,,,,,,,,,,,,37688,2022-10-25_10h29.05.330,vts_reward_expectancy_bt_OFFLINE,2022.2.4,59.99429622191361,
,,,,0,0,0,0,0,0,0,0,,,,,,,,,,,,,,,,,,,,,,,,,,,,,,,,H,132,star,0.002002343000640394,59.63089525900068,61.131189563999214,61.131189563999214,61.131189563999214,64.13452924900048,64.13452924900048,64.13452924900048,64.13452924900048,0,0,None,0,64.13452924900048,65.63610152699948,65.63610152699948,66.13661246899937,,,,,,,,,,,,,,,,,,,,,,,,,,,,,,,,,,,,,,,,,,,,,,,,,,,,37688,2022-10-25_10h29.05.330,vts_reward_expectancy_bt_OFFLINE,2022.2.4,59.99429622191361,
,,,,0,0,0,0,1,0,1,0,,,,,,,,,,,,,,,,,,,,,,,,,,,,,,,,F,174,hexagon,0.008958070000517182,66.63752060200022,68.13880285599953,68.13880285599953,68.13880285599953,,,,,1,1,d,0,68.58975386599923,,70.09110746499937,,0.41835050900044735,,,,,,,,,,,,,,,,,,,,,,,,,,,,,,,,,,,,,,,,,,,,,,,,,,,37688,2022-10-25_10h29.05.330,vts_reward_expectancy_bt_OFFLINE,2022.2.4,59.99429622191361,
,,,,0,0,0,0,2,0,2,0,,,,,,,,,,,,,,,,,,,,,,,,,,,,,,,,W,181,hexagon,0.001419418000295991,71.07638331000089,72.57704831900082,72.57704831900082,72.57704831900082,,,,,1,0,f,0,73.21090861899938,,74.71257954099929,,0.609727152999767,,,,,,,,,,,,,,,,,,,,,,,,,,,,,,,,,,,,,,,,,,,,,,,,,,,37688,2022-10-25_10h29.05.330,vts_reward_expectancy_bt_OFFLINE,2022.2.4,59.99429622191361,
,,,,0,0,0,0,3,0,3,0,,,,,,,,,,,,,,,,,,,,,,,,,,,,,,,,U,167,star,0.0012077329993189778,75.69730156900005,77.19882105000033,77.19882105000033,77.19882105000033,,,,,1,0,f,0,77.83276305199979,,79.33470826399935,,0.6037465469999006,,,,,,,,,,,,,,,,,,,,,,,,,,,,,,,,,,,,,,,,,,,,,,,,,,,37688,2022-10-25_10h29.05.330,vts_reward_expectancy_bt_OFFLINE,2022.2.4,59.99429622191361,
,,,,0,0,0,0,4,0,4,0,,,,,,,,,,,,,,,,,,,,,,,,,,,,,,,,Y,160,hexagon,0.0013482520007528365,80.31927612899926,81.82045059200027,81.82045059200027,81.82045059200027,,,,,1,0,f,0,82.38797730899933,,83.88964108899927,,0.5415953169995191,,,,,,,,,,,,,,,,,,,,,,,,,,,,,,,,,,,,,,,,,,,,,,,,,,,37688,2022-10-25_10h29.05.330,vts_reward_expectancy_bt_OFFLINE,2022.2.4,59.99429622191361,
,,,,0,0,0,0,5,0,5,0,,,,,,,,,,,,,,,,,,,,,,,,,,,,,,,,D,146,hexagon,0.0013793019988952437,84.87382181199973,86.37575226099943,86.37575226099943,86.37575226099943,,,,,1,0,d,0,86.8760018060002,88.37795734700012,88.37795734700012,,0.4840141570002743,,,,,,,,,,,,,,,,,,,,,,,,,,,,,,,,,,,,,,,,,,,,,,,,,,,37688,2022-10-25_10h29.05.330,vts_reward_expectancy_bt_OFFLINE,2022.2.4,59.99429622191361,
,,,,0,0,0,0,6,0,6,0,,,,,,,,,,,,,,,,,,,,,,,,,,,,,,,,B,139,star,0.0005653270000038901,89.36298169600013,90.86399484200047,90.86399484200047,90.86399484200047,,,,,1,0,d,0,91.31445783100025,,92.81597689500086,,0.4182332860000315,,,,,,,,,,,,,,,,,,,,,,,,,,,,,,,,,,,,,,,,,,,,,,,,,,,37688,2022-10-25_10h29.05.330,vts_reward_expectancy_bt_OFFLINE,2022.2.4,59.99429622191361,
,,,,0,0,0,0,7,0,7,0,,,,,,,,,,,,,,,,,,,,,,,,,,,,,,,,S,125,star,0.0012086039987480035,93.80037875900052,95.3019631620009,95.3019631620009,95.3019631620009,,,,,1,0,f,0,95.85277868199955,,97.35427396900013,,0.5179313640001055,,,,,,,,,,,,,,,,,,,,,,,,,,,,,,,,,,,,,,,,,,,,,,,,,,,37688,2022-10-25_10h29.05.330,vts_reward_expectancy_bt_OFFLINE,2022.2.4,59.99429622191361,
,,,,0,0,0,0,8,0,8,0,,,,,,,,,,,,,,,,,,,,,,,,,,,,,,,,H,132,star,0.0014225679988157935,98.33877964199928,99.84049363600025,99.84049363600025,99.84049363600025,,,,,1,0,d,0,100.45761277100064,,101.95944957199936,,0.5936188400009996,,,,,,,,,,,,,,,,,,,,,,,,,,,,,,,,,,,,,,,,,,,,,,,,,,,37688,2022-10-25_10h29.05.330,vts_reward_expectancy_bt_OFFLINE,2022.2.4,59.99429622191361,
,,,,0,0,0,0,9,0,9,0,,,,,,,,,,,,,,,,,,,,,,,,,,,,,,,,F,174,hexagon,0.0010812809996423312,102.94371188100013,104.44564323899976,104.44564323899976,104.44564323899976,,,,,1,0,d,0,104.99620406699978,,106.49782182700073,,0.5178571090000332,,,,,,,,,,,,,,,,,,,,,,,,,,,,,,,,,,,,,,,,,,,,,,,,,,,37688,2022-10-25_10h29.05.330,vts_reward_expectancy_bt_OFFLINE,2022.2.4,59.99429622191361,
,,,,,,,,,,,,0,0,0,0,0,0,0,0,,,,,,,,,,,,,,,,,,,,,,,,F,160,hexagon,0.0017591489995538723,,,,,,,,,1,0,,1,142.90458511699944,,144.4063082770008,,,140.70236137599932,142.20369827099967,142.20369827099967,142.20369827099967,k,0.6705854270003329,,,,,,,,,,,,,,,,,,,,,,,,,,,,,,,,,,,,,,,,,,,,,37688,2022-10-25_10h29.05.330,vts_reward_expectancy_bt_OFFLINE,2022.2.4,59.99429622191361,
,,,,,,,,,,,,0,0,0,0,1,0,1,0,,,,,,,,,,,,,,,,,,,,,,,,D,146,hexagon,0.001365335998343653,,,,,,,,,1,0,,1,147.34297876600067,,148.84463826899992,,,145.39083596400087,146.892498444,146.892498444,146.892498444,j,0.4310425210005633,,,,,,,,,,,,,,,,,,,,,,,,,,,,,,,,,,,,,,,,,,,,,37688,2022-10-25_10h29.05.330,vts_reward_expectancy_bt_OFFLINE,2022.2.4,59.99429622191361,
,,,,,,,,,,,,0,0,0,0,2,0,2,0,,,,,,,,,,,,,,,,,,,,,,,,S,181,star,0.001356811000732705,,,,,,,,,1,0,,1,151.88119395399917,,153.3828913670004,,,149.82892675199946,151.33075015500071,151.33075015500071,151.33075015500071,k,0.5198392359998252,,,,,,,,,,,,,,,,,,,,,,,,,,,,,,,,,,,,,,,,,,,,,37688,2022-10-25_10h29.05.330,vts_reward_expectancy_bt_OFFLINE,2022.2.4,59.99429622191361,
,,,,,,,,,,,,0,0,0,0,3,0,3,0,,,,,,,,,,,,,,,,,,,,,,,,Y,132,star,0.0012109330000384944,,,,,,,,,1,0,,1,156.3194806650008,,157.82117223500063,,,154.36730594899927,155.86906681599976,155.86906681599976,155.86906681599976,j,0.4228396870003053,,,,,,,,,,,,,,,,,,,,,,,,,,,,,,,,,,,,,,,,,,,,,37688,2022-10-25_10h29.05.330,vts_reward_expectancy_bt_OFFLINE,2022.2.4,59.99429622191361,
,,,,,,,,,,,,0,0,0,0,4,0,4,0,,,,,,,,,,,,,,,,,,,,,,,,U,125,hexagon,0.0012902430007670773,,,,,,,,,1,0,,1,160.7905414500001,,162.2926975240007,,,158.80529090100026,160.30709390599986,160.30709390599986,160.30709390599986,j,0.4561354979996395,,,,,,,,,,,,,,,,,,,,,,,,,,,,,,,,,,,,,,,,,,,,,37688,2022-10-25_10h29.05.330,vts_reward_expectancy_bt_OFFLINE,2022.2.4,59.99429622191361,
,,,,,,,,,,,,0,0,0,0,5,0,5,0,,,,,,,,,,,,,,,,,,,,,,,,B,174,star,0.0018119599990313873,,,,,,,,,1,0,,1,165.31248900600076,,166.81445039999926,,,163.27719531500043,164.7787582960009,164.7787582960009,164.7787582960009,k,0.5037840059994778,,,,,,,,,,,,,,,,,,,,,,,,,,,,,,,,,,,,,,,,,,,,,37688,2022-10-25_10h29.05.330,vts_reward_expectancy_bt_OFFLINE,2022.2.4,59.99429622191361,
,,,,,,,,,,,,0,0,0,0,6,0,6,0,,,,,,,,,,,,,,,,,,,,,,,,H,139,hexagon,0.0015313259991671657,,,,,,,,,1,0,,1,169.71754350099945,,171.2191150109993,,,167.79875123999955,169.30039354700057,169.30039354700057,169.30039354700057,j,0.3902102170013677,,,,,,,,,,,,,,,,,,,,,,,,,,,,,,,,,,,,,,,,,,,,,37688,2022-10-25_10h29.05.330,vts_reward_expectancy_bt_OFFLINE,2022.2.4,59.99429622191361,
,,,,,,,,,,,,0,0,0,0,7,0,7,0,,,,,,,,,,,,,,,,,,,,,,,,W,167,star,0.0012279040001885733,,,,,,,,,1,0,,1,174.15576941700056,,175.6573600699994,,,172.20369678600036,173.70538861400019,173.70538861400019,173.70538861400019,k,0.4251846060014941,,,,,,,,,,,,,,,,,,,,,,,,,,,,,,,,,,,,,,,,,,,,,37688,2022-10-25_10h29.05.330,vts_reward_expectancy_bt_OFFLINE,2022.2.4,59.99429622191361,
,,,,,,,,,,,,0,0,0,0,8,0,8,0,,,,,,,,,,,,,,,,,,,,,,,,F,160,star,0.0012238090002938407,,,,,,,,,1,0,,1,178.66088428399962,180.1624842500005,180.1624842500005,,,176.64186090099975,178.14355810100096,178.14355810100096,178.14355810100096,k,0.5004637229994842,,,,,,,,,,,,,,,,,,,,,,,,,,,,,,,,,,,,,,,,,,,,,37688,2022-10-25_10h29.05.330,vts_reward_expectancy_bt_OFFLINE,2022.2.4,59.99429622191361,
,,,,,,,,,,,,0,0,0,0,9,0,9,0,,,,,,,,,,,,,,,,,,,,,,,,D,146,hexagon,0.0006959999991522636,,,,,,,,,1,0,,1,183.04878800900042,,184.55046435999975,,,181.14670458100045,182.64845230600076,182.64845230600076,182.64845230600076,j,0.3787290710006346,,,,,,,,,,,,,,,,,,,,,,,,,,,,,,,,,,,,,,,,,,,,,37688,2022-10-25_10h29.05.330,vts_reward_expectancy_bt_OFFLINE,2022.2.4,59.99429622191361,
,,,,,,,,,,,,,,,,,,,,0,0,0,0,0,0,0,0,,,,,,,,,,,,,,,,B,132,star,0.0020300229989516083,,,,,,,,,1,0,,2,,,218.10437644000012,,,,,,,,,213.99971049600026,213.99971049600026,213.99971049600026,213.99971049600026,215.48475203400085,215.48475203400085,215.48475203400085,215.48475203400085,215.50170318900018,215.50170318900018,215.50170318900018,215.50170318900018,-1,letter,NA,d,1.0857274010013498,vtsPrac,0,0,216.6024007649994,,,,,,,,,,,,,,,,,,,,,,,,37688,2022-10-25_10h29.05.330,vts_reward_expectancy_bt_OFFLINE,2022.2.4,59.99429622191361,
,,,,,,,,,,,,,,,,,,,,0,0,0,0,1,0,1,0,,,,,,,,,,,,,,,,F,146,hexagon,0.0012105950008844957,,,,,,,,,1,0,,2,,,223.04295272499985,,,,,,,,,219.09010894600033,219.09010894600033,219.09010894600033,219.09010894600033,220.59023161699952,220.59023161699952,220.59023161699952,220.59023161699952,220.59023161699952,220.59023161699952,220.59023161699952,220.59023161699952,repeat,letter,lettRpt,d,0.9345089990001725,vtsPrac,0,0,221.54151201700006,223.04295272499985,,,,,,,,,,,,,,,,,,,,,,,37688,2022-10-25_10h29.05.330,vts_reward_expectancy_bt_OFFLINE,2022.2.4,59.99429622191361,
,,,,,,,,,,,,,,,,,,,,0,0,0,0,2,0,2,0,,,,,,,,,,,,,,,,W,125,star,0.0007211110005300725,,,,,,,,,1,0,,2,,,227.71486058899973,,,,,,,,,224.02833958100018,224.02833958100018,224.02833958100018,224.02833958100018,225.52903228600007,225.52903228600007,225.52903228600007,225.52903228600007,225.52903228600007,225.52903228600007,225.52903228600007,225.52903228600007,repeat,letter,lettRpt,f,0.6674576530003833,vtsPrac,0,0,226.2132469240005,227.71486058899973,,,,,,,,,,,,,,,,,,,,,,,37688,2022-10-25_10h29.05.330,vts_reward_expectancy_bt_OFFLINE,2022.2.4,59.99429622191361,
,,,,,,,,,,,,,,,,,,,,0,0,0,0,3,0,3,0,,,,,,,,,,,,,,,,D,181,hexagon,0.0008323789988935459,,,,,,,,,1,0,,2,,,232.16998275699916,,,,,,,,,228.69975360399985,228.69975360399985,228.69975360399985,228.69975360399985,230.2009354439997,230.2009354439997,230.2009354439997,230.2009354439997,230.2009354439997,230.2009354439997,230.2009354439997,230.2009354439997,repeat,letter,lettRpt,d,0.4508821410017845,vtsPrac,0,0,230.66836551100096,232.16998275699916,,,,,,,,,,,,,,,,,,,,,,,37688,2022-10-25_10h29.05.330,vts_reward_expectancy_bt_OFFLINE,2022.2.4,59.99429622191361,
,,,,,,,,,,,,,,,,,,,,0,0,0,0,4,0,4,0,,,,,,,,,,,,,,,,B,132,hexagon,0.000750201001210371,,,,,,,,,1,0,,2,,,236.34087708900006,,,,,,,,,233.15409706600076,233.15409706600076,233.15409706600076,233.15409706600076,234.65612599499946,234.65612599499946,234.65612599499946,234.65612599499946,234.65612599499946,234.65612599499946,234.65612599499946,234.65612599499946,repeat,letter,lettRpt,d,0.1554388940003264,vtsPrac,0,0,234.83920142900024,,,,,,,,,,,,,,,,,,,,,,,,37688,2022-10-25_10h29.05.330,vts_reward_expectancy_bt_OFFLINE,2022.2.4,59.99429622191361,
,,,,,,,,,,,,,,,,,,,,0,0,0,0,5,0,5,0,,,,,,,,,,,,,,,,F,146,star,0.0013869069989596028,,,,,,,,,0,0,,2,,,240.59574462700039,,,,,,,,,237.32551528899967,237.32551528899967,237.32551528899967,237.32551528899967,238.8270763670007,238.8270763670007,238.8270763670007,238.8270763670007,238.8270763670007,238.8270763670007,238.8270763670007,238.8270763670007,repeat,letter,NA,f,0.24039639600050577,vtsPrac,0,0,239.09399497400045,240.59574462700039,,,,,,,,,,,,,,,,,,,,,,,37688,2022-10-25_10h29.05.330,vts_reward_expectancy_bt_OFFLINE,2022.2.4,59.99429622191361,
,,,,,,,,,,,,,,,,,,,,0,0,0,0,6,0,6,0,,,,,,,,,,,,,,,,W,125,star,0.0007328449992201058,,,,,,,,,1,1,,2,,,244.9838673710001,,,,,,,,,241.5799898690002,241.5799898690002,241.5799898690002,241.5799898690002,243.0817192249997,243.0817192249997,243.0817192249997,243.0817192249997,243.0817192249997,243.0817192249997,243.0817192249997,243.0817192249997,repeat,letter,lettRpt,f,0.3683788739999727,vtsPrac,0,0,243.48213323900018,,,,,,,,,,,,,,,,,,,,,,,,37688,2022-10-25_10h29.05.330,vts_reward_expectancy_bt_OFFLINE,2022.2.4,59.99429622191361,
,,,,,,,,,,,,,,,,,,,,0,0,0,0,7,0,7,0,,,,,,,,,,,,,,,,D,181,hexagon,0.0011281040005997056,,,,,,,,,1,0,,2,,,249.5221806770005,,,,,,,,,245.96830930100077,245.96830930100077,245.96830930100077,245.96830930100077,247.46996811099962,247.46996811099962,247.46996811099962,247.46996811099962,247.46996811099962,247.46996811099962,247.46996811099962,247.46996811099962,repeat,letter,lettRpt,d,0.5179868400009582,vtsPrac,0,0,248.02062134600055,,,,,,,,,,,,,,,,,,,,,,,,37688,2022-10-25_10h29.05.330,vts_reward_expectancy_bt_OFFLINE,2022.2.4,59.99429622191361,
,,,,,,,,,,,,,,,,,,,,0,0,0,0,8,0,8,0,,,,,,,,,,,,,,,,W,167,hexagon,0.0014108979994489346,,,,,,,,,1,0,,2,,,254.01039976500033,,,,,,,,,250.5076115259999,250.5076115259999,250.5076115259999,250.5076115259999,252.00831362600002,252.00831362600002,252.00831362600002,252.00831362600002,252.00831362600002,252.00831362600002,252.00831362600002,252.00831362600002,repeat,letter,lettRpt,f,0.4680921569997736,vtsPrac,0,0,252.50899189099982,,,,,,,,,,,,,,,,,,,,,,,,37688,2022-10-25_10h29.05.330,vts_reward_expectancy_bt_OFFLINE,2022.2.4,59.99429622191361,
,,,,,,,,,,,,,,,,,,,,0,0,0,0,9,0,9,0,,,,,,,,,,,,,,,,Y,146,hexagon,0.001171751000583754,,,,,,,,,1,0,,2,,,258.59883773600086,,,,,,,,,254.99483931199939,254.99483931199939,254.99483931199939,254.99483931199939,256.4964696040006,256.4964696040006,256.4964696040006,256.4964696040006,256.4964696040006,256.4964696040006,256.4964696040006,256.4964696040006,repeat,letter,lettRpt,f,0.5776461380010005,vtsPrac,0,0,257.0972955390007,,,,,,,,,,,,,,,,,,,,,,,,37688,2022-10-25_10h29.05.330,vts_reward_expectancy_bt_OFFLINE,2022.2.4,59.99429622191361,
,,,,,,,,,,,,,,,,,,,,0,0,0,0,10,0,10,0,,,,,,,,,,,,,,,,H,139,hexagon,0.001876811000329326,,,,,,,,,1,0,,2,,,263.0872204749994,,,,,,,,,259.5836702310007,259.5836702310007,259.5836702310007,259.5836702310007,261.0849535849993,261.0849535849993,261.0849535849993,261.0849535849993,261.0849535849993,261.0849535849993,261.0849535849993,261.0849535849993,repeat,letter,lettRpt,d,0.4694193150007777,vtsPrac,0,0,261.5855136320006,,,,,,,,,,,,,,,,,,,,,,,,37688,2022-10-25_10h29.05.330,vts_reward_expectancy_bt_OFFLINE,2022.2.4,59.99429622191361,
,,,,,,,,,,,,,,,,,,,,0,0,0,0,11,0,11,0,,,,,,,,,,,,,,,,B,160,hexagon,0.0013101170006848406,,,,,,,,,1,0,,2,,,267.74239058199964,,,,,,,,,264.0715726720009,264.0715726720009,264.0715726720009,264.0715726720009,265.57341804099997,265.57341804099997,265.57341804099997,265.57341804099997,265.57341804099997,265.57341804099997,265.57341804099997,265.57341804099997,repeat,letter,lettRpt,d,0.6372607880002761,vtsPrac,0,0,266.24077398199915,,,,,,,,,,,,,,,,,,,,,,,,37688,2022-10-25_10h29.05.330,vts_reward_expectancy_bt_OFFLINE,2022.2.4,59.99429622191361,
,,,,,,,,,,,,,,,,,,,,0,0,0,0,12,0,12,0,,,,,,,,,,,,,,,,D,174,hexagon,0.0011896220003109192,,,,,,,,,1,0,,2,,,272.2141507970009,,,,,,,,,268.7267514970008,268.7267514970008,268.7267514970008,268.7267514970008,270.2287088920002,270.2287088920002,270.2287088920002,270.2287088920002,270.2287088920002,270.2287088920002,270.2287088920002,270.2287088920002,repeat,letter,lettRpt,d,0.45335644199985836,vtsPrac,0,0,270.7124779400001,,,,,,,,,,,,,,,,,,,,,,,,37688,2022-10-25_10h29.05.330,vts_reward_expectancy_bt_OFFLINE,2022.2.4,59.99429622191361,
,,,,,,,,,,,,,,,,,,,,0,0,0,0,13,0,13,0,,,,,,,,,,,,,,,,B,146,star,0.0010982050007442012,,,,,,,,,1,0,,2,,,276.8024751110006,,,,,,,,,273.1983451849992,273.1983451849992,273.1983451849992,273.1983451849992,274.6999038289996,274.6999038289996,274.6999038289996,274.6999038289996,274.6999038289996,274.6999038289996,274.6999038289996,274.6999038289996,repeat,letter,lettRpt,d,0.5682719350006664,vtsPrac,0,0,275.30084882399933,,,,,,,,,,,,,,,,,,,,,,,,37688,2022-10-25_10h29.05.330,vts_reward_expectancy_bt_OFFLINE,2022.2.4,59.99429622191361,
,,,,,,,,,,,,,,,,,,,,0,0,0,0,14,0,14,0,,,,,,,,,,,,,,,,W,125,hexagon,0.0011638100004347507,,,,,,,,,1,0,,2,,,281.290808791,,,,,,,,,277.78681626099933,277.78681626099933,277.78681626099933,277.78681626099933,279.2883172189995,279.2883172189995,279.2883172189995,279.2883172189995,279.2883172189995,279.2883172189995,279.2883172189995,279.2883172189995,repeat,letter,lettRpt,f,0.4749000920000981,vtsPrac,0,0,279.7891153750006,,,,,,,,,,,,,,,,,,,,,,,,37688,2022-10-25_10h29.05.330,vts_reward_expectancy_bt_OFFLINE,2022.2.4,59.99429622191361,
,,,,,,,,,,,,,,,,,,,,0,0,0,0,15,0,15,0,,,,,,,,,,,,,,,,H,160,hexagon,0.0011499619995447574,,,,,,,,,1,0,,2,,,285.8289814109994,,,,,,,,,282.2750213550007,282.2750213550007,282.2750213550007,282.2750213550007,283.77685690100043,283.77685690100043,283.77685690100043,283.77685690100043,283.77685690100043,283.77685690100043,283.77685690100043,283.77685690100043,repeat,letter,lettRpt,d,0.529462123000485,vtsPrac,0,0,284.3272750420001,,,,,,,,,,,,,,,,,,,,,,,,37688,2022-10-25_10h29.05.330,vts_reward_expectancy_bt_OFFLINE,2022.2.4,59.99429622191361,
,,,,,,,,,,,,,,,,,,,,1,0,1,0,0,0,0,0,,,,,,,,,,,,,,,,S,139,star,0.0020332250005594688,,,,,,,,,1,0,,3,,,307.13568453399967,,,,,,,,,303.5655756060005,303.5655756060005,303.5655756060005,303.5655756060005,305.06670855099946,305.06670855099946,305.06670855099946,305.06670855099946,305.06670855099946,305.06670855099946,305.06670855099946,305.06670855099946,repeat,letter,lettRpt,f,0.5434723770013079,vtsPrac,0,0,305.6341058960006,,,,,,,,,,,,,,,,,,,,,,,,37688,2022-10-25_10h29.05.330,vts_reward_expectancy_bt_OFFLINE,2022.2.4,59.99429622191361,
,,,,,,,,,,,,,,,,,,,,1,0,1,0,1,0,1,0,,,,,,,,,,,,,,,,U,125,star,0.0010994770000252174,,,,,,,,,1,0,,3,,,312.1581478219996,,,,,,,,,308.12031321200084,308.12031321200084,308.12031321200084,308.12031321200084,309.62175461100014,309.62175461100014,309.62175461100014,309.62175461100014,309.62175461100014,309.62175461100014,309.62175461100014,309.62175461100014,switch,number,numSwt,j,1.004777403000844,vtsPrac,0,0,310.6564645260005,,,,,,,,,,,,,,,,,,,,,,,,37688,2022-10-25_10h29.05.330,vts_reward_expectancy_bt_OFFLINE,2022.2.4,59.99429622191361,
,,,,,,,,,,,,,,,,,,,,1,0,1,0,2,0,2,0,,,,,,,,,,,,,,,,B,181,hexagon,0.0012771129986504093,,,,,,,,,1,0,,3,,,316.6462083740007,,,,,,,,,313.14254814000014,313.14254814000014,313.14254814000014,313.14254814000014,314.6440186840009,314.6440186840009,314.6440186840009,314.6440186840009,314.6440186840009,314.6440186840009,314.6440186840009,314.6440186840009,switch,letter,lettSwt,d,0.4712639230001514,vtsPrac,0,0,315.1446443490004,,,,,,,,,,,,,,,,,,,,,,,,37688,2022-10-25_10h29.05.330,vts_reward_expectancy_bt_OFFLINE,2022.2.4,59.99429622191361,
,,,,,,,,,,,,,,,,,,,,1,0,1,0,3,0,3,0,,,,,,,,,,,,,,,,D,174,hexagon,0.0012567559988383437,,,,,,,,,1,0,,3,,,321.23471349099964,,,,,,,,,317.63078439499986,317.63078439499986,317.63078439499986,317.63078439499986,319.13243388699993,319.13243388699993,319.13243388699993,319.13243388699993,319.13243388699993,319.13243388699993,319.13243388699993,319.13243388699993,switch,number,numSwt,k,0.5678206770007819,vtsPrac,0,0,319.73332664400004,,,,,,,,,,,,,,,,,,,,,,,,37688,2022-10-25_10h29.05.330,vts_reward_expectancy_bt_OFFLINE,2022.2.4,59.99429622191361,
,,,,,,,,,,,,,,,,,,,,1,0,1,0,4,0,4,0,,,,,,,,,,,,,,,,S,139,star,0.0013856899986421922,,,,,,,,,1,0,,3,,,325.7395397250002,,,,,,,,,322.21908700099993,322.21908700099993,322.21908700099993,322.21908700099993,323.7207495870007,323.7207495870007,323.7207495870007,323.7207495870007,323.7207495870007,323.7207495870007,323.7207495870007,323.7207495870007,switch,letter,lettSwt,f,0.4902483250007208,vtsPrac,0,0,324.2379441150006,,,,,,,,,,,,,,,,,,,,,,,,37688,2022-10-25_10h29.05.330,vts_reward_expectancy_bt_OFFLINE,2022.2.4,59.99429622191361,
,,,,,,,,,,,,,,,,,,,,1,0,1,0,5,0,5,0,,,,,,,,,,,,,,,,U,125,star,0.0013595510008599376,,,,,,,,,0,0,,3,,,330.42798728900016,,,,,,,,,326.7241209090007,326.7241209090007,326.7241209090007,326.7241209090007,328.225712337,328.225712337,328.225712337,328.225712337,328.225712337,328.225712337,328.225712337,328.225712337,switch,number,NA,k,0.6735130910001317,vtsPrac,0,0,328.92642648999936,,,,,,,,,,,,,,,,,,,,,,,,37688,2022-10-25_10h29.05.330,vts_reward_expectancy_bt_OFFLINE,2022.2.4,59.99429622191361,
,,,,,,,,,,,,,,,,,,,,1,0,1,0,6,0,6,0,,,,,,,,,,,,,,,,B,181,star,0.0014199540000845445,,,,,,,,,1,1,,3,,,335.35038057699967,,,,,,,,,331.4126245789994,331.4126245789994,331.4126245789994,331.4126245789994,332.91418336400056,332.91418336400056,332.91418336400056,332.91418336400056,332.91418336400056,332.91418336400056,332.91418336400056,332.91418336400056,repeat,number,numRpt,k,0.91288551100115,vtsPrac,0,0,333.8488032660007,,,,,,,,,,,,,,,,,,,,,,,,37688,2022-10-25_10h29.05.330,vts_reward_expectancy_bt_OFFLINE,2022.2.4,59.99429622191361,
,,,,,,,,,,,,,,,,,,,,1,0,1,0,7,0,7,0,,,,,,,,,,,,,,,,D,174,hexagon,0.00122358899898245,,,,,,,,,0,0,,3,,,340.38919487400017,,,,,,,,,336.3347951760006,336.3347951760006,336.3347951760006,336.3347951760006,337.83639321100054,337.83639321100054,337.83639321100054,337.83639321100054,337.83639321100054,337.83639321100054,337.83639321100054,337.83639321100054,switch,letter,NA,f,1.023203872000522,vtsPrac,0,0,338.8875994259997,,,,,,,,,,,,,,,,,,,,,,,,37688,2022-10-25_10h29.05.330,vts_reward_expectancy_bt_OFFLINE,2022.2.4,59.99429622191361,
,,,,,,,,,,,,,,,,,,,,1,0,1,0,8,0,8,0,,,,,,,,,,,,,,,,U,167,hexagon,0.0013655490001838189,,,,,,,,,1,1,,3,,,345.4448282840003,,,,,,,,,341.37355897400084,341.37355897400084,341.37355897400084,341.37355897400084,342.8753303909998,342.8753303909998,342.8753303909998,342.8753303909998,342.8753303909998,342.8753303909998,342.8753303909998,342.8753303909998,repeat,letter,lettRpt,f,1.0401607759995386,vtsPrac,0,0,343.9429269550001,,,,,,,,,,,,,,,,,,,,,,,,37688,2022-10-25_10h29.05.330,vts_reward_expectancy_bt_OFFLINE,2022.2.4,59.99429622191361,
,,,,,,,,,,,,,,,,,,,,1,0,1,0,9,0,9,0,,,,,,,,,,,,,,,,F,132,hexagon,0.0011961729996983195,,,,,,,,,1,0,,3,,,350.1999964049992,,,,,,,,,346.4290274499999,346.4290274499999,346.4290274499999,346.4290274499999,347.93076059899977,347.93076059899977,347.93076059899977,347.93076059899977,347.93076059899977,347.93076059899977,347.93076059899977,347.93076059899977,switch,number,numSwt,j,0.7354545920006785,vtsPrac,0,0,348.6984106609998,,,,,,,,,,,,,,,,,,,,,,,,37688,2022-10-25_10h29.05.330,vts_reward_expectancy_bt_OFFLINE,2022.2.4,59.99429622191361,
,,,,,,,,,,,,,,,,,,,,1,0,1,0,10,0,10,0,,,,,,,,,,,,,,,,B,139,hexagon,0.001162099999419297,,,,,,,,,1,0,,3,,,355.07204165999974,,,,,,,,,351.1844501209998,351.1844501209998,351.1844501209998,351.1844501209998,352.76958882100007,352.76958882100007,352.76958882100007,352.76958882100007,352.76958882100007,352.76958882100007,352.76958882100007,352.76958882100007,switch,letter,lettSwt,d,0.7687726420008403,vtsPrac,0,0,353.57033890000093,,,,,,,,,,,,,,,,,,,,,,,,37688,2022-10-25_10h29.05.330,vts_reward_expectancy_bt_OFFLINE,2022.2.4,59.99429622191361,
,,,,,,,,,,,,,,,,,,,,1,0,1,0,11,0,11,0,,,,,,,,,,,,,,,,H,174,star,0.0012338870001258329,,,,,,,,,1,0,,3,,,359.82742950099964,,,,,,,,,356.05661331400006,356.05661331400006,356.05661331400006,356.05661331400006,357.55821986999945,357.55821986999945,357.55821986999945,357.55821986999945,357.55821986999945,357.55821986999945,357.55821986999945,357.55821986999945,switch,number,numSwt,k,0.7401622460020008,vtsPrac,0,0,358.32569034600056,,,,,,,,,,,,,,,,,,,,,,,,37688,2022-10-25_10h29.05.330,vts_reward_expectancy_bt_OFFLINE,2022.2.4,59.99429622191361,
,,,,,,,,,,,,,,,,,,,,1,0,1,0,12,0,12,0,,,,,,,,,,,,,,,,B,132,hexagon,0.0011400499988667434,,,,,,,,,1,0,,3,,,364.99964561100023,,,,,,,,,360.81184668400056,360.81184668400056,360.81184668400056,360.81184668400056,362.3133601289992,362.3133601289992,362.3133601289992,362.3133601289992,362.3133601289992,362.3133601289992,362.3133601289992,362.3133601289992,switch,letter,lettSwt,d,1.1616339680003875,vtsPrac,0,0,363.4979105399998,,,,,,,,,,,,,,,,,,,,,,,,37688,2022-10-25_10h29.05.330,vts_reward_expectancy_bt_OFFLINE,2022.2.4,59.99429622191361,
,,,,,,,,,,,,,,,,,,,,1,0,1,0,13,0,13,0,,,,,,,,,,,,,,,,Y,167,hexagon,0.001417383000443806,,,,,,,,,1,0,,3,,,369.6214924420001,,,,,,,,,365.98392016099933,365.98392016099933,365.98392016099933,365.98392016099933,367.48578253599953,367.48578253599953,367.48578253599953,367.48578253599953,367.48578253599953,367.48578253599953,367.48578253599953,367.48578253599953,switch,number,numSwt,k,0.6131011810011842,vtsPrac,0,0,368.1197613160002,,,,,,,,,,,,,,,,,,,,,,,,37688,2022-10-25_10h29.05.330,vts_reward_expectancy_bt_OFFLINE,2022.2.4,59.99429622191361,
,,,,,,,,,,,,,,,,,,,,1,0,1,0,14,0,14,0,,,,,,,,,,,,,,,,W,174,star,0.0012850329985667486,,,,,,,,,1,0,,3,,,374.5100591160008,,,,,,,,,370.6058757459996,370.6058757459996,370.6058757459996,370.6058757459996,372.10759938199953,372.10759938199953,372.10759938199953,372.10759938199953,372.10759938199953,372.10759938199953,372.10759938199953,372.10759938199953,switch,letter,lettSwt,f,0.8711880350001593,vtsPrac,0,0,373.00854893699943,,,,,,,,,,,,,,,,,,,,,,,,37688,2022-10-25_10h29.05.330,vts_reward_expectancy_bt_OFFLINE,2022.2.4,59.99429622191361,
,,,,,,,,,,,,,,,,,,,,1,0,1,0,15,0,15,0,,,,,,,,,,,,,,,,S,125,star,0.0014992619999247836,,,,,,,,,1,0,,3,,,378.98147133900056,,,,,,,,,375.494783524,375.494783524,375.494783524,375.494783524,376.9960464190008,376.9960464190008,376.9960464190008,376.9960464190008,376.9960464190008,376.9960464190008,376.9960464190008,376.9960464190008,switch,number,numSwt,j,0.4625974270002189,vtsPrac,0,0,377.4799901210008,,,,,,,,,,,,,,,,,,,,,,,,37688,2022-10-25_10h29.05.330,vts_reward_expectancy_bt_OFFLINE,2022.2.4,59.99429622191361,
,,,,,,,,,,,,,,,,,,,,2,0,2,0,0,0,0,0,,,,,,,,,,,,,,,,F,167,hexagon,0.0020388380016811425,,,,,,,,,1,0,,4,,,414.50416009500077,,,,,,,,,410.80027107500064,410.80027107500064,410.80027107500064,410.80027107500064,412.30192672200064,412.30192672200064,412.30192672200064,412.30192672200064,412.30192672200064,412.30192672200064,412.30192672200064,412.30192672200064,switch,letter,lettSwt,d,0.6683507460020337,vtsPrac,0,0,413.0025490219996,,,,,,,,,,,,,,,,,,,,,,,,37688,2022-10-25_10h29.05.330,vts_reward_expectancy_bt_OFFLINE,2022.2.4,59.99429622191361,
,,,,,,,,,,,,,,,,,,,,2,0,2,0,1,0,1,0,,,,,,,,,,,,,,,,D,160,star,0.001178780999907758,,,,,,,,,1,0,,4,,,419.77699025999937,,,,,,,,,415.4885213760008,415.4885213760008,415.4885213760008,415.4885213760008,416.99038640099934,416.99038640099934,416.99038640099934,416.99038640099934,416.99038640099934,416.99038640099934,416.99038640099934,416.99038640099934,repeat,letter,lettRpt,d,1.2524011559999053,vtsPrac,0,0,418.27492406700003,,,,,,,,,,,,,,,,,,,,,,,,37688,2022-10-25_10h29.05.330,vts_reward_expectancy_bt_OFFLINE,2022.2.4,59.99429622191361,
,,,,,,,,,,,,,,,,,,,,2,0,2,0,2,0,2,0,,,,,,,,,,,,,,,,W,139,star,0.0015682129997003358,,,,,,,,,1,0,,4,,,424.23172861400053,,,,,,,,,420.76122532000045,420.76122532000045,420.76122532000045,420.76122532000045,422.2628124599996,422.2628124599996,422.2628124599996,422.2628124599996,422.2628124599996,422.2628124599996,422.2628124599996,422.2628124599996,repeat,letter,lettRpt,f,0.43599371500022244,vtsPrac,0,0,422.73011841100015,424.23172861400053,,,,,,,,,,,,,,,,,,,,,,,37688,2022-10-25_10h29.05.330,vts_reward_expectancy_bt_OFFLINE,2022.2.4,59.99429622191361,
,,,,,,,,,,,,,,,,,,,,2,0,2,0,3,0,3,0,,,,,,,,,,,,,,,,U,146,star,0.0009725620002427604,,,,,,,,,1,0,,4,,,429.17038882499946,,,,,,,,,425.2164475739992,425.2164475739992,425.2164475739992,425.2164475739992,426.71750473999964,426.71750473999964,426.71750473999964,426.71750473999964,426.71750473999964,426.71750473999964,426.71750473999964,426.71750473999964,switch,number,numSwt,j,0.9188608980002755,vtsPrac,0,0,427.66858619699997,,,,,,,,,,,,,,,,,,,,,,,,37688,2022-10-25_10h29.05.330,vts_reward_expectancy_bt_OFFLINE,2022.2.4,59.99429622191361,
,,,,,,,,,,,,,,,,,,,,2,0,2,0,4,0,4,0,,,,,,,,,,,,,,,,F,167,star,0.0012241799995535985,,,,,,,,,1,0,,4,,,433.67536110999936,,,,,,,,,430.1550171359995,430.1550171359995,430.1550171359995,430.1550171359995,431.65655895599957,431.65655895599957,431.65655895599957,431.65655895599957,431.65655895599957,431.65655895599957,431.65655895599957,431.65655895599957,repeat,number,numRpt,k,0.49031386400019983,vtsPrac,0,0,432.1738246719997,,,,,,,,,,,,,,,,,,,,,,,,37688,2022-10-25_10h29.05.330,vts_reward_expectancy_bt_OFFLINE,2022.2.4,59.99429622191361,
,,,,,,,,,,,,,,,,,,,,2,0,2,0,5,0,5,0,,,,,,,,,,,,,,,,D,160,hexagon,0.0014521249995596008,,,,,,,,,1,0,,4,,,438.2472964869994,,,,,,,,,434.65984748700066,434.65984748700066,434.65984748700066,434.65984748700066,436.16158614400047,436.16158614400047,436.16158614400047,436.16158614400047,436.16158614400047,436.16158614400047,436.16158614400047,436.16158614400047,repeat,number,numRpt,k,0.5611861899997166,vtsPrac,0,0,436.7454169970006,,,,,,,,,,,,,,,,,,,,,,,,37688,2022-10-25_10h29.05.330,vts_reward_expectancy_bt_OFFLINE,2022.2.4,59.99429622191361,
,,,,,,,,,,,,,,,,,,,,2,0,2,0,6,0,6,0,,,,,,,,,,,,,,,,W,139,star,0.0012422820000210777,,,,,,,,,1,0,,4,,,443.9700223809996,444.47073343400007,,,,,,,,439.2317203319999,439.2317203319999,439.2317203319999,439.2317203319999,440.7331833389999,440.7331833389999,440.7331833389999,440.7331833389999,440.7331833389999,440.7331833389999,440.7331833389999,440.7331833389999,switch,letter,lettSwt,f,1.7188910090007994,vtsPrac,0,0,442.4685785389993,443.9700223809996,,,,,,,,,,,,,,,,,,,,,,,37688,2022-10-25_10h29.05.330,vts_reward_expectancy_bt_OFFLINE,2022.2.4,59.99429622191361,
,,,,,,,,,,,,,,,,,,,,2,0,2,0,7,0,7,0,,,,,,,,,,,,,,,,U,146,hexagon,0.0007364140001300257,,,,,,,,,0,0,,4,,,448.8755895409995,,,,,,,,,444.9546082119996,444.9546082119996,444.9546082119996,444.9546082119996,446.45598008100023,446.45598008100023,446.45598008100023,446.45598008100023,446.45598008100023,446.45598008100023,446.45598008100023,446.45598008100023,repeat,letter,NA,d,0.8908216550007637,vtsPrac,0,0,447.3738287420001,,,,,,,,,,,,,,,,,,,,,,,,37688,2022-10-25_10h29.05.330,vts_reward_expectancy_bt_OFFLINE,2022.2.4,59.99429622191361,
,,,,,,,,,,,,,,,,,,,,2,0,2,0,8,0,8,0,,,,,,,,,,,,,,,,U,167,star,0.0014303509997262154,,,,,,,,,1,1,,4,,,453.8309754290003,,,,,,,,,449.85997438100094,449.85997438100094,449.85997438100094,449.85997438100094,451.3616418950005,451.3616418950005,451.3616418950005,451.3616418950005,451.3616418950005,451.3616418950005,451.3616418950005,451.3616418950005,repeat,letter,lettRpt,f,0.9452958319998288,vtsPrac,0,0,452.329581729,,,,,,,,,,,,,,,,,,,,,,,,37688,2022-10-25_10h29.05.330,vts_reward_expectancy_bt_OFFLINE,2022.2.4,59.99429622191361,
,,,,,,,,,,,,,,,,,,,,2,0,2,0,9,0,9,0,,,,,,,,,,,,,,,,S,125,hexagon,0.001404127000569133,,,,,,,,,1,0,,4,,,458.60306382400086,,,,,,,,,454.8155244690006,454.8155244690006,454.8155244690006,454.8155244690006,456.3170990710005,456.3170990710005,456.3170990710005,456.3170990710005,456.3170990710005,456.3170990710005,456.3170990710005,456.3170990710005,switch,number,numSwt,j,0.7578616209993925,vtsPrac,0,0,457.10126143399975,,,,,,,,,,,,,,,,,,,,,,,,37688,2022-10-25_10h29.05.330,vts_reward_expectancy_bt_OFFLINE,2022.2.4,59.99429622191361,
,,,,,,,,,,,,,,,,,,,,2,0,2,0,10,0,10,0,,,,,,,,,,,,,,,,D,146,star,0.001246444999196683,,,,,,,,,1,0,,4,,,463.40838896400055,,,,,,,,,459.58730728000046,459.58730728000046,459.58730728000046,459.58730728000046,461.08911009700023,461.08911009700023,461.08911009700023,461.08911009700023,461.08911009700023,461.08911009700023,461.08911009700023,461.08911009700023,repeat,number,numRpt,j,0.785394892001932,vtsPrac,0,0,461.906569797,,,,,,,,,,,,,,,,,,,,,,,,37688,2022-10-25_10h29.05.330,vts_reward_expectancy_bt_OFFLINE,2022.2.4,59.99429622191361,
,,,,,,,,,,,,,,,,,,,,2,0,2,0,11,0,11,0,,,,,,,,,,,,,,,,Y,139,hexagon,0.001547365000078571,,,,,,,,,1,0,,4,,,468.28021425599945,,,,,,,,,464.3926306449994,464.3926306449994,464.3926306449994,464.3926306449994,465.89441395200083,465.89441395200083,465.89441395200083,465.89441395200083,465.89441395200083,465.89441395200083,465.89441395200083,465.89441395200083,repeat,number,numRpt,j,0.8520547869993607,vtsPrac,0,0,466.77881069199975,,,,,,,,,,,,,,,,,,,,,,,,37688,2022-10-25_10h29.05.330,vts_reward_expectancy_bt_OFFLINE,2022.2.4,59.99429622191361,
,,,,,,,,,,,,,,,,,,,,2,0,2,0,12,0,12,0,,,,,,,,,,,,,,,,D,146,hexagon,0.0010560450009506894,,,,,,,,,1,0,,4,,,473.70281769599933,,,,,,,,,469.26461980100066,469.26461980100066,469.26461980100066,469.26461980100066,470.7662519400001,470.7662519400001,470.7662519400001,470.7662519400001,470.7662519400001,470.7662519400001,470.7662519400001,470.7662519400001,switch,letter,lettSwt,d,1.4126728070004901,vtsPrac,0,0,472.2011867860001,,,,,,,,,,,,,,,,,,,,,,,,37688,2022-10-25_10h29.05.330,vts_reward_expectancy_bt_OFFLINE,2022.2.4,59.99429622191361,
,,,,,,,,,,,,,,,,,,,,2,0,2,0,13,0,13,0,,,,,,,,,,,,,,,,F,160,star,0.0012663150009757373,,,,,,,,,1,0,,4,,,478.39156854000066,,,,,,,,,474.6874644870004,474.6874644870004,474.6874644870004,474.6874644870004,476.18908584199926,476.18908584199926,476.18908584199926,476.18908584199926,476.18908584199926,476.18908584199926,476.18908584199926,476.18908584199926,repeat,letter,lettRpt,d,0.6776972719999321,vtsPrac,0,0,476.8898003289996,,,,,,,,,,,,,,,,,,,,,,,,37688,2022-10-25_10h29.05.330,vts_reward_expectancy_bt_OFFLINE,2022.2.4,59.99429622191361,
,,,,,,,,,,,,,,,,,,,,2,0,2,0,14,0,14,0,,,,,,,,,,,,,,,,W,181,hexagon,0.0010719139991124393,,,,,,,,,1,0,,4,,,483.5972108170008,,,,,,,,,479.3757743240003,479.3757743240003,479.3757743240003,479.3757743240003,480.8775818390004,480.8775818390004,480.8775818390004,480.8775818390004,480.8775818390004,480.8775818390004,480.8775818390004,480.8775818390004,repeat,letter,lettRpt,f,1.1902358120005374,vtsPrac,0,0,482.09547337500044,,,,,,,,,,,,,,,,,,,,,,,,37688,2022-10-25_10h29.05.330,vts_reward_expectancy_bt_OFFLINE,2022.2.4,59.99429622191361,
,,,,,,,,,,,,,,,,,,,,2,0,2,0,15,0,15,0,,,,,,,,,,,,,,,,H,174,star,0.0013834380006301217,,,,,,,,,1,0,,4,,,488.3526425639993,,,,,,,,,484.5815852550004,484.5815852550004,484.5815852550004,484.5815852550004,486.08329253100055,486.08329253100055,486.08329253100055,486.08329253100055,486.08329253100055,486.08329253100055,486.08329253100055,486.08329253100055,switch,number,numSwt,k,0.735387171000184,vtsPrac,0,0,486.85076209699946,,,,,,,,,,,,,,,,,,,,,,,,37688,2022-10-25_10h29.05.330,vts_reward_expectancy_bt_OFFLINE,2022.2.4,59.99429622191361,
,,,,,,,,,,,,,,,,,,,,,,,,,,,,0,0,0,0,,,,,,,,,,,,S,174,star,0.0024364439996134024,,,,,,,,,1,0,,,,,562.8847158009994,,,,,,,,,558.7633435869993,558.7633435869993,558.7633435869993,558.7633435869993,560.2649358939998,560.2649358939998,560.2649358939998,560.2649358939998,560.2649358939998,560.2649358939998,560.2649358939998,560.2649358939998,switch,letter,lettSwt,f,1.0910840900014591,noRew,0,0,,,0,561.382951996,,,,,,,,,,,,,,,,,,,,,37688,2022-10-25_10h29.05.330,vts_reward_expectancy_bt_OFFLINE,2022.2.4,59.99429622191361,
,,,,,,,,,,,,,,,,,,,,,,,,,,,,1,0,1,0,,,,,,,,,,,,W,146,hexagon,0.0009560300004523015,,,,,,,,,1,0,,,,,567.7399710049995,,,,,,,,,563.8689834819997,563.8689834819997,563.8689834819997,563.8689834819997,565.3707837649999,565.3707837649999,565.3707837649999,565.3707837649999,565.3707837649999,565.3707837649999,565.3707837649999,565.3707837649999,repeat,letter,lettRpt,f,0.8486401960017247,noRew,0,0,,,0,566.2382597870001,567.7399710049995,,,,,,,,,,,,,,,,,,,,37688,2022-10-25_10h29.05.330,vts_reward_expectancy_bt_OFFLINE,2022.2.4,59.99429622191361,
,,,,,,,,,,,,,,,,,,,,,,,,,,,,2,0,2,0,,,,,,,,,,,,B,160,star,0.0012928320011269534,,,,,,,,,1,0,,,,,572.7455311649992,,,,,,,,,568.7243512290006,568.7243512290006,568.7243512290006,568.7243512290006,570.2261742570008,570.2261742570008,570.2261742570008,570.2261742570008,570.2261742570008,570.2261742570008,570.2261742570008,570.2261742570008,switch,number,numSwt,k,0.9851717830006237,noRew,0,0,,,0,571.2439224610007,,,,,,,,,,,,,,,,,,,,,37688,2022-10-25_10h29.05.330,vts_reward_expectancy_bt_OFFLINE,2022.2.4,59.99429622191361,
,,,,,,,,,,,,,,,,,,,,,,,,,,,,3,0,3,0,,,,,,,,,,,,U,125,star,0.001187366000522161,,,,,,,,,1,0,,,,,577.5175480599992,,,,,,,,,573.7297929550004,573.7297929550004,573.7297929550004,573.7297929550004,575.2316275770008,575.2316275770008,575.2316275770008,575.2316275770008,575.2316275770008,575.2316275770008,575.2316275770008,575.2316275770008,repeat,number,numRpt,j,0.7560121200003778,noRew,0,0,,,0,576.0158308650007,,,,,,,,,,,,,,,,,,,,,37688,2022-10-25_10h29.05.330,vts_reward_expectancy_bt_OFFLINE,2022.2.4,59.99429622191361,
,,,,,,,,,,,,,,,,,,,,,,,,,,,,4,0,4,0,,,,,,,,,,,,S,174,star,0.0012725759988825303,,,,,,,,,1,0,,,,,582.1226509450007,,,,,,,,,578.5018868709994,578.5018868709994,578.5018868709994,578.5018868709994,580.0035359609992,580.0035359609992,580.0035359609992,580.0035359609992,580.0035359609992,580.0035359609992,580.0035359609992,580.0035359609992,switch,letter,lettSwt,f,0.590824942000836,noRew,0,0,,,0,580.6205774259997,,,,,,,,,,,,,,,,,,,,,37688,2022-10-25_10h29.05.330,vts_reward_expectancy_bt_OFFLINE,2022.2.4,59.99429622191361,
,,,,,,,,,,,,,,,,,,,,,,,,,,,,5,0,5,0,,,,,,,,,,,,W,146,star,0.00136583099993004,,,,,,,,,1,0,,,,,587.0447592849996,,,,,,,,,583.1070814939994,583.1070814939994,583.1070814939994,583.1070814939994,584.6087464070006,584.6087464070006,584.6087464070006,584.6087464070006,584.6087464070006,584.6087464070006,584.6087464070006,584.6087464070006,repeat,letter,lettRpt,f,0.9137043010014168,noRew,0,0,,,0,585.5428506339995,,,,,,,,,,,,,,,,,,,,,37688,2022-10-25_10h29.05.330,vts_reward_expectancy_bt_OFFLINE,2022.2.4,59.99429622191361,
,,,,,,,,,,,,,,,,,,,,,,,,,,,,6,0,6,0,,,,,,,,,,,,B,160,star,0.0016630560003250139,,,,,,,,,0,0,,,,,592.3503162659999,,,,,,,,,588.0289773700006,588.0289773700006,588.0289773700006,588.0289773700006,589.5307612220004,589.5307612220004,589.5307612220004,589.5307612220004,589.5307612220004,589.5307612220004,589.5307612220004,589.5307612220004,switch,number,NA,j,1.2964412290002656,noRew,0,0,,,0,590.8485874020007,592.3503162659999,,,,,,,,,,,,,,,,,,,,37688,2022-10-25_10h29.05.330,vts_reward_expectancy_bt_OFFLINE,2022.2.4,59.99429622191361,
,,,,,,,,,,,,,,,,,,,,,,,,,,,,7,0,7,0,,,,,,,,,,,,U,125,hexagon,0.0010931820015684934,,,,,,,,,1,1,,,,,597.0888786470005,,,,,,,,,593.3348414110005,593.3348414110005,593.3348414110005,593.3348414110005,594.8363893410005,594.8363893410005,594.8363893410005,594.8363893410005,594.8363893410005,594.8363893410005,594.8363893410005,594.8363893410005,repeat,number,numRpt,j,0.7185121740003524,noRew,0,0,,,0,595.5873292150009,597.0888786470005,,,,,,,,,,,,,,,,,,,,37688,2022-10-25_10h29.05.330,vts_reward_expectancy_bt_OFFLINE,2022.2.4,59.99429622191361,
,,,,,,,,,,,,,,,,,,,,,,,,,,,,8,0,8,0,,,,,,,,,,,,B,174,hexagon,0.0011379789993952727,,,,,,,,,1,0,,,,,601.7443602059993,,,,,,,,,598.0733062420004,598.0733062420004,598.0733062420004,598.0733062420004,599.5753198410002,599.5753198410002,599.5753198410002,599.5753198410002,599.5753198410002,599.5753198410002,599.5753198410002,599.5753198410002,switch,letter,lettSwt,d,0.6349269399997866,noRew,0,0,,,0,600.2425240859993,601.7443602059993,,,,,,,,,,,,,,,,,,,,37688,2022-10-25_10h29.05.330,vts_reward_expectancy_bt_OFFLINE,2022.2.4,59.99429622191361,
,,,,,,,,,,,,,,,,,,,,,,,,,,,,9,0,9,0,,,,,,,,,,,,D,146,star,0.0014555480011040345,,,,,,,,,1,0,,,,,606.2993469089997,,,,,,,,,602.7284099499993,602.7284099499993,602.7284099499993,602.7284099499993,604.2304183550004,604.2304183550004,604.2304183550004,604.2304183550004,604.2304183550004,604.2304183550004,604.2304183550004,604.2304183550004,repeat,letter,lettRpt,d,0.5494438910009194,noRew,0,0,,,0,604.7976768570006,606.2993469089997,,,,,,,,,,,,,,,,,,,,37688,2022-10-25_10h29.05.330,vts_reward_expectancy_bt_OFFLINE,2022.2.4,59.99429622191361,
,,,,,,,,,,,,,,,,,,,,,,,,,,,,10,0,10,0,,,,,,,,,,,,S,139,hexagon,0.0009135810014413437,,,,,,,,,1,0,,,,,611.1713680240009,,,,,,,,,607.2836147149992,607.2836147149992,607.2836147149992,607.2836147149992,608.7853765540003,608.7853765540003,608.7853765540003,608.7853765540003,608.7853765540003,608.7853765540003,608.7853765540003,608.7853765540003,switch,number,numSwt,j,0.8514195790012309,noRew,0,0,,,0,609.6695424770005,,,,,,,,,,,,,,,,,,,,,37688,2022-10-25_10h29.05.330,vts_reward_expectancy_bt_OFFLINE,2022.2.4,59.99429622191361,
,,,,,,,,,,,,,,,,,,,,,,,,,,,,11,0,11,0,,,,,,,,,,,,H,181,hexagon,0.001494666999860783,,,,,,,,,1,0,,,,,616.1435060660006,,,,,,,,,612.1557786699996,612.1557786699996,612.1557786699996,612.1557786699996,613.6574397620006,613.6574397620006,613.6574397620006,613.6574397620006,613.6574397620006,613.6574397620006,613.6574397620006,613.6574397620006,repeat,number,numRpt,k,0.9612186400008795,noRew,0,0,,,0,614.6418349609994,,,,,,,,,,,,,,,,,,,,,37688,2022-10-25_10h29.05.330,vts_reward_expectancy_bt_OFFLINE,2022.2.4,59.99429622191361,
,,,,,,,,,,,,,,,,,,,,,,,,,,,,12,0,12,0,,,,,,,,,,,,W,132,hexagon,0.0012193610000394983,,,,,,,,,1,0,,,,,620.9653549720006,,,,,,,,,617.1277501469995,617.1277501469995,617.1277501469995,617.1277501469995,618.6294405389999,618.6294405389999,618.6294405389999,618.6294405389999,618.6294405389999,618.6294405389999,618.6294405389999,618.6294405389999,switch,letter,lettSwt,f,0.8062710130016058,noRew,0,0,,,0,619.4636009990008,,,,,,,,,,,,,,,,,,,,,37688,2022-10-25_10h29.05.330,vts_reward_expectancy_bt_OFFLINE,2022.2.4,59.99429622191361,
,,,,,,,,,,,,,,,,,,,,,,,,,,,,13,0,13,0,,,,,,,,,,,,D,174,star,0.0012616599997272715,,,,,,,,,1,0,,,,,626.0044173850001,,,,,,,,,621.9497312300009,621.9497312300009,621.9497312300009,621.9497312300009,623.4512915110008,623.4512915110008,623.4512915110008,623.4512915110008,623.4512915110008,623.4512915110008,623.4512915110008,623.4512915110008,repeat,letter,lettRpt,d,1.024256566999611,noRew,0,0,,,0,624.5028716399993,626.0044173850001,,,,,,,,,,,,,,,,,,,,37688,2022-10-25_10h29.05.330,vts_reward_expectancy_bt_OFFLINE,2022.2.4,59.99429622191361,
,,,,,,,,,,,,,,,,,,,,,,,,,,,,14,0,14,0,,,,,,,,,,,,B,160,hexagon,0.0008401019986195024,,,,,,,,,1,0,,,,,631.1266332790001,,,,,,,,,626.9888877249996,626.9888877249996,626.9888877249996,626.9888877249996,628.4905290250008,628.4905290250008,628.4905290250008,628.4905290250008,628.4905290250008,628.4905290250008,628.4905290250008,628.4905290250008,switch,number,numSwt,k,1.112054581000848,noRew,0,0,,,0,629.6250016470003,631.1266332790001,,,,,,,,,,,,,,,,,,,,37688,2022-10-25_10h29.05.330,vts_reward_expectancy_bt_OFFLINE,2022.2.4,59.99429622191361,
,,,,,,,,,,,,,,,,,,,,,,,,,,,,15,0,15,0,,,,,,,,,,,,U,125,star,0.0013584109983639792,,,,,,,,,1,0,,,,,635.7316834619996,,,,,,,,,632.1110460060008,632.1110460060008,632.1110460060008,632.1110460060008,633.6128026869992,633.6128026869992,633.6128026869992,633.6128026869992,633.6128026869992,633.6128026869992,633.6128026869992,633.6128026869992,repeat,number,numRpt,j,0.5988370049999503,noRew,0,0,,,0,634.2301671290006,635.7316834619996,,,,,,,,,,,,,,,,,,,,37688,2022-10-25_10h29.05.330,vts_reward_expectancy_bt_OFFLINE,2022.2.4,59.99429622191361,
,,,,,,,,,,,,,,,,,,,,,,,,,,,,16,0,16,0,,,,,,,,,,,,F,132,star,0.0013340109999262495,,,,,,,,,1,0,,,,,641.3711399919994,,,,,,,,,636.7161839719993,636.7161839719993,636.7161839719993,636.7161839719993,638.2177605220004,638.2177605220004,638.2177605220004,638.2177605220004,638.2177605220004,638.2177605220004,638.2177605220004,638.2177605220004,switch,letter,lettSwt,d,1.6249885290017119,noRew,0,0,,,0,639.8695229900004,641.3711399919994,,,,,,,,,,,,,,,,,,,,37688,2022-10-25_10h29.05.330,vts_reward_expectancy_bt_OFFLINE,2022.2.4,59.99429622191361,
,,,,,,,,,,,,,,,,,,,,,,,,,,,,17,0,17,0,,,,,,,,,,,,H,146,hexagon,0.0012013800005661324,,,,,,,,,1,0,,,,,645.9431572510002,,,,,,,,,642.355712300001,642.355712300001,642.355712300001,642.355712300001,643.8571834600007,643.8571834600007,643.8571834600007,643.8571834600007,643.8571834600007,643.8571834600007,643.8571834600007,643.8571834600007,repeat,letter,lettRpt,d,0.5610853870002757,noRew,0,0,,,0,644.4415332570006,,,,,,,,,,,,,,,,,,,,,37688,2022-10-25_10h29.05.330,vts_reward_expectancy_bt_OFFLINE,2022.2.4,59.99429622191361,
,,,,,,,,,,,,,,,,,,,,,,,,,,,,18,0,18,0,,,,,,,,,,,,B,167,hexagon,0.0014953420013625873,,,,,,,,,1,0,,,,,650.9819301110001,,,,,,,,,646.9275030169993,646.9275030169993,646.9275030169993,646.9275030169993,648.4291634900001,648.4291634900001,648.4291634900001,648.4291634900001,648.4291634900001,648.4291634900001,648.4291634900001,648.4291634900001,switch,number,numSwt,k,1.029955965001136,noRew,0,0,,,0,649.4801225669999,,,,,,,,,,,,,,,,,,,,,37688,2022-10-25_10h29.05.330,vts_reward_expectancy_bt_OFFLINE,2022.2.4,59.99429622191361,
,,,,,,,,,,,,,,,,,,,,,,,,,,,,19,0,19,0,,,,,,,,,,,,W,139,hexagon,0.0013670799999090377,,,,,,,,,1,0,,,,,656.3042911009998,,,,,,,,,651.966494151,651.966494151,651.966494151,651.966494151,653.4678794350002,653.4678794350002,653.4678794350002,653.4678794350002,653.4678794350002,653.4678794350002,653.4678794350002,653.4678794350002,repeat,number,numRpt,j,1.3026458109998202,noRew,0,0,,,0,654.8028322650007,656.3042911009998,,,,,,,,,,,,,,,,,,,,37688,2022-10-25_10h29.05.330,vts_reward_expectancy_bt_OFFLINE,2022.2.4,59.99429622191361,
,,,,,,,,,,,,,,,,,,,,,,,,,,,,20,0,20,0,,,,,,,,,,,,H,167,hexagon,0.0012365570000838488,,,,,,,,,1,0,,,,,660.9929466390004,,,,,,,,,657.2887562169999,657.2887562169999,657.2887562169999,657.2887562169999,658.7904144660006,658.7904144660006,658.7904144660006,658.7904144660006,658.7904144660006,658.7904144660006,658.7904144660006,658.7904144660006,switch,letter,lettSwt,d,0.6764212800007954,noRew,0,0,,,0,659.4912766550005,660.9929466390004,,,,,,,,,,,,,,,,,,,,37688,2022-10-25_10h29.05.330,vts_reward_expectancy_bt_OFFLINE,2022.2.4,59.99429622191361,
,,,,,,,,,,,,,,,,,,,,,,,,,,,,21,0,21,0,,,,,,,,,,,,D,174,hexagon,0.0010186140007135691,,,,,,,,,1,0,,,,,665.6813726809996,,,,,,,,,661.9773634699995,661.9773634699995,661.9773634699995,661.9773634699995,663.4791227299993,663.4791227299993,663.4791227299993,663.4791227299993,663.4791227299993,663.4791227299993,663.4791227299993,663.4791227299993,repeat,letter,lettRpt,d,0.6681180120012868,noRew,0,0,,,0,664.1798838760005,,,,,,,,,,,,,,,,,,,,,37688,2022-10-25_10h29.05.330,vts_reward_expectancy_bt_OFFLINE,2022.2.4,59.99429622191361,
,,,,,,,,,,,,,,,,,,,,,,,,,,,,22,0,22,0,,,,,,,,,,,,U,181,hexagon,0.0013823440003761789,,,,,,,,,1,0,,,,,670.48653328,,,,,,,,,666.6659305560006,666.6659305560006,666.6659305560006,666.6659305560006,668.1674398640007,668.1674398640007,668.1674398640007,668.1674398640007,668.1674398640007,668.1674398640007,668.1674398640007,668.1674398640007,switch,number,numSwt,k,0.794832427000074,noRew,0,0,,,0,668.9849132969994,,,,,,,,,,,,,,,,,,,,,37688,2022-10-25_10h29.05.330,vts_reward_expectancy_bt_OFFLINE,2022.2.4,59.99429622191361,
,,,,,,,,,,,,,,,,,,,,,,,,,,,,23,0,23,0,,,,,,,,,,,,B,132,star,0.00140237899904605,,,,,,,,,1,0,,,,,675.0749996159993,,,,,,,,,671.4713706139992,671.4713706139992,671.4713706139992,671.4713706139992,672.9728415589998,672.9728415589998,672.9728415589998,672.9728415589998,672.9728415589998,672.9728415589998,672.9728415589998,672.9728415589998,repeat,number,numRpt,j,0.5741352570003073,noRew,0,0,,,0,673.5733556560008,,,,,,,,,,,,,,,,,,,,,37688,2022-10-25_10h29.05.330,vts_reward_expectancy_bt_OFFLINE,2022.2.4,59.99429622191361,
,,,,,,,,,,,,,,,,,,,,,,,,,,,,24,0,24,0,,,,,,,,,,,,U,174,hexagon,0.0011090549996879417,,,,,,,,,1,0,,,,,679.913901029,,,,,,,,,676.0593556420008,676.0593556420008,676.0593556420008,676.0593556420008,677.5610503799999,677.5610503799999,677.5610503799999,677.5610503799999,677.5610503799999,677.5610503799999,677.5610503799999,677.5610503799999,switch,letter,lettSwt,f,0.818255535001299,noRew,0,0,,,0,678.4120065589996,,,,,,,,,,,,,,,,,,,,,37688,2022-10-25_10h29.05.330,vts_reward_expectancy_bt_OFFLINE,2022.2.4,59.99429622191361,
,,,,,,,,,,,,,,,,,,,,,,,,,,,,25,0,25,0,,,,,,,,,,,,B,146,star,0.001221352000357001,,,,,,,,,1,0,,,,,685.0861579169996,,,,,,,,,680.898298225,680.898298225,680.898298225,680.898298225,682.3998234560004,682.3998234560004,682.3998234560004,682.3998234560004,682.3998234560004,682.3998234560004,682.3998234560004,682.3998234560004,repeat,letter,lettRpt,d,1.1631488900020486,noRew,0,0,,,0,683.584505801,685.0861579169996,,,,,,,,,,,,,,,,,,,,37688,2022-10-25_10h29.05.330,vts_reward_expectancy_bt_OFFLINE,2022.2.4,59.99429622191361,
,,,,,,,,,,,,,,,,,,,,,,,,,,,,26,0,26,0,,,,,,,,,,,,S,167,star,0.0009792000000743428,,,,,,,,,1,0,,,,,690.4088605840006,,,,,,,,,686.0705118269998,686.0705118269998,686.0705118269998,686.0705118269998,687.5722186870007,687.5722186870007,687.5722186870007,687.5722186870007,687.5722186870007,687.5722186870007,687.5722186870007,687.5722186870007,switch,number,numSwt,k,1.3026241309999023,noRew,0,0,,,0,688.9069454599994,,,,,,,,,,,,,,,,,,,,,37688,2022-10-25_10h29.05.330,vts_reward_expectancy_bt_OFFLINE,2022.2.4,59.99429622191361,
,,,,,,,,,,,,,,,,,,,,,,,,,,,,27,0,27,0,,,,,,,,,,,,F,132,hexagon,0.0012870280006609391,,,,,,,,,1,0,,,,,695.2472444110008,,,,,,,,,691.3931908289996,691.3931908289996,691.3931908289996,691.3931908289996,692.8946671199992,692.8946671199992,692.8946671199992,692.8946671199992,692.8946671199992,692.8946671199992,692.8946671199992,692.8946671199992,repeat,number,numRpt,j,0.8201006460003555,noRew,0,0,,,0,693.7457214459992,,,,,,,,,,,,,,,,,,,,,37688,2022-10-25_10h29.05.330,vts_reward_expectancy_bt_OFFLINE,2022.2.4,59.99429622191361,
,,,,,,,,,,,,,,,,,,,,,,,,,,,,28,0,28,0,,,,,,,,,,,,F,181,hexagon,0.0012692159998550778,,,,,,,,,1,0,,,,,700.4197219939997,,,,,,,,,696.2316115970007,696.2316115970007,696.2316115970007,696.2316115970007,697.7332600459995,697.7332600459995,697.7332600459995,697.7332600459995,697.7332600459995,697.7332600459995,697.7332600459995,697.7332600459995,switch,letter,lettSwt,d,1.1660714629997528,noRew,0,0,,,0,698.918031915,700.4197219939997,,,,,,,,,,,,,,,,,,,,37688,2022-10-25_10h29.05.330,vts_reward_expectancy_bt_OFFLINE,2022.2.4,59.99429622191361,
,,,,,,,,,,,,,,,,,,,,,,,,,,,,29,0,29,0,,,,,,,,,,,,U,132,hexagon,0.0011059370008297265,,,,,,,,,1,0,,,,,704.9746786199994,,,,,,,,,701.4043812300006,701.4043812300006,701.4043812300006,701.4043812300006,702.9058837459997,702.9058837459997,702.9058837459997,702.9058837459997,702.9058837459997,702.9058837459997,702.9058837459997,702.9058837459997,repeat,letter,lettRpt,f,0.5447485750009946,noRew,0,0,,,0,703.473072965,,,,,,,,,,,,,,,,,,,,,37688,2022-10-25_10h29.05.330,vts_reward_expectancy_bt_OFFLINE,2022.2.4,59.99429622191361,
,,,,,,,,,,,,,,,,,,,,,,,,,,,,30,0,30,0,,,,,,,,,,,,B,139,star,0.0010801480002555763,,,,,,,,,1,0,,,,,710.5140489120004,,,,,,,,,705.9590375900007,705.9590375900007,705.9590375900007,705.9590375900007,707.4608188769998,707.4608188769998,707.4608188769998,707.4608188769998,707.4608188769998,707.4608188769998,707.4608188769998,707.4608188769998,switch,number,numSwt,j,1.5189063170000736,noRew,0,0,,,0,709.0124493139992,,,,,,,,,,,,,,,,,,,,,37688,2022-10-25_10h29.05.330,vts_reward_expectancy_bt_OFFLINE,2022.2.4,59.99429622191361,
,,,,,,,,,,,,,,,,,,,,,,,,,,,,31,0,31,0,,,,,,,,,,,,H,174,hexagon,0.0013217809992056573,,,,,,,,,1,0,,,,,715.3363073559995,,,,,,,,,711.4986230270006,711.4986230270006,711.4986230270006,711.4986230270006,713.0000893649994,713.0000893649994,713.0000893649994,713.0000893649994,713.0000893649994,713.0000893649994,713.0000893649994,713.0000893649994,repeat,number,numRpt,k,0.8021478470000147,noRew,0,0,,,0,713.8345038520001,,,,,,,,,,,,,,,,,,,,,37688,2022-10-25_10h29.05.330,vts_reward_expectancy_bt_OFFLINE,2022.2.4,59.99429622191361,
,,,,,,,,,,,,,,,,,,,,,,,,,,,,32,0,32,0,,,,,,,,,,,,U,167,star,0.0011582160004763864,,,,,,,,,1,0,,,,,720.4752603870002,,,,,,,,,716.3205552140007,716.3205552140007,716.3205552140007,716.3205552140007,717.8224107860005,717.8224107860005,717.8224107860005,717.8224107860005,717.8224107860005,717.8224107860005,717.8224107860005,717.8224107860005,switch,letter,lettSwt,f,1.134120263001023,noRew,0,0,,,0,718.9736122550003,720.4752603870002,,,,,,,,,,,,,,,,,,,,37688,2022-10-25_10h29.05.330,vts_reward_expectancy_bt_OFFLINE,2022.2.4,59.99429622191361,
,,,,,,,,,,,,,,,,,,,,,,,,,,,,33,0,33,0,,,,,,,,,,,,B,125,hexagon,0.0008615699989604764,,,,,,,,,1,0,,,,,725.0634564810007,,,,,,,,,721.4595144089999,721.4595144089999,721.4595144089999,721.4595144089999,722.9612910920005,722.9612910920005,722.9612910920005,722.9612910920005,722.9612910920005,722.9612910920005,722.9612910920005,722.9612910920005,repeat,letter,lettRpt,d,0.5768397669999104,noRew,0,0,,,0,723.5618996850008,,,,,,,,,,,,,,,,,,,,,37688,2022-10-25_10h29.05.330,vts_reward_expectancy_bt_OFFLINE,2022.2.4,59.99429622191361,
,,,,,,,,,,,,,,,,,,,,,,,,,,,,34,0,34,0,,,,,,,,,,,,D,174,star,0.0011676590002025478,,,,,,,,,1,0,,,,,729.9855379269993,,,,,,,,,726.0481309669995,726.0481309669995,726.0481309669995,726.0481309669995,727.5495086789997,727.5495086789997,727.5495086789997,727.5495086789997,727.5495086789997,727.5495086789997,727.5495086789997,727.5495086789997,switch,number,numSwt,k,0.9022811550003098,noRew,0,0,,,0,728.4840055839995,729.9855379269993,,,,,,,,,,,,,,,,,,,,37688,2022-10-25_10h29.05.330,vts_reward_expectancy_bt_OFFLINE,2022.2.4,59.99429622191361,
,,,,,,,,,,,,,,,,,,,,,,,,,,,,35,0,35,0,,,,,,,,,,,,Y,146,hexagon,0.0017497409990028245,,,,,,,,,1,0,,,,,734.6242988640006,,,,,,,,,730.9700829970006,730.9700829970006,730.9700829970006,730.9700829970006,732.471533721,732.471533721,732.471533721,732.471533721,732.471533721,732.471533721,732.471533721,732.471533721,repeat,number,numRpt,j,0.627272953001011,noRew,0,0,,,0,733.1223086339996,,,,,,,,,,,,,,,,,,,,,37688,2022-10-25_10h29.05.330,vts_reward_expectancy_bt_OFFLINE,2022.2.4,59.99429622191361,
,,,,,,,,,,,,,,,,,,,,,,,,,,,,36,0,36,0,,,,,,,,,,,,B,146,hexagon,0.001529809000203386,,,,,,,,,1,0,,,,,739.5623933690003,,,,,,,,,735.6084597490008,735.6084597490008,735.6084597490008,735.6084597490008,737.1102413400004,737.1102413400004,737.1102413400004,737.1102413400004,737.1102413400004,737.1102413400004,737.1102413400004,737.1102413400004,switch,letter,lettSwt,d,0.9239290790010273,noRew,0,0,,,0,738.0614805559999,739.5623933690003,,,,,,,,,,,,,,,,,,,,37688,2022-10-25_10h29.05.330,vts_reward_expectancy_bt_OFFLINE,2022.2.4,59.99429622191361,
,,,,,,,,,,,,,,,,,,,,,,,,,,,,37,0,37,0,,,,,,,,,,,,S,139,hexagon,0.0012063539998052875,,,,,,,,,1,0,,,,,744.2683427560005,,,,,,,,,740.5472359609994,740.5472359609994,740.5472359609994,740.5472359609994,742.0490676690006,742.0490676690006,742.0490676690006,742.0490676690006,742.0490676690006,742.0490676690006,742.0490676690006,742.0490676690006,repeat,letter,lettRpt,f,0.6985779780006851,noRew,0,0,,,0,742.7664655490007,744.2683427560005,,,,,,,,,,,,,,,,,,,,37688,2022-10-25_10h29.05.330,vts_reward_expectancy_bt_OFFLINE,2022.2.4,59.99429622191361,
,,,,,,,,,,,,,,,,,,,,,,,,,,,,38,0,38,0,,,,,,,,,,,,D,132,star,0.0014349640005093534,,,,,,,,,1,0,,,,,749.2901712549992,,,,,,,,,745.2523447900003,745.2523447900003,745.2523447900003,745.2523447900003,746.7540449610005,746.7540449610005,746.7540449610005,746.7540449610005,746.7540449610005,746.7540449610005,746.7540449610005,746.7540449610005,switch,number,numSwt,j,1.0017410860000382,noRew,0,0,,,0,747.7886803809997,749.2901712549992,,,,,,,,,,,,,,,,,,,,37688,2022-10-25_10h29.05.330,vts_reward_expectancy_bt_OFFLINE,2022.2.4,59.99429622191361,
,,,,,,,,,,,,,,,,,,,,,,,,,,,,39,0,39,0,,,,,,,,,,,,W,181,star,0.0012897939996037167,,,,,,,,,1,0,,,,,753.9119541769996,,,,,,,,,750.2745909660007,750.2745909660007,750.2745909660007,750.2745909660007,751.7764324319996,751.7764324319996,751.7764324319996,751.7764324319996,751.7764324319996,751.7764324319996,751.7764324319996,751.7764324319996,repeat,number,numRpt,k,0.6100514429999748,noRew,0,0,,,0,752.4100490860001,,,,,,,,,,,,,,,,,,,,,37688,2022-10-25_10h29.05.330,vts_reward_expectancy_bt_OFFLINE,2022.2.4,59.99429622191361,
,,,,,,,,,,,,,,,,,,,,,,,,,,,,40,0,40,0,,,,,,,,,,,,D,132,star,0.0013570350001828047,,,,,,,,,1,0,,,,,758.6007086419995,759.1011949149997,,,,,,,,754.8965687489999,754.8965687489999,754.8965687489999,754.8965687489999,756.3982847309999,756.3982847309999,756.3982847309999,756.3982847309999,756.3982847309999,756.3982847309999,756.3982847309999,756.3982847309999,switch,letter,lettSwt,d,0.6758467050003674,noRew,0,0,,,0,757.0987460510005,758.6007086419995,,,,,,,,,,,,,,,,,,,,37688,2022-10-25_10h29.05.330,vts_reward_expectancy_bt_OFFLINE,2022.2.4,59.99429622191361,
,,,,,,,,,,,,,,,,,,,,,,,,,,,,41,0,41,0,,,,,,,,,,,,W,181,hexagon,0.0009598830001777969,,,,,,,,,1,0,,,,,763.4224067659998,,,,,,,,,759.5850227249994,759.5850227249994,759.5850227249994,759.5850227249994,761.0867585300002,761.0867585300002,761.0867585300002,761.0867585300002,761.0867585300002,761.0867585300002,761.0867585300002,761.0867585300002,repeat,letter,lettRpt,f,0.8125068170011218,noRew,0,0,,,0,761.9209078599997,763.4224067659998,,,,,,,,,,,,,,,,,,,,37688,2022-10-25_10h29.05.330,vts_reward_expectancy_bt_OFFLINE,2022.2.4,59.99429622191361,
,,,,,,,,,,,,,,,,,,,,,,,,,,,,42,0,42,0,,,,,,,,,,,,H,160,star,0.001329475999227725,,,,,,,,,0,0,,,,,769.4623934659994,,,,,,,,,764.4070077510005,764.4070077510005,764.4070077510005,764.4070077510005,765.9086964210001,765.9086964210001,765.9086964210001,765.9086964210001,765.9086964210001,765.9086964210001,765.9086964210001,765.9086964210001,switch,number,NA,j,2.022185233001437,noRew,0,0,,,0,767.9610488750004,769.4623934659994,,,,,,,,,,,,,,,,,,,,37688,2022-10-25_10h29.05.330,vts_reward_expectancy_bt_OFFLINE,2022.2.4,59.99429622191361,
,,,,,,,,,,,,,,,,,,,,,,,,,,,,43,0,43,0,,,,,,,,,,,,Y,167,hexagon,0.0014655530012532836,,,,,,,,,1,1,,,,,775.4859796060009,,,,,,,,,770.4470031820001,770.4470031820001,770.4470031820001,770.4470031820001,771.9486704499996,771.9486704499996,771.9486704499996,771.9486704499996,771.9486704499996,771.9486704499996,771.9486704499996,771.9486704499996,repeat,number,numRpt,k,2.006424667999454,noRew,0,0,,,0,773.9847995349992,,,,,,,,,,,,,,,,,,,,,37688,2022-10-25_10h29.05.330,vts_reward_expectancy_bt_OFFLINE,2022.2.4,59.99429622191361,
,,,,,,,,,,,,,,,,,,,,,,,,,,,,44,0,44,0,,,,,,,,,,,,F,181,star,0.0013857579997420544,,,,,,,,,1,0,,,,,780.6582838409995,,,,,,,,,776.4704374720004,776.4704374720004,776.4704374720004,776.4704374720004,777.9718350519997,777.9718350519997,777.9718350519997,777.9718350519997,777.9718350519997,777.9718350519997,777.9718350519997,777.9718350519997,switch,letter,lettSwt,d,1.158893428999363,noRew,0,0,,,0,779.1565766809999,780.6582838409995,,,,,,,,,,,,,,,,,,,,37688,2022-10-25_10h29.05.330,vts_reward_expectancy_bt_OFFLINE,2022.2.4,59.99429622191361,
,,,,,,,,,,,,,,,,,,,,,,,,,,,,45,0,45,0,,,,,,,,,,,,U,160,hexagon,0.0012200550008856226,,,,,,,,,1,0,,,,,785.5469228590009,,,,,,,,,781.6427773809992,781.6427773809992,781.6427773809992,781.6427773809992,783.1445106840001,783.1445106840001,783.1445106840001,783.1445106840001,783.1445106840001,783.1445106840001,783.1445106840001,783.1445106840001,repeat,letter,lettRpt,f,0.8838853150009527,noRew,0,0,,,0,784.0451255440003,785.5469228590009,,,,,,,,,,,,,,,,,,,,37688,2022-10-25_10h29.05.330,vts_reward_expectancy_bt_OFFLINE,2022.2.4,59.99429622191361,
,,,,,,,,,,,,,,,,,,,,,,,,,,,,46,0,46,0,,,,,,,,,,,,W,167,star,0.0008559990001231199,,,,,,,,,1,0,,,,,790.1353213490002,,,,,,,,,786.5315337360007,786.5315337360007,786.5315337360007,786.5315337360007,788.0331065200007,788.0331065200007,788.0331065200007,788.0331065200007,788.0331065200007,788.0331065200007,788.0331065200007,788.0331065200007,switch,number,numSwt,k,0.5695221470014076,noRew,0,0,,,0,788.6337150750005,,,,,,,,,,,,,,,,,,,,,37688,2022-10-25_10h29.05.330,vts_reward_expectancy_bt_OFFLINE,2022.2.4,59.99429622191361,
,,,,,,,,,,,,,,,,,,,,,,,,,,,,47,0,47,0,,,,,,,,,,,,H,146,star,0.001202421000925824,,,,,,,,,1,0,,,,,794.8572697969994,,,,,,,,,791.1197979499993,791.1197979499993,791.1197979499993,791.1197979499993,792.621255004,792.621255004,792.621255004,792.621255004,792.621255004,792.621255004,792.621255004,792.621255004,repeat,number,numRpt,j,0.7015152530002524,noRew,0,0,,,0,793.3555258239994,,,,,,,,,,,,,,,,,,,,,37688,2022-10-25_10h29.05.330,vts_reward_expectancy_bt_OFFLINE,2022.2.4,59.99429622191361,
,,,,,,,,,,,,,,,,,,,,,,,,,,,,48,0,48,0,,,,,,,,,,,,Y,125,hexagon,0.0013883379997423617,,,,,,,,,1,0,,,,,799.7458456639997,,,,,,,,,795.8415076010006,795.8415076010006,795.8415076010006,795.8415076010006,797.3432443950005,797.3432443950005,797.3432443950005,797.3432443950005,797.3432443950005,797.3432443950005,797.3432443950005,797.3432443950005,switch,letter,lettSwt,f,0.8683611939995899,noRew,0,0,,,0,798.2443671140009,799.7458456639997,,,,,,,,,,,,,,,,,,,,37688,2022-10-25_10h29.05.330,vts_reward_expectancy_bt_OFFLINE,2022.2.4,59.99429622191361,
,,,,,,,,,,,,,,,,,,,,,,,,,,,,49,0,49,0,,,,,,,,,,,,D,132,hexagon,0.0010637929990480188,,,,,,,,,1,0,,,,,804.5678010859992,,,,,,,,,800.7304430469994,800.7304430469994,800.7304430469994,800.7304430469994,802.2320036750007,802.2320036750007,802.2320036750007,802.2320036750007,802.2320036750007,802.2320036750007,802.2320036750007,802.2320036750007,repeat,letter,lettRpt,d,0.8021718649997638,noRew,0,0,,,0,803.0661437870003,804.5678010859992,,,,,,,,,,,,,,,,,,,,37688,2022-10-25_10h29.05.330,vts_reward_expectancy_bt_OFFLINE,2022.2.4,59.99429622191361,
,,,,,,,,,,,,,,,,,,,,,,,,,,,,50,0,50,0,,,,,,,,,,,,F,167,star,0.0009223890010616742,,,,,,,,,1,0,,,,,809.3398955169996,,,,,,,,,805.5523915270005,805.5523915270005,805.5523915270005,805.5523915270005,807.0540929090002,807.0540929090002,807.0540929090002,807.0540929090002,807.0540929090002,807.0540929090002,807.0540929090002,807.0540929090002,switch,number,numSwt,k,0.7569395960017573,noRew,0,0,,,0,807.8380849610003,809.3398955169996,,,,,,,,,,,,,,,,,,,,37688,2022-10-25_10h29.05.330,vts_reward_expectancy_bt_OFFLINE,2022.2.4,59.99429622191361,
,,,,,,,,,,,,,,,,,,,,,,,,,,,,51,0,51,0,,,,,,,,,,,,S,139,hexagon,0.0011384690005797893,,,,,,,,,1,0,,,,,813.9782707739996,,,,,,,,,810.3243661769993,810.3243661769993,810.3243661769993,810.3243661769993,811.8259693359996,811.8259693359996,811.8259693359996,811.8259693359996,811.8259693359996,811.8259693359996,811.8259693359996,811.8259693359996,repeat,number,numRpt,j,0.6248285610017774,noRew,0,0,,,0,812.4766300219999,,,,,,,,,,,,,,,,,,,,,37688,2022-10-25_10h29.05.330,vts_reward_expectancy_bt_OFFLINE,2022.2.4,59.99429622191361,
,,,,,,,,,,,,,,,,,,,,,,,,,,,,52,0,52,0,,,,,,,,,,,,U,132,hexagon,0.0013901309994253097,,,,,,,,,1,0,,,,,818.7668769810007,,,,,,,,,814.9626377820005,814.9626377820005,814.9626377820005,814.9626377820005,816.4645225059994,816.4645225059994,816.4645225059994,816.4645225059994,816.4645225059994,816.4645225059994,816.4645225059994,816.4645225059994,switch,letter,lettSwt,f,0.778192368999953,noRew,0,0,,,0,817.265215419,818.7668769810007,,,,,,,,,,,,,,,,,,,,37688,2022-10-25_10h29.05.330,vts_reward_expectancy_bt_OFFLINE,2022.2.4,59.99429622191361,
,,,,,,,,,,,,,,,,,,,,,,,,,,,,53,0,53,0,,,,,,,,,,,,F,139,hexagon,0.0012963070003024768,,,,,,,,,1,0,,,,,823.3720395689998,,,,,,,,,819.7512865099998,819.7512865099998,819.7512865099998,819.7512865099998,821.2530136910009,821.2530136910009,821.2530136910009,821.2530136910009,821.2530136910009,821.2530136910009,821.2530136910009,821.2530136910009,repeat,letter,lettRpt,d,0.589868610000849,noRew,0,0,,,0,821.8704370560008,,,,,,,,,,,,,,,,,,,,,37688,2022-10-25_10h29.05.330,vts_reward_expectancy_bt_OFFLINE,2022.2.4,59.99429622191361,
,,,,,,,,,,,,,,,,,,,,,,,,,,,,54,0,54,0,,,,,,,,,,,,H,181,hexagon,0.001148621999163879,,,,,,,,,0,0,,,,,828.2274774399993,,,,,,,,,824.3567167069996,824.3567167069996,824.3567167069996,824.3567167069996,825.8582486289997,825.8582486289997,825.8582486289997,825.8582486289997,825.8582486289997,825.8582486289997,825.8582486289997,825.8582486289997,switch,number,NA,j,0.8403067240014934,noRew,0,0,,,0,826.7259801500004,828.2274774399993,,,,,,,,,,,,,,,,,,,,37688,2022-10-25_10h29.05.330,vts_reward_expectancy_bt_OFFLINE,2022.2.4,59.99429622191361,
,,,,,,,,,,,,,,,,,,,,,,,,,,,,55,0,55,0,,,,,,,,,,,,B,160,star,0.0010779950007417938,,,,,,,,,1,1,,,,,833.3663696160002,,,,,,,,,829.2116315410003,829.2116315410003,829.2116315410003,829.2116315410003,830.7134950010004,830.7134950010004,830.7134950010004,830.7134950010004,830.7134950010004,830.7134950010004,830.7134950010004,830.7134950010004,repeat,number,numRpt,k,1.1209439920003206,noRew,0,0,,,0,831.865285889,833.3663696160002,,,,,,,,,,,,,,,,,,,,37688,2022-10-25_10h29.05.330,vts_reward_expectancy_bt_OFFLINE,2022.2.4,59.99429622191361,
,,,,,,,,,,,,,,,,,,,,,,,,,,,,56,0,56,0,,,,,,,,,,,,S,132,hexagon,0.0012080200012860587,,,,,,,,,1,0,,,,,838.3720497689992,838.8726401109998,,,,,,,,834.3508640889995,834.3508640889995,834.3508640889995,834.3508640889995,835.8524724760009,835.8524724760009,835.8524724760009,835.8524724760009,835.8524724760009,835.8524724760009,835.8524724760009,835.8524724760009,switch,letter,lettSwt,f,0.9991781040007481,noRew,0,0,,,0,836.8706879790006,838.3720497689992,,,,,,,,,,,,,,,,,,,,37688,2022-10-25_10h29.05.330,vts_reward_expectancy_bt_OFFLINE,2022.2.4,59.99429622191361,
,,,,,,,,,,,,,,,,,,,,,,,,,,,,57,0,57,0,,,,,,,,,,,,Y,146,hexagon,0.0010551209998084232,,,,,,,,,1,0,,,,,843.0272130520007,,,,,,,,,839.3562090710002,839.3562090710002,839.3562090710002,839.3562090710002,840.858045645,840.858045645,840.858045645,840.858045645,840.858045645,840.858045645,840.858045645,840.858045645,repeat,letter,lettRpt,f,0.6498246860010113,noRew,0,0,,,0,841.5254163570007,843.0272130520007,,,,,,,,,,,,,,,,,,,,37688,2022-10-25_10h29.05.330,vts_reward_expectancy_bt_OFFLINE,2022.2.4,59.99429622191361,
,,,,,,,,,,,,,,,,,,,,,,,,,,,,58,0,58,0,,,,,,,,,,,,H,125,hexagon,0.0009904870003083488,,,,,,,,,1,0,,,,,848.1326745250008,,,,,,,,,844.011495625,844.011495625,844.011495625,844.011495625,845.5130724259998,845.5130724259998,845.5130724259998,845.5130724259998,845.5130724259998,845.5130724259998,845.5130724259998,845.5130724259998,switch,number,numSwt,j,1.090528507000272,noRew,0,0,,,0,846.630981716,848.1326745250008,,,,,,,,,,,,,,,,,,,,37688,2022-10-25_10h29.05.330,vts_reward_expectancy_bt_OFFLINE,2022.2.4,59.99429622191361,
,,,,,,,,,,,,,,,,,,,,,,,,,,,,59,0,59,0,,,,,,,,,,,,F,139,star,0.0013978189999761526,,,,,,,,,1,0,,,,,853.3050076060008,,,,,,,,,849.1170842570009,849.1170842570009,849.1170842570009,849.1170842570009,850.6187874700008,850.6187874700008,850.6187874700008,850.6187874700008,850.6187874700008,850.6187874700008,850.6187874700008,850.6187874700008,repeat,number,numRpt,j,1.152178026000911,noRew,0,0,,,0,851.8034876239999,853.3050076060008,,,,,,,,,,,,,,,,,,,,37688,2022-10-25_10h29.05.330,vts_reward_expectancy_bt_OFFLINE,2022.2.4,59.99429622191361,
,,,,,,,,,,,,,,,,,,,,,,,,,,,,60,0,60,0,,,,,,,,,,,,U,125,hexagon,0.0011642010013019899,,,,,,,,,1,0,,,,,858.6608068719997,,,,,,,,,854.2895298359999,854.2895298359999,854.2895298359999,854.2895298359999,855.7910784970009,855.7910784970009,855.7910784970009,855.7910784970009,855.7910784970009,855.7910784970009,855.7910784970009,855.7910784970009,repeat,number,numRpt,j,1.3402722230002837,noRew,0,0,,,0,857.1593061839994,,,,,,,,,,,,,,,,,,,,,37688,2022-10-25_10h29.05.330,vts_reward_expectancy_bt_OFFLINE,2022.2.4,59.99429622191361,
,,,,,,,,,,,,,,,,,,,,,,,,,,,,61,0,61,0,,,,,,,,,,,,S,146,star,0.0014113450015429407,,,,,,,,,1,0,,,,,863.4828352650002,,,,,,,,,859.6453687690009,859.6453687690009,859.6453687690009,859.6453687690009,861.1469834100008,861.1469834100008,861.1469834100008,861.1469834100008,861.1469834100008,861.1469834100008,861.1469834100008,861.1469834100008,repeat,number,numRpt,j,0.8083805830010533,noRew,0,0,,,0,861.9813363539997,863.4828352650002,,,,,,,,,,,,,,,,,,,,37688,2022-10-25_10h29.05.330,vts_reward_expectancy_bt_OFFLINE,2022.2.4,59.99429622191361,
,,,,,,,,,,,,,,,,,,,,,,,,,,,,62,0,62,0,,,,,,,,,,,,B,181,hexagon,0.001335365001068567,,,,,,,,,1,0,,,,,870.424007607,,,,,,,,,864.4673595040003,864.4673595040003,864.4673595040003,864.4673595040003,865.9691854320008,865.9691854320008,865.9691854320008,865.9691854320008,865.9691854320008,865.9691854320008,865.9691854320008,865.9691854320008,switch,letter,lettSwt,d,2.928913667001325,noRew,0,0,,,0,868.9222708750003,870.424007607,,,,,,,,,,,,,,,,,,,,37688,2022-10-25_10h29.05.330,vts_reward_expectancy_bt_OFFLINE,2022.2.4,59.99429622191361,
,,,,,,,,,,,,,,,,,,,,,,,,,,,,63,0,63,0,,,,,,,,,,,,Y,132,star,0.0010097220001625828,,,,,,,,,1,0,,,,,876.0635729770001,,,,,,,,,871.4081954510002,871.4081954510002,871.4081954510002,871.4081954510002,872.9100387189992,872.9100387189992,872.9100387189992,872.9100387189992,872.9100387189992,872.9100387189992,872.9100387189992,872.9100387189992,switch,number,numSwt,j,1.6206116320008732,noRew,0,0,,,0,874.5617798540006,876.0635729770001,,,,,,,,,,,,,,,,,,,,37688,2022-10-25_10h29.05.330,vts_reward_expectancy_bt_OFFLINE,2022.2.4,59.99429622191361,
,,,,,,,,,,,,,,,,,,,,,,,,,,,,,,,,0,0,0,0,0,0,0,0,,,,D,174,star,0.0016664359991409583,,,,,,,,,1,0,,,,,923.0154478490003,,,,,,,,,919.0444554450005,919.0444554450005,919.0444554450005,919.0444554450005,920.545721120001,920.545721120001,920.545721120001,920.545721120001,920.545721120001,920.545721120001,920.545721120001,920.545721120001,switch,letter,lettSwt,d,0.9366322830010176,Lo,10,10,,,0,,,space,9.934196849000728,low,921.5137589719998,923.0154478490003,,,,,,,,,,,,,,,37688,2022-10-25_10h29.05.330,vts_reward_expectancy_bt_OFFLINE,2022.2.4,59.99429622191361,
,,,,,,,,,,,,,,,,,,,,,,,,,,,,,,,,0,0,0,0,1,0,1,0,,,,W,181,star,0.0009082939996005734,,,,,,,,,1,0,,,,,927.9374318169994,,,,,,,,,923.9996647169992,923.9996647169992,923.9996647169992,923.9996647169992,925.5013955249997,925.5013955249997,925.5013955249997,925.5013955249997,925.5013955249997,925.5013955249997,925.5013955249997,925.5013955249997,repeat,letter,lettRpt,f,0.9017042340001353,Lo,1,11,,,0,,,,,low,926.4355381959995,,,,,,,,,,,,,,,,37688,2022-10-25_10h29.05.330,vts_reward_expectancy_bt_OFFLINE,2022.2.4,59.99429622191361,
,,,,,,,,,,,,,,,,,,,,,,,,,,,,,,,,0,0,0,0,2,0,2,0,,,,Y,132,hexagon,0.0010122229996341048,,,,,,,,,1,0,,,,,932.9429723209996,,,,,,,,,928.9217571209992,928.9217571209992,928.9217571209992,928.9217571209992,930.4234406260002,930.4234406260002,930.4234406260002,930.4234406260002,930.4234406260002,930.4234406260002,930.4234406260002,930.4234406260002,repeat,letter,lettRpt,f,0.99535835000097,Hi,0,11,,,0,,,,,low,931.4582516490009,,,,,,,,,,,,,,,,37688,2022-10-25_10h29.05.330,vts_reward_expectancy_bt_OFFLINE,2022.2.4,59.99429622191361,
,,,,,,,,,,,,,,,,,,,,,,,,,,,,,,,,0,0,0,0,3,0,3,0,,,,U,167,hexagon,0.0011841649993584724,,,,,,,,,1,0,,,,,937.5645416890002,,,,,,,,,933.9274495009995,933.9274495009995,933.9274495009995,933.9274495009995,935.4289071359999,935.4289071359999,935.4289071359999,935.4289071359999,935.4289071359999,935.4289071359999,935.4289071359999,935.4289071359999,switch,number,numSwt,k,0.606581346000894,Hi,10,21,,,0,,,,,low,936.0636572660005,,,,,,,,,,,,,,,,37688,2022-10-25_10h29.05.330,vts_reward_expectancy_bt_OFFLINE,2022.2.4,59.99429622191361,
,,,,,,,,,,,,,,,,,,,,,,,,,,,,,,,,0,0,0,0,4,0,4,0,,,,B,125,star,0.0013317329994606553,,,,,,,,,1,0,,,,,942.3034384849998,,,,,,,,,938.5490758289998,938.5490758289998,938.5490758289998,938.5490758289998,940.0506562690007,940.0506562690007,940.0506562690007,940.0506562690007,940.0506562690007,940.0506562690007,940.0506562690007,940.0506562690007,repeat,number,numRpt,j,0.727542552001978,Lo,10,31,,,0,,,,,low,940.8016080310008,,,,,,,,,,,,,,,,37688,2022-10-25_10h29.05.330,vts_reward_expectancy_bt_OFFLINE,2022.2.4,59.99429622191361,
,,,,,,,,,,,,,,,,,,,,,,,,,,,,,,,,0,0,0,0,5,0,5,0,,,,S,146,hexagon,0.0012298250003368594,,,,,,,,,1,0,,,,,946.9251146999995,,,,,,,,,943.2876592150005,943.2876592150005,943.2876592150005,943.2876592150005,944.7892016360001,944.7892016360001,944.7892016360001,944.7892016360001,944.7892016360001,944.7892016360001,944.7892016360001,944.7892016360001,switch,letter,lettSwt,f,0.6136155229996803,Hi,10,41,,,0,,,,,low,945.423250246,,,,,,,,,,,,,,,,37688,2022-10-25_10h29.05.330,vts_reward_expectancy_bt_OFFLINE,2022.2.4,59.99429622191361,
,,,,,,,,,,,,,,,,,,,,,,,,,,,,,,,,0,0,0,0,6,0,6,0,,,,F,160,hexagon,0.0012893580005766125,,,,,,,,,1,0,,,,,951.5300487599998,,,,,,,,,947.9093543840008,947.9093543840008,947.9093543840008,947.9093543840008,949.4110191189993,949.4110191189993,949.4110191189993,949.4110191189993,949.4110191189993,949.4110191189993,949.4110191189993,949.4110191189993,repeat,letter,lettRpt,d,0.5910718590002944,Hi,1,42,,,0,,,,,low,950.0289237489997,,,,,,,,,,,,,,,,37688,2022-10-25_10h29.05.330,vts_reward_expectancy_bt_OFFLINE,2022.2.4,59.99429622191361,
,,,,,,,,,,,,,,,,,,,,,,,,,,,,,,,,0,0,0,0,7,0,7,0,,,,H,139,star,0.0012806790000468027,,,,,,,,,1,0,,,,,956.2685425140007,,,,,,,,,952.5146611920009,952.5146611920009,952.5146611920009,952.5146611920009,954.0160689860004,954.0160689860004,954.0160689860004,954.0160689860004,954.0160689860004,954.0160689860004,954.0160689860004,954.0160689860004,repeat,letter,lettRpt,d,0.7307310050000524,Lo,10,52,,,0,,,,,low,954.7677028189992,,,,,,,,,,,,,,,,37688,2022-10-25_10h29.05.330,vts_reward_expectancy_bt_OFFLINE,2022.2.4,59.99429622191361,
,,,,,,,,,,,,,,,,,,,,,,,,,,,,,,,,0,0,0,0,8,0,8,0,,,,D,174,hexagon,0.0013418470007309224,,,,,,,,,1,0,,,,,960.8736928069993,,,,,,,,,957.2530524169997,957.2530524169997,957.2530524169997,957.2530524169997,958.7547875399996,958.7547875399996,958.7547875399996,958.7547875399996,958.7547875399996,958.7547875399996,958.7547875399996,958.7547875399996,repeat,letter,lettRpt,d,0.5923763320006401,Hi,1,53,,,0,,,,,low,959.3723687900001,,,,,,,,,,,,,,,,37688,2022-10-25_10h29.05.330,vts_reward_expectancy_bt_OFFLINE,2022.2.4,59.99429622191361,
,,,,,,,,,,,,,,,,,,,,,,,,,,,,,,,,0,0,0,0,9,0,9,0,,,,W,181,star,0.0012280610008019721,,,,,,,,,1,0,,,,,965.7959348189997,,,,,,,,,961.8582310790007,961.8582310790007,961.8582310790007,961.8582310790007,963.35980801,963.35980801,963.35980801,963.35980801,963.35980801,963.35980801,963.35980801,963.35980801,switch,number,numSwt,k,0.9069292759995733,Lo,10,63,,,0,,,,,low,964.2946236740008,,,,,,,,,,,,,,,,37688,2022-10-25_10h29.05.330,vts_reward_expectancy_bt_OFFLINE,2022.2.4,59.99429622191361,
,,,,,,,,,,,,,,,,,,,,,,,,,,,,,,,,0,0,0,0,10,0,10,0,,,,Y,132,star,0.0011406300000089686,,,,,,,,,1,0,,,,,970.5677900310002,,,,,,,,,966.7802107160005,966.7802107160005,966.7802107160005,966.7802107160005,968.2820589260009,968.2820589260009,968.2820589260009,968.2820589260009,968.2820589260009,968.2820589260009,968.2820589260009,968.2820589260009,switch,letter,lettSwt,f,0.7525911169996107,Lo,10,73,,,0,,,,,low,969.0661745899997,,,,,,,,,,,,,,,,37688,2022-10-25_10h29.05.330,vts_reward_expectancy_bt_OFFLINE,2022.2.4,59.99429622191361,
,,,,,,,,,,,,,,,,,,,,,,,,,,,,,,,,0,0,0,0,11,0,11,0,,,,U,167,hexagon,0.0013437420002446743,,,,,,,,,0,0,,,,,975.2562109360006,,,,,,,,,971.5521402659997,971.5521402659997,971.5521402659997,971.5521402659997,973.0539125100004,973.0539125100004,973.0539125100004,973.0539125100004,973.0539125100004,973.0539125100004,973.0539125100004,973.0539125100004,switch,number,NA,j,0.6684513460004382,Lo,0,73,,,0,,,,,low,973.7545949110008,,,,,,,,,,,,,,,,37688,2022-10-25_10h29.05.330,vts_reward_expectancy_bt_OFFLINE,2022.2.4,59.99429622191361,
,,,,,,,,,,,,,,,,,,,,,,,,,,,,,,,,0,0,0,0,12,0,12,0,,,,B,125,star,0.001009560000966303,,,,,,,,,0,1,,,,,980.4121260949996,,,,,,,,,976.2406873060008,976.2406873060008,976.2406873060008,976.2406873060008,977.7422827440005,977.7422827440005,977.7422827440005,977.7422827440005,977.7422827440005,977.7422827440005,977.7422827440005,977.7422827440005,repeat,number,NA,k,1.1499785830001201,Lo,0,73,,,0,,,,,low,978.9101788099997,,,,,,,,,,,,,,,,37688,2022-10-25_10h29.05.330,vts_reward_expectancy_bt_OFFLINE,2022.2.4,59.99429622191361,
,,,,,,,,,,,,,,,,,,,,,,,,,,,,,,,,0,0,0,0,13,0,13,0,,,,S,146,hexagon,0.0015210700003081001,,,,,,,,,1,1,,,,,985.300738549,,,,,,,,,981.3963884969999,981.3963884969999,981.3963884969999,981.3963884969999,982.8980068340006,982.8980068340006,982.8980068340006,982.8980068340006,982.8980068340006,982.8980068340006,982.8980068340006,982.8980068340006,repeat,number,numRpt,j,0.8737033970010089,Hi,0,73,,,0,,,,,low,983.8158419899992,,,,,,,,,,,,,,,,37688,2022-10-25_10h29.05.330,vts_reward_expectancy_bt_OFFLINE,2022.2.4,59.99429622191361,
,,,,,,,,,,,,,,,,,,,,,,,,,,,,,,,,0,0,0,0,14,0,14,0,,,,F,160,star,0.0014130489998933626,,,,,,,,,1,0,,,,,990.1060217649992,,,,,,,,,986.2850774660001,986.2850774660001,986.2850774660001,986.2850774660001,987.7868041420006,987.7868041420006,987.7868041420006,987.7868041420006,987.7868041420006,987.7868041420006,987.7868041420006,987.7868041420006,switch,letter,lettSwt,d,0.784936481000841,Lo,1,74,,,0,,,,,low,988.6044322649996,,,,,,,,,,,,,,,,37688,2022-10-25_10h29.05.330,vts_reward_expectancy_bt_OFFLINE,2022.2.4,59.99429622191361,
,,,,,,,,,,,,,,,,,,,,,,,,,,,,,,,,0,0,0,0,15,0,15,0,,,,H,139,hexagon,0.001227548000315437,,,,,,,,,1,0,,,,,994.7445065390002,,,,,,,,,991.0905581009993,991.0905581009993,991.0905581009993,991.0905581009993,992.5919599089993,992.5919599089993,992.5919599089993,992.5919599089993,992.5919599089993,992.5919599089993,992.5919599089993,992.5919599089993,switch,number,numSwt,j,0.6184636149992002,Hi,1,75,,,0,,,,,low,993.2428468270009,994.7445065390002,,,,,,,,,,,,,,,37688,2022-10-25_10h29.05.330,vts_reward_expectancy_bt_OFFLINE,2022.2.4,59.99429622191361,
,,,,,,,,,,,,,,,,,,,,,,,,,,,,,,,,0,0,0,0,16,0,16,0,,,,W,160,hexagon,0.001301278998653288,,,,,,,,,1,0,,,,,999.4829507659997,,,,,,,,,995.728783216,995.728783216,995.728783216,995.728783216,997.2304953010007,997.2304953010007,997.2304953010007,997.2304953010007,997.2304953010007,997.2304953010007,997.2304953010007,997.2304953010007,repeat,number,numRpt,k,0.7240430719994038,Hi,0,75,,,0,,,,,low,997.9980764339998,,,,,,,,,,,,,,,,37688,2022-10-25_10h29.05.330,vts_reward_expectancy_bt_OFFLINE,2022.2.4,59.99429622191361,
,,,,,,,,,,,,,,,,,,,,,,,,,,,,,,,,0,0,0,0,17,0,17,0,,,,D,146,star,0.0014332889986690134,,,,,,,,,1,0,,,,,1004.5886900010009,,,,,,,,,1000.4674895110002,1000.4674895110002,1000.4674895110002,1000.4674895110002,1001.9692225409999,1001.9692225409999,1001.9692225409999,1001.9692225409999,1001.9692225409999,1001.9692225409999,1001.9692225409999,1001.9692225409999,switch,letter,lettSwt,d,1.0971837689994572,Lo,1,76,,,0,,,,,low,1003.088139214,,,,,,,,,,,,,,,,37688,2022-10-25_10h29.05.330,vts_reward_expectancy_bt_OFFLINE,2022.2.4,59.99429622191361,
,,,,,,,,,,,,,,,,,,,,,,,,,,,,,,,,0,0,0,0,18,0,18,0,,,,B,174,star,0.001185381999675883,,,,,,,,,1,0,,,,,1009.2771303890004,,,,,,,,,1005.573149926,1005.573149926,1005.573149926,1005.573149926,1007.0745155299992,1007.0745155299992,1007.0745155299992,1007.0745155299992,1007.0745155299992,1007.0745155299992,1007.0745155299992,1007.0745155299992,repeat,letter,lettRpt,d,0.6730414320009004,Lo,1,77,,,0,,,,,low,1007.7753232769992,,,,,,,,,,,,,,,,37688,2022-10-25_10h29.05.330,vts_reward_expectancy_bt_OFFLINE,2022.2.4,59.99429622191361,
,,,,,,,,,,,,,,,,,,,,,,,,,,,,,,,,0,0,0,0,19,0,19,0,,,,U,139,hexagon,0.001196954000988626,,,,,,,,,1,0,,,,,1013.9322436450002,,,,,,,,,1010.2616634450005,1010.2616634450005,1010.2616634450005,1010.2616634450005,1011.7632435119995,1011.7632435119995,1011.7632435119995,1011.7632435119995,1011.7632435119995,1011.7632435119995,1011.7632435119995,1011.7632435119995,switch,number,numSwt,j,0.647990336001385,Hi,10,87,,,0,,,,,low,1012.4312301800001,,,,,,,,,,,,,,,,37688,2022-10-25_10h29.05.330,vts_reward_expectancy_bt_OFFLINE,2022.2.4,59.99429622191361,
,,,,,,,,,,,,,,,,,,,,,,,,,,,,,,,,0,0,0,0,20,0,20,0,,,,Y,125,hexagon,0.001490684000600595,,,,,,,,,1,0,,,,,1018.4871770200007,,,,,,,,,1014.9168706649998,1014.9168706649998,1014.9168706649998,1014.9168706649998,1016.418473021,1016.418473021,1016.418473021,1016.418473021,1016.418473021,1016.418473021,1016.418473021,1016.418473021,repeat,number,numRpt,j,0.5445486400003574,Hi,1,88,,,0,,,,,low,1016.9864556350003,1018.4871770200007,,,,,,,,,,,,,,,37688,2022-10-25_10h29.05.330,vts_reward_expectancy_bt_OFFLINE,2022.2.4,59.99429622191361,
,,,,,,,,,,,,,,,,,,,,,,,,,,,,,,,,0,0,0,0,21,0,21,0,,,,F,132,star,0.001058845000443398,,,,,,,,,1,0,,,,,1023.0758729370009,,,,,,,,,1019.471660272,1019.471660272,1019.471660272,1019.471660272,1020.9732981439993,1020.9732981439993,1020.9732981439993,1020.9732981439993,1020.9732981439993,1020.9732981439993,1020.9732981439993,1020.9732981439993,switch,letter,lettSwt,d,0.5733619730017381,Lo,10,98,,,0,,,,,low,1021.5745842609995,,,,,,,,,,,,,,,,37688,2022-10-25_10h29.05.330,vts_reward_expectancy_bt_OFFLINE,2022.2.4,59.99429622191361,
,,,,,,,,,,,,,,,,,,,,,,,,,,,,,,,,0,0,0,0,22,0,22,0,,,,H,167,star,0.0012660730008065002,,,,,,,,,1,0,,,,,1027.6641747409994,,,,,,,,,1024.0600930510009,1024.0600930510009,1024.0600930510009,1024.0600930510009,1025.5620087610005,1025.5620087610005,1025.5620087610005,1025.5620087610005,1025.5620087610005,1025.5620087610005,1025.5620087610005,1025.5620087610005,repeat,letter,lettRpt,d,0.5681404170009046,Lo,10,108,,,0,,,,,low,1026.1624094510007,,,,,,,,,,,,,,,,37688,2022-10-25_10h29.05.330,vts_reward_expectancy_bt_OFFLINE,2022.2.4,59.99429622191361,
,,,,,,,,,,,,,,,,,,,,,,,,,,,,,,,,0,0,0,0,23,0,23,0,,,,S,181,hexagon,0.0012286719993426232,,,,,,,,,1,0,,,,,1032.1522115989992,,,,,,,,,1028.6485327709997,1028.6485327709997,1028.6485327709997,1028.6485327709997,1030.1500916999994,1030.1500916999994,1030.1500916999994,1030.1500916999994,1030.1500916999994,1030.1500916999994,1030.1500916999994,1030.1500916999994,switch,number,numSwt,k,0.46831674100030796,Hi,1,109,,,0,,,,,low,1030.6509442360002,,,,,,,,,,,,,,,,37688,2022-10-25_10h29.05.330,vts_reward_expectancy_bt_OFFLINE,2022.2.4,59.99429622191361,
,,,,,,,,,,,,,,,,,,,,,,,,,,,,,,,,0,0,0,0,24,0,24,0,,,,F,125,star,0.0011803300003521144,,,,,,,,,1,0,,,,,1036.5907818809992,,,,,,,,,1033.1369958140003,1033.1369958140003,1033.1369958140003,1033.1369958140003,1034.6385433110008,1034.6385433110008,1034.6385433110008,1034.6385433110008,1034.6385433110008,1034.6385433110008,1034.6385433110008,1034.6385433110008,repeat,number,numRpt,j,0.4206891780013393,Lo,10,119,,,0,,,,,low,1035.089768279,,,,,,,,,,,,,,,,37688,2022-10-25_10h29.05.330,vts_reward_expectancy_bt_OFFLINE,2022.2.4,59.99429622191361,
,,,,,,,,,,,,,,,,,,,,,,,,,,,,,,,,0,0,0,0,25,0,25,0,,,,D,132,hexagon,0.001320346998909372,,,,,,,,,1,0,,,,,1041.1122138539995,,,,,,,,,1037.5750755869994,1037.5750755869994,1037.5750755869994,1037.5750755869994,1039.0767598710008,1039.0767598710008,1039.0767598710008,1039.0767598710008,1039.0767598710008,1039.0767598710008,1039.0767598710008,1039.0767598710008,switch,letter,lettSwt,d,0.5015617520002706,Hi,1,120,,,0,,,,,low,1039.6105449749994,,,,,,,,,,,,,,,,37688,2022-10-25_10h29.05.330,vts_reward_expectancy_bt_OFFLINE,2022.2.4,59.99429622191361,
,,,,,,,,,,,,,,,,,,,,,,,,,,,,,,,,0,0,0,0,26,0,26,0,,,,W,167,hexagon,0.0012223880003148224,,,,,,,,,1,0,,,,,1045.73415973,,,,,,,,,1042.0968194260004,1042.0968194260004,1042.0968194260004,1042.0968194260004,1043.5985835840002,1043.5985835840002,1043.5985835840002,1043.5985835840002,1043.5985835840002,1043.5985835840002,1043.5985835840002,1043.5985835840002,repeat,letter,lettRpt,f,0.6119656790015142,Hi,1,121,,,0,,,,,low,1044.2323632240004,,,,,,,,,,,,,,,,37688,2022-10-25_10h29.05.330,vts_reward_expectancy_bt_OFFLINE,2022.2.4,59.99429622191361,
,,,,,,,,,,,,,,,,,,,,,,,,,,,,,,,,0,0,0,0,27,0,27,0,,,,S,139,star,0.0011124669999844627,,,,,,,,,1,0,,,,,1050.4559391010007,,,,,,,,,1046.7184057499999,1046.7184057499999,1046.7184057499999,1046.7184057499999,1048.2201787510003,1048.2201787510003,1048.2201787510003,1048.2201787510003,1048.2201787510003,1048.2201787510003,1048.2201787510003,1048.2201787510003,switch,number,numSwt,j,0.7028191430017614,Lo,10,131,,,0,,,,,low,1048.9542464740007,,,,,,,,,,,,,,,,37688,2022-10-25_10h29.05.330,vts_reward_expectancy_bt_OFFLINE,2022.2.4,59.99429622191361,
,,,,,,,,,,,,,,,,,,,,,,,,,,,,,,,,0,0,0,0,28,0,28,0,,,,Y,174,hexagon,0.0014593320011044852,,,,,,,,,1,0,,,,,1055.2112202339995,,,,,,,,,1051.4404572040003,1051.4404572040003,1051.4404572040003,1051.4404572040003,1052.9420335310006,1052.9420335310006,1052.9420335310006,1052.9420335310006,1052.9420335310006,1052.9420335310006,1052.9420335310006,1052.9420335310006,repeat,number,numRpt,k,0.7412061409995658,Hi,0,131,,,0,,,,,low,1053.7261688149993,,,,,,,,,,,,,,,,37688,2022-10-25_10h29.05.330,vts_reward_expectancy_bt_OFFLINE,2022.2.4,59.99429622191361,
,,,,,,,,,,,,,,,,,,,,,,,,,,,,,,,,0,0,0,0,29,0,29,0,,,,H,181,hexagon,0.0011636590006673941,,,,,,,,,1,0,,,,,1060.3167617510007,,,,,,,,,1056.1955147160006,1056.1955147160006,1056.1955147160006,1056.1955147160006,1057.6973772109995,1057.6973772109995,1057.6973772109995,1057.6973772109995,1057.6973772109995,1057.6973772109995,1057.6973772109995,1057.6973772109995,repeat,number,numRpt,k,1.089934539000751,Hi,0,131,,,0,,,,,low,1058.8150458199998,1060.3167617510007,,,,,,,,,,,,,,,37688,2022-10-25_10h29.05.330,vts_reward_expectancy_bt_OFFLINE,2022.2.4,59.99429622191361,
,,,,,,,,,,,,,,,,,,,,,,,,,,,,,,,,0,0,0,0,30,0,30,0,,,,U,146,star,0.0011157469998579472,,,,,,,,,1,0,,,,,1064.9719824469994,,,,,,,,,1061.30113815,1061.30113815,1061.30113815,1061.30113815,1062.8027754619998,1062.8027754619998,1062.8027754619998,1062.8027754619998,1062.8027754619998,1062.8027754619998,1062.8027754619998,1062.8027754619998,repeat,number,numRpt,j,0.6485271250003279,Lo,10,141,,,0,,,,,low,1063.4714962420003,1064.9719824469994,,,,,,,,,,,,,,,37688,2022-10-25_10h29.05.330,vts_reward_expectancy_bt_OFFLINE,2022.2.4,59.99429622191361,
,,,,,,,,,,,,,,,,,,,,,,,,,,,,,,,,0,0,0,0,31,0,31,0,,,,B,160,star,0.0011490710003272397,,,,,,,,,1,0,,,,,1069.6772307270003,,,,,,,,,1065.9563002520008,1065.9563002520008,1065.9563002520008,1065.9563002520008,1067.4579322860009,1067.4579322860009,1067.4579322860009,1067.4579322860009,1067.4579322860009,1067.4579322860009,1067.4579322860009,1067.4579322860009,switch,letter,lettSwt,d,0.6971138749995589,Lo,10,151,,,0,,,,,low,1068.1755179749998,,,,,,,,,,,,,,,,37688,2022-10-25_10h29.05.330,vts_reward_expectancy_bt_OFFLINE,2022.2.4,59.99429622191361,
,,,,,,,,,,,,,,,,,,,,,,,,,,,,,,,,1,0,1,0,0,0,0,0,,,,D,132,star,0.0016531549990759231,,,,,,,,,1,0,,,,,1180.149078632001,,,,,,,,,1176.6617149800004,1176.6617149800004,1176.6617149800004,1176.6617149800004,1178.1632674859993,1178.1632674859993,1178.1632674859993,1178.1632674859993,1178.1632674859993,1178.1632674859993,1178.1632674859993,1178.1632674859993,switch,number,numSwt,j,0.4561392920004437,Lo,1,152,,,1,,,space,1.7904668890005269,low,1178.648583315,1180.149078632001,,,,,,,,,,,,,,,37688,2022-10-25_10h29.05.330,vts_reward_expectancy_bt_OFFLINE,2022.2.4,59.99429622191361,
,,,,,,,,,,,,,,,,,,,,,,,,,,,,,,,,1,0,1,0,1,0,1,0,,,,U,181,star,0.0011089269992226036,,,,,,,,,0,0,,,,,1185.2212408310006,,,,,,,,,1181.1333708540005,1181.1333708540005,1181.1333708540005,1181.1333708540005,1182.6352760049995,1182.6352760049995,1182.6352760049995,1182.6352760049995,1182.6352760049995,1182.6352760049995,1182.6352760049995,1182.6352760049995,switch,letter,NA,d,1.055976854000619,Lo,0,152,,,1,,,,,low,1183.7211529289998,,,,,,,,,,,,,,,,37688,2022-10-25_10h29.05.330,vts_reward_expectancy_bt_OFFLINE,2022.2.4,59.99429622191361,
,,,,,,,,,,,,,,,,,,,,,,,,,,,,,,,,1,0,1,0,2,0,2,0,,,,B,125,hexagon,0.0012346330004220363,,,,,,,,,1,1,,,,,1189.9095658370006,,,,,,,,,1186.2057170820008,1186.2057170820008,1186.2057170820008,1186.2057170820008,1187.7072406919997,1187.7072406919997,1187.7072406919997,1187.7072406919997,1187.7072406919997,1187.7072406919997,1187.7072406919997,1187.7072406919997,switch,number,numSwt,j,0.6719310570006201,Hi,0,152,,,1,,,,,low,1188.4247844260008,,,,,,,,,,,,,,,,37688,2022-10-25_10h29.05.330,vts_reward_expectancy_bt_OFFLINE,2022.2.4,59.99429622191361,
,,,,,,,,,,,,,,,,,,,,,,,,,,,,,,,,1,0,1,0,3,0,3,0,,,,W,174,hexagon,0.001124008000260801,,,,,,,,,0,0,,,,,1194.5149378549995,,,,,,,,,1190.8940005839995,1190.8940005839995,1190.8940005839995,1190.8940005839995,1192.3958543099998,1192.3958543099998,1192.3958543099998,1192.3958543099998,1192.3958543099998,1192.3958543099998,1192.3958543099998,1192.3958543099998,switch,letter,NA,d,0.5901042169989523,Hi,0,152,,,1,,,,,low,1193.0148773639994,,,,,,,,,,,,,,,,37688,2022-10-25_10h29.05.330,vts_reward_expectancy_bt_OFFLINE,2022.2.4,59.99429622191361,
,,,,,,,,,,,,,,,,,,,,,,,,,,,,,,,,1,0,1,0,4,0,4,0,,,,S,146,hexagon,0.0015023870000732131,,,,,,,,,1,1,,,,,1199.5704754399994,,,,,,,,,1195.499408951,1195.499408951,1195.499408951,1195.499408951,1197.000733375,1197.000733375,1197.000733375,1197.000733375,1197.000733375,1197.000733375,1197.000733375,1197.000733375,repeat,letter,lettRpt,f,1.0420861820020946,Hi,0,152,,,1,,,,,low,1198.0855537570005,,,,,,,,,,,,,,,,37688,2022-10-25_10h29.05.330,vts_reward_expectancy_bt_OFFLINE,2022.2.4,59.99429622191361,
,,,,,,,,,,,,,,,,,,,,,,,,,,,,,,,,1,0,1,0,5,0,5,0,,,,H,160,star,0.0010805900001287227,,,,,,,,,0,0,,,,,1204.4258786789997,,,,,,,,,1200.554990005001,1200.554990005001,1200.554990005001,1200.554990005001,1202.0562300010006,1202.0562300010006,1202.0562300010006,1202.0562300010006,1202.0562300010006,1202.0562300010006,1202.0562300010006,1202.0562300010006,switch,number,NA,j,0.8419678480004222,Hi,0,152,,,1,,,,,low,1202.9407634170002,,,,,,,,,,,,,,,,37688,2022-10-25_10h29.05.330,vts_reward_expectancy_bt_OFFLINE,2022.2.4,59.99429622191361,
,,,,,,,,,,,,,,,,,,,,,,,,,,,,,,,,1,0,1,0,6,0,6,0,,,,F,167,hexagon,0.0014437619993259432,,,,,,,,,0,1,,,,,1209.1141698850006,,,,,,,,,1205.4107815440002,1205.4107815440002,1205.4107815440002,1205.4107815440002,1206.91171029,1206.91171029,1206.91171029,1206.91171029,1206.91171029,1206.91171029,1206.91171029,1206.91171029,repeat,number,NA,j,0.6684633320001012,Hi,0,152,,,1,,,,,low,1207.6126058709997,1209.1141698850006,,,,,,,,,,,,,,,37688,2022-10-25_10h29.05.330,vts_reward_expectancy_bt_OFFLINE,2022.2.4,59.99429622191361,
,,,,,,,,,,,,,,,,,,,,,,,,,,,,,,,,1,0,1,0,7,0,7,0,,,,Y,139,star,0.001294714000323438,,,,,,,,,1,1,,,,,1213.635850306,,,,,,,,,1210.0988116200006,1210.0988116200006,1210.0988116200006,1210.0988116200006,1211.6003630600007,1211.6003630600007,1211.6003630600007,1211.6003630600007,1211.6003630600007,1211.6003630600007,1211.6003630600007,1211.6003630600007,switch,letter,lettSwt,f,0.5148670329999732,Lo,1,153,,,1,,,,,low,1212.1353974609992,,,,,,,,,,,,,,,,37688,2022-10-25_10h29.05.330,vts_reward_expectancy_bt_OFFLINE,2022.2.4,59.99429622191361,
,,,,,,,,,,,,,,,,,,,,,,,,,,,,,,,,1,0,1,0,8,0,8,0,,,,D,132,hexagon,0.0014401490007003304,,,,,,,,,1,0,,,,,1218.291024344,,,,,,,,,1214.6202712569993,1214.6202712569993,1214.6202712569993,1214.6202712569993,1216.1219518969992,1216.1219518969992,1216.1219518969992,1216.1219518969992,1216.1219518969992,1216.1219518969992,1216.1219518969992,1216.1219518969992,switch,number,numSwt,j,0.6402426170006947,Hi,0,153,,,1,,,,,low,1216.8061726300002,,,,,,,,,,,,,,,,37688,2022-10-25_10h29.05.330,vts_reward_expectancy_bt_OFFLINE,2022.2.4,59.99429622191361,
,,,,,,,,,,,,,,,,,,,,,,,,,,,,,,,,1,0,1,0,9,0,9,0,,,,U,181,star,0.0012357420000626007,,,,,,,,,1,0,,,,,1222.9294378289997,,,,,,,,,1219.2752726420003,1219.2752726420003,1219.2752726420003,1219.2752726420003,1220.7769872619992,1220.7769872619992,1220.7769872619992,1220.7769872619992,1220.7769872619992,1220.7769872619992,1220.7769872619992,1220.7769872619992,switch,letter,lettSwt,f,0.618118525000682,Lo,1,154,,,1,,,,,low,1221.4277452450006,,,,,,,,,,,,,,,,37688,2022-10-25_10h29.05.330,vts_reward_expectancy_bt_OFFLINE,2022.2.4,59.99429622191361,
,,,,,,,,,,,,,,,,,,,,,,,,,,,,,,,,1,0,1,0,10,0,10,0,,,,B,125,hexagon,0.0012820809988625115,,,,,,,,,1,0,,,,,1227.3509413339998,,,,,,,,,1223.9137869000006,1223.9137869000006,1223.9137869000006,1223.9137869000006,1225.4155597110002,1225.4155597110002,1225.4155597110002,1225.4155597110002,1225.4155597110002,1225.4155597110002,1225.4155597110002,1225.4155597110002,switch,number,numSwt,j,0.40287586400154396,Hi,10,164,,,1,,,,,low,1225.8491838499995,,,,,,,,,,,,,,,,37688,2022-10-25_10h29.05.330,vts_reward_expectancy_bt_OFFLINE,2022.2.4,59.99429622191361,
,,,,,,,,,,,,,,,,,,,,,,,,,,,,,,,,1,0,1,0,11,0,11,0,,,,W,174,star,0.001431394000974251,,,,,,,,,1,0,,,,,1231.9730027219994,,,,,,,,,1228.3353879349997,1228.3353879349997,1228.3353879349997,1228.3353879349997,1229.8370885109998,1229.8370885109998,1229.8370885109998,1229.8370885109998,1229.8370885109998,1229.8370885109998,1229.8370885109998,1229.8370885109998,switch,letter,lettSwt,f,0.6144336800007295,Lo,10,174,,,1,,,,,low,1230.4710879560007,1231.9730027219994,,,,,,,,,,,,,,,37688,2022-10-25_10h29.05.330,vts_reward_expectancy_bt_OFFLINE,2022.2.4,59.99429622191361,
,,,,,,,,,,,,,,,,,,,,,,,,,,,,,,,,1,0,1,0,12,0,12,0,,,,S,146,star,0.0010403619999124203,,,,,,,,,1,0,,,,,1236.6111780650008,,,,,,,,,1232.9572609660008,1232.9572609660008,1232.9572609660008,1232.9572609660008,1234.4588338459998,1234.4588338459998,1234.4588338459998,1234.4588338459998,1234.4588338459998,1234.4588338459998,1234.4588338459998,1234.4588338459998,switch,number,numSwt,j,0.6328455719994963,Lo,10,184,,,1,,,,,low,1235.1096313899998,1236.6111780650008,,,,,,,,,,,,,,,37688,2022-10-25_10h29.05.330,vts_reward_expectancy_bt_OFFLINE,2022.2.4,59.99429622191361,
,,,,,,,,,,,,,,,,,,,,,,,,,,,,,,,,1,0,1,0,13,0,13,0,,,,H,160,hexagon,0.0010227460006717592,,,,,,,,,1,0,,,,,1241.3832310420003,,,,,,,,,1237.595740189001,1237.595740189001,1237.595740189001,1237.595740189001,1239.0973983189997,1239.0973983189997,1239.0973983189997,1239.0973983189997,1239.0973983189997,1239.0973983189997,1239.0973983189997,1239.0973983189997,switch,letter,lettSwt,d,0.761390609000955,Hi,0,184,,,1,,,,,low,1239.8982824489995,,,,,,,,,,,,,,,,37688,2022-10-25_10h29.05.330,vts_reward_expectancy_bt_OFFLINE,2022.2.4,59.99429622191361,
,,,,,,,,,,,,,,,,,,,,,,,,,,,,,,,,1,0,1,0,14,0,14,0,,,,F,167,star,0.001367640001262771,,,,,,,,,1,0,,,,,1246.2217754110006,,,,,,,,,1242.3676551370008,1242.3676551370008,1242.3676551370008,1242.3676551370008,1243.8692861239997,1243.8692861239997,1243.8692861239997,1243.8692861239997,1243.8692861239997,1243.8692861239997,1243.8692861239997,1243.8692861239997,repeat,letter,lettRpt,d,0.8294442740007071,Lo,1,185,,,1,,,,,low,1244.7212123160007,,,,,,,,,,,,,,,,37688,2022-10-25_10h29.05.330,vts_reward_expectancy_bt_OFFLINE,2022.2.4,59.99429622191361,
,,,,,,,,,,,,,,,,,,,,,,,,,,,,,,,,1,0,1,0,15,0,15,0,,,,Y,139,hexagon,0.0010737970005720854,,,,,,,,,1,0,,,,,1250.7103292020001,,,,,,,,,1247.206149705,1247.206149705,1247.206149705,1247.206149705,1248.708168694,1248.708168694,1248.708168694,1248.708168694,1248.708168694,1248.708168694,1248.708168694,1248.708168694,switch,number,numSwt,j,0.4699894580007822,Hi,1,186,,,1,,,,,low,1249.2084317040008,,,,,,,,,,,,,,,,37688,2022-10-25_10h29.05.330,vts_reward_expectancy_bt_OFFLINE,2022.2.4,59.99429622191361,
,,,,,,,,,,,,,,,,,,,,,,,,,,,,,,,,1,0,1,0,16,0,16,0,,,,B,181,star,0.001243869999598246,,,,,,,,,1,0,,,,,1255.1649860809994,,,,,,,,,1251.694526927,1251.694526927,1251.694526927,1251.694526927,1253.1962296910006,1253.1962296910006,1253.1962296910006,1253.1962296910006,1253.1962296910006,1253.1962296910006,1253.1962296910006,1253.1962296910006,repeat,number,numRpt,k,0.44584039700021094,Lo,10,196,,,1,,,,,low,1253.680039752,,,,,,,,,,,,,,,,37688,2022-10-25_10h29.05.330,vts_reward_expectancy_bt_OFFLINE,2022.2.4,59.99429622191361,
,,,,,,,,,,,,,,,,,,,,,,,,,,,,,,,,1,0,1,0,17,0,17,0,,,,D,146,hexagon,0.0012985239991394337,,,,,,,,,1,0,,,,,1259.8535710939996,,,,,,,,,1256.1495448099995,1256.1495448099995,1256.1495448099995,1256.1495448099995,1257.6512391159995,1257.6512391159995,1257.6512391159995,1257.6512391159995,1257.6512391159995,1257.6512391159995,1257.6512391159995,1257.6512391159995,switch,letter,lettSwt,d,0.6797727510002005,Hi,0,196,,,1,,,,,low,1258.368682622,,,,,,,,,,,,,,,,37688,2022-10-25_10h29.05.330,vts_reward_expectancy_bt_OFFLINE,2022.2.4,59.99429622191361,
,,,,,,,,,,,,,,,,,,,,,,,,,,,,,,,,1,0,1,0,18,0,18,0,,,,Y,132,star,0.0013036680011282442,,,,,,,,,1,0,,,,,1264.4252247799996,,,,,,,,,1260.838157491,1260.838157491,1260.838157491,1260.838157491,1262.3397101249993,1262.3397101249993,1262.3397101249993,1262.3397101249993,1262.3397101249993,1262.3397101249993,1262.3397101249993,1262.3397101249993,repeat,letter,lettRpt,f,0.5516872409989446,Lo,10,206,,,1,,,,,low,1262.9236077200003,1264.4252247799996,,,,,,,,,,,,,,,37688,2022-10-25_10h29.05.330,vts_reward_expectancy_bt_OFFLINE,2022.2.4,59.99429622191361,
,,,,,,,,,,,,,,,,,,,,,,,,,,,,,,,,1,0,1,0,19,0,19,0,,,,U,139,hexagon,0.001081348998923204,,,,,,,,,1,0,,,,,1268.9634312010003,,,,,,,,,1265.4101096840004,1265.4101096840004,1265.4101096840004,1265.4101096840004,1266.9113901609999,1266.9113901609999,1266.9113901609999,1266.9113901609999,1266.9113901609999,1266.9113901609999,1266.9113901609999,1266.9113901609999,switch,number,numSwt,j,0.5232549130014377,Hi,1,207,,,1,,,,,low,1267.4629643709995,,,,,,,,,,,,,,,,37688,2022-10-25_10h29.05.330,vts_reward_expectancy_bt_OFFLINE,2022.2.4,59.99429622191361,
,,,,,,,,,,,,,,,,,,,,,,,,,,,,,,,,1,0,1,0,20,0,20,0,,,,S,174,star,0.0012275720000616275,,,,,,,,,1,0,,,,,1273.7520541400008,,,,,,,,,1269.9481265699997,1269.9481265699997,1269.9481265699997,1269.9481265699997,1271.4496465650009,1271.4496465650009,1271.4496465650009,1271.4496465650009,1271.4496465650009,1271.4496465650009,1271.4496465650009,1271.4496465650009,switch,letter,lettSwt,f,0.7686783820008714,Lo,10,217,,,1,,,,,low,1272.2504900940003,,,,,,,,,,,,,,,,37688,2022-10-25_10h29.05.330,vts_reward_expectancy_bt_OFFLINE,2022.2.4,59.99429622191361,
,,,,,,,,,,,,,,,,,,,,,,,,,,,,,,,,1,0,1,0,21,0,21,0,,,,F,167,star,0.0014966389990149764,,,,,,,,,1,0,,,,,1278.1905896940007,,,,,,,,,1274.7368201110003,1274.7368201110003,1274.7368201110003,1274.7368201110003,1276.2382775240003,1276.2382775240003,1276.2382775240003,1276.2382775240003,1276.2382775240003,1276.2382775240003,1276.2382775240003,1276.2382775240003,switch,number,numSwt,k,0.420287647000805,Lo,1,218,,,1,,,,,low,1276.6901544640004,,,,,,,,,,,,,,,,37688,2022-10-25_10h29.05.330,vts_reward_expectancy_bt_OFFLINE,2022.2.4,59.99429622191361,
,,,,,,,,,,,,,,,,,,,,,,,,,,,,,,,,1,0,1,0,22,0,22,0,,,,H,125,hexagon,0.0012917940002807882,,,,,,,,,1,0,,,,,1282.6286747819995,,,,,,,,,1279.1748309369996,1279.1748309369996,1279.1748309369996,1279.1748309369996,1280.6765008990005,1280.6765008990005,1280.6765008990005,1280.6765008990005,1280.6765008990005,1280.6765008990005,1280.6765008990005,1280.6765008990005,switch,letter,lettSwt,d,0.42276139100067667,Hi,10,228,,,1,,,,,low,1281.1283792409995,,,,,,,,,,,,,,,,37688,2022-10-25_10h29.05.330,vts_reward_expectancy_bt_OFFLINE,2022.2.4,59.99429622191361,
