LTriangleOpac,LCircleOpac,LHexagonOpac,LStarOpac,RTriangleOpac,RCircleOpac,RHexagonOpac,RStarOpac,LShape_ID,RShape_ID,training_blocks.thisRepN,training_blocks.thisTrialN,training_blocks.thisN,training_blocks.thisIndex,training.thisRepN,training.thisTrialN,training.thisN,training.thisIndex,task1_prac_redo.thisRepN,task1_prac_redo.thisTrialN,task1_prac_redo.thisN,task1_prac_redo.thisIndex,task1_prac_trials.thisRepN,task1_prac_trials.thisTrialN,task1_prac_trials.thisN,task1_prac_trials.thisIndex,key_resp.started,key_resp.keys,key_resp.rt,left_circle.started,right_circle.started,left_triangle.started,right_triangle.started,left_star.started,right_star.started,left_hexagon.started,right_hexagon.started,training_fix.started,training_resp.started,training_resp.keys,training_resp.rt,points_trial,points_cumul,trainBlock,training_feedback_txt.started,training_feedback_txt.stopped,fix.started,fix.stopped,curr_topStim,curr_bottStim,curr_shape,ISI.started,tgt_fix_prac1.started,top_target_prac1.started,bott_target_prac1.started,target_resp_prac1.started,top_target_prac1.stopped,bott_target_prac1.stopped,target_resp_prac1.stopped,acc,E1,target_resp_prac1.keys,pracBlock,prac_fback_text.started,target_resp_prac1.rt,tgt_fix_prac1.stopped,prac_fback_text.stopped,participant,date,expName,psychopyVersion,frameRate,
,,,,,,,,,,,,,,,,,,,,,,,,,,249.23481425410137,space,11.194611333077773,,,,,,,,,,,,,,,,,,,,,,,,,,,,,,,,,,,,,,,38074,2022-11-09_14h33.05.439,vts_reward_expectancy_bt_OFFLINE,2022.2.4,59.81407118843644,
0,0,0,1,0,0,1,0,star,hexagon,0,0,0,0,0,0,0,11,,,,,,,,,,,,280.4996556220576,280.4996556220576,280.4996556220576,280.4996556220576,280.4996556220576,280.4996556220576,280.4996556220576,280.4996556220576,280.4996556220576,280.4996556220576,a,2.1184439728967845,1,1,0,282.63524727895856,284.13714134693146,284.13714134693146,,,,,,,,,,,,,,,,,,,,,38074,2022-11-09_14h33.05.439,vts_reward_expectancy_bt_OFFLINE,2022.2.4,59.81407118843644,
0,0,1,0,0,1,0,0,hexagon,circle,0,0,0,0,0,1,1,7,,,,,,,,,,,,284.637665506918,284.637665506918,284.637665506918,284.637665506918,284.637665506918,284.637665506918,284.637665506918,284.637665506918,284.637665506918,284.637665506918,l,0.6346378391608596,1,2,0,285.30505540408194,,286.80680508189835,,,,,,,,,,,,,,,,,,,,,38074,2022-11-09_14h33.05.439,vts_reward_expectancy_bt_OFFLINE,2022.2.4,59.81407118843644,
1,0,0,0,0,0,1,0,triangle,hexagon,0,0,0,0,0,2,2,1,,,,,,,,,,,,287.3073549750261,287.3073549750261,287.3073549750261,287.3073549750261,287.3073549750261,287.3073549750261,287.3073549750261,287.3073549750261,287.3073549750261,287.3073549750261,a,0.3839415688998997,1,3,0,287.7076995749958,289.20927926991135,289.20927926991135,,,,,,,,,,,,,,,,,,,,,38074,2022-11-09_14h33.05.439,vts_reward_expectancy_bt_OFFLINE,2022.2.4,59.81407118843644,
0,1,0,0,0,0,0,1,circle,star,0,0,0,0,0,3,3,5,,,,,,,,,,,,289.70988451107405,289.70988451107405,289.70988451107405,289.70988451107405,289.70988451107405,289.70988451107405,289.70988451107405,289.70988451107405,289.70988451107405,289.70988451107405,a,0.26551023311913013,1,4,0,289.9935194689315,,291.4951855649706,,,,,,,,,,,,,,,,,,,,,38074,2022-11-09_14h33.05.439,vts_reward_expectancy_bt_OFFLINE,2022.2.4,59.81407118843644,
0,0,1,0,1,0,0,0,hexagon,triangle,0,0,0,0,0,4,4,6,,,,,,,,,,,,291.99583918903954,291.99583918903954,291.99583918903954,291.99583918903954,291.99583918903954,291.99583918903954,291.99583918903954,291.99583918903954,291.99583918903954,291.99583918903954,a,0.6113333501853049,1,5,0,292.6296805299353,,294.1314737969078,,,,,,,,,,,,,,,,,,,,,38074,2022-11-09_14h33.05.439,vts_reward_expectancy_bt_OFFLINE,2022.2.4,59.81407118843644,
0,0,1,0,0,0,0,1,hexagon,star,0,0,0,0,0,5,5,8,,,,,,,,,,,,294.63191883196123,294.63191883196123,294.63191883196123,294.63191883196123,294.63191883196123,294.63191883196123,294.63191883196123,294.63191883196123,294.63191883196123,294.63191883196123,l,0.35057152318768203,1,6,0,294.9991187960841,296.50078472401947,296.50078472401947,,,,,,,,,,,,,,,,,,,,,38074,2022-11-09_14h33.05.439,vts_reward_expectancy_bt_OFFLINE,2022.2.4,59.81407118843644,
0,1,0,0,0,0,1,0,circle,hexagon,0,0,0,0,0,6,6,4,,,,,,,,,,,,297.0013192698825,297.0013192698825,297.0013192698825,297.0013192698825,297.0013192698825,297.0013192698825,297.0013192698825,297.0013192698825,297.0013192698825,297.0013192698825,l,0.7362250341102481,1,7,0,297.7687472458929,,299.27055273693986,,,,,,,,,,,,,,,,,,,,,38074,2022-11-09_14h33.05.439,vts_reward_expectancy_bt_OFFLINE,2022.2.4,59.81407118843644,
1,0,0,0,0,1,0,0,triangle,circle,0,0,0,0,0,7,7,0,,,,,,,,,,,,299.770811551949,299.770811551949,299.770811551949,299.770811551949,299.770811551949,299.770811551949,299.770811551949,299.770811551949,299.770811551949,299.770811551949,l,0.43206614907830954,10,17,0,300.2212869368959,,301.7233242990915,,,,,,,,,,,,,,,,,,,,,38074,2022-11-09_14h33.05.439,vts_reward_expectancy_bt_OFFLINE,2022.2.4,59.81407118843644,
1,0,0,0,0,0,0,1,triangle,star,0,0,0,0,0,8,8,2,,,,,,,,,,,,302.22373266890645,302.22373266890645,302.22373266890645,302.22373266890645,302.22373266890645,302.22373266890645,302.22373266890645,302.22373266890645,302.22373266890645,302.22373266890645,a,0.4411190061364323,10,27,0,302.69073449098505,,304.1926524450537,,,,,,,,,,,,,,,,,,,,,38074,2022-11-09_14h33.05.439,vts_reward_expectancy_bt_OFFLINE,2022.2.4,59.81407118843644,
0,1,0,0,1,0,0,0,circle,triangle,0,0,0,0,0,9,9,3,,,,,,,,,,,,304.6929525639862,304.6929525639862,304.6929525639862,304.6929525639862,304.6929525639862,304.6929525639862,304.6929525639862,304.6929525639862,304.6929525639862,304.6929525639862,a,0.6177283730357885,10,37,0,305.3270889769774,306.8288091290742,306.8288091290742,307.32898402702995,,,,,,,,,,,,,,,,,,,,38074,2022-11-09_14h33.05.439,vts_reward_expectancy_bt_OFFLINE,2022.2.4,59.81407118843644,
0,0,0,1,0,1,0,0,star ,circle,0,0,0,0,0,10,10,10,,,,,,,,,,,,307.32898402702995,307.32898402702995,307.32898402702995,307.32898402702995,307.32898402702995,307.32898402702995,307.32898402702995,307.32898402702995,307.32898402702995,307.32898402702995,l,0.42122026812285185,1,38,0,307.7796628489159,,309.2812169638928,,,,,,,,,,,,,,,,,,,,,38074,2022-11-09_14h33.05.439,vts_reward_expectancy_bt_OFFLINE,2022.2.4,59.81407118843644,
0,0,0,1,1,0,0,0,star,triangle,0,0,0,0,0,11,11,9,,,,,,,,,,,,309.7819005209021,309.7819005209021,309.7819005209021,309.7819005209021,309.7819005209021,309.7819005209021,309.7819005209021,309.7819005209021,309.7819005209021,309.7819005209021,a,0.46775197121314704,10,48,0,310.2827127089258,,311.7841752790846,,,,,,,,,,,,,,,,,,,,,38074,2022-11-09_14h33.05.439,vts_reward_expectancy_bt_OFFLINE,2022.2.4,59.81407118843644,
1,0,0,0,0,0,0,1,triangle,star,0,0,0,0,1,0,12,2,,,,,,,,,,,,312.2845840288792,312.2845840288792,312.2845840288792,312.2845840288792,312.2845840288792,312.2845840288792,312.2845840288792,312.2845840288792,312.2845840288792,312.2845840288792,a,0.3370794472284615,10,58,0,312.6516613669228,,314.15344914002344,,,,,,,,,,,,,,,,,,,,,38074,2022-11-09_14h33.05.439,vts_reward_expectancy_bt_OFFLINE,2022.2.4,59.81407118843644,
0,1,0,0,0,0,1,0,circle,hexagon,0,0,0,0,1,1,13,4,,,,,,,,,,,,314.65379201690666,314.65379201690666,314.65379201690666,314.65379201690666,314.65379201690666,314.65379201690666,314.65379201690666,314.65379201690666,314.65379201690666,314.65379201690666,a,0.37623144523240626,10,68,0,315.0543398188893,,316.5561191639863,,,,,,,,,,,,,,,,,,,,,38074,2022-11-09_14h33.05.439,vts_reward_expectancy_bt_OFFLINE,2022.2.4,59.81407118843644,
0,0,1,0,0,1,0,0,hexagon,circle,0,0,0,0,1,2,14,7,,,,,,,,,,,,317.05677666608244,317.05677666608244,317.05677666608244,317.05677666608244,317.05677666608244,317.05677666608244,317.05677666608244,317.05677666608244,317.05677666608244,317.05677666608244,a,0.48457228508777916,1,69,0,317.5740724268835,,319.0755407488905,,,,,,,,,,,,,,,,,,,,,38074,2022-11-09_14h33.05.439,vts_reward_expectancy_bt_OFFLINE,2022.2.4,59.81407118843644,
0,0,0,1,1,0,0,0,star,triangle,0,0,0,0,1,3,15,9,,,,,,,,,,,,319.5759760320652,319.5759760320652,319.5759760320652,319.5759760320652,319.5759760320652,319.5759760320652,319.5759760320652,319.5759760320652,319.5759760320652,319.5759760320652,l,0.3147814520634711,10,79,0,319.9099941139575,,321.4113406809047,,,,,,,,,,,,,,,,,,,,,38074,2022-11-09_14h33.05.439,vts_reward_expectancy_bt_OFFLINE,2022.2.4,59.81407118843644,
0,1,0,0,1,0,0,0,circle,triangle,0,0,0,0,1,4,16,3,,,,,,,,,,,,321.9119687890634,321.9119687890634,321.9119687890634,321.9119687890634,321.9119687890634,321.9119687890634,321.9119687890634,321.9119687890634,321.9119687890634,321.9119687890634,a,0.352444414049387,10,89,0,322.2956053649541,,323.7974892340135,,,,,,,,,,,,,,,,,,,,,38074,2022-11-09_14h33.05.439,vts_reward_expectancy_bt_OFFLINE,2022.2.4,59.81407118843644,
0,1,0,0,0,0,0,1,circle,star,0,0,0,0,1,5,17,5,,,,,,,,,,,,324.2979961489327,324.2979961489327,324.2979961489327,324.2979961489327,324.2979961489327,324.2979961489327,324.2979961489327,324.2979961489327,324.2979961489327,324.2979961489327,l,0.31799727119505405,1,90,0,324.6483162669465,,326.1501933040563,,,,,,,,,,,,,,,,,,,,,38074,2022-11-09_14h33.05.439,vts_reward_expectancy_bt_OFFLINE,2022.2.4,59.81407118843644,
0,0,1,0,0,0,0,1,hexagon,star,0,0,0,0,1,6,18,8,,,,,,,,,,,,326.65068521210924,326.65068521210924,326.65068521210924,326.65068521210924,326.65068521210924,326.65068521210924,326.65068521210924,326.65068521210924,326.65068521210924,326.65068521210924,a,0.30598886008374393,10,100,0,326.9842556370422,,328.4859546639491,,,,,,,,,,,,,,,,,,,,,38074,2022-11-09_14h33.05.439,vts_reward_expectancy_bt_OFFLINE,2022.2.4,59.81407118843644,
0,0,1,0,1,0,0,0,hexagon,triangle,0,0,0,0,1,7,19,6,,,,,,,,,,,,328.986544854939,328.986544854939,328.986544854939,328.986544854939,328.986544854939,328.986544854939,328.986544854939,328.986544854939,328.986544854939,328.986544854939,l,0.32017706404440105,10,110,0,329.3368510999717,,330.8382973410189,,,,,,,,,,,,,,,,,,,,,38074,2022-11-09_14h33.05.439,vts_reward_expectancy_bt_OFFLINE,2022.2.4,59.81407118843644,
0,0,0,1,0,0,1,0,star,hexagon,0,0,0,0,1,8,20,11,,,,,,,,,,,,331.33913145097904,331.33913145097904,331.33913145097904,331.33913145097904,331.33913145097904,331.33913145097904,331.33913145097904,331.33913145097904,331.33913145097904,331.33913145097904,a,0.37586429505608976,1,111,0,331.7393483968917,,333.24106953991577,,,,,,,,,,,,,,,,,,,,,38074,2022-11-09_14h33.05.439,vts_reward_expectancy_bt_OFFLINE,2022.2.4,59.81407118843644,
1,0,0,0,0,0,1,0,triangle,hexagon,0,0,0,0,1,9,21,1,,,,,,,,,,,,333.7416362990625,333.7416362990625,333.7416362990625,333.7416362990625,333.7416362990625,333.7416362990625,333.7416362990625,333.7416362990625,333.7416362990625,333.7416362990625,l,0.2690063831396401,1,112,0,334.04213433200493,,335.5437398259528,,,,,,,,,,,,,,,,,,,,,38074,2022-11-09_14h33.05.439,vts_reward_expectancy_bt_OFFLINE,2022.2.4,59.81407118843644,
1,0,0,0,0,1,0,0,triangle,circle,0,0,0,0,1,10,22,0,,,,,,,,,,,,336.04435746604577,336.04435746604577,336.04435746604577,336.04435746604577,336.04435746604577,336.04435746604577,336.04435746604577,336.04435746604577,336.04435746604577,336.04435746604577,a,0.31788909202441573,1,113,0,336.39460068009794,337.89584323600866,337.89584323600866,,,,,,,,,,,,,,,,,,,,,38074,2022-11-09_14h33.05.439,vts_reward_expectancy_bt_OFFLINE,2022.2.4,59.81407118843644,
0,0,0,1,0,1,0,0,star ,circle,0,0,0,0,1,11,23,10,,,,,,,,,,,,338.396402657032,338.396402657032,338.396402657032,338.396402657032,338.396402657032,338.396402657032,338.396402657032,338.396402657032,338.396402657032,338.396402657032,a,0.28404965810477734,1,114,0,338.6967006169725,340.19881046097726,340.19881046097726,,,,,,,,,,,,,,,,,,,,,38074,2022-11-09_14h33.05.439,vts_reward_expectancy_bt_OFFLINE,2022.2.4,59.81407118843644,
0,1,0,0,0,0,1,0,circle,hexagon,0,0,0,0,2,0,24,4,,,,,,,,,,,,340.6994120751042,340.6994120751042,340.6994120751042,340.6994120751042,340.6994120751042,340.6994120751042,340.6994120751042,340.6994120751042,340.6994120751042,340.6994120751042,l,0.2749957509804517,10,124,0,340.9996400659438,,342.5013224610593,,,,,,,,,,,,,,,,,,,,,38074,2022-11-09_14h33.05.439,vts_reward_expectancy_bt_OFFLINE,2022.2.4,59.81407118843644,
0,0,1,0,1,0,0,0,hexagon,triangle,0,0,0,0,2,1,25,6,,,,,,,,,,,,343.0020548359025,343.0020548359025,343.0020548359025,343.0020548359025,343.0020548359025,343.0020548359025,343.0020548359025,343.0020548359025,343.0020548359025,343.0020548359025,l,0.550992168020457,10,134,0,343.58583415695466,,345.08763595391065,,,,,,,,,,,,,,,,,,,,,38074,2022-11-09_14h33.05.439,vts_reward_expectancy_bt_OFFLINE,2022.2.4,59.81407118843644,
0,0,0,1,0,0,1,0,star,hexagon,0,0,0,0,2,2,26,11,,,,,,,,,,,,345.5879922870081,345.5879922870081,345.5879922870081,345.5879922870081,345.5879922870081,345.5879922870081,345.5879922870081,345.5879922870081,345.5879922870081,345.5879922870081,l,0.34973872103728354,1,135,0,345.95528974500485,347.4570131399669,347.4570131399669,,,,,,,,,,,,,,,,,,,,,38074,2022-11-09_14h33.05.439,vts_reward_expectancy_bt_OFFLINE,2022.2.4,59.81407118843644,
0,0,1,0,0,0,0,1,hexagon,star,0,0,0,0,2,3,27,8,,,,,,,,,,,,347.95738184591755,347.95738184591755,347.95738184591755,347.95738184591755,347.95738184591755,347.95738184591755,347.95738184591755,347.95738184591755,347.95738184591755,347.95738184591755,a,0.29584036697633564,10,145,0,348.27434041001834,,349.7761131960433,,,,,,,,,,,,,,,,,,,,,38074,2022-11-09_14h33.05.439,vts_reward_expectancy_bt_OFFLINE,2022.2.4,59.81407118843644,
1,0,0,0,0,0,1,0,triangle,hexagon,0,0,0,0,2,4,28,1,,,,,,,,,,,,350.2767938559409,350.2767938559409,350.2767938559409,350.2767938559409,350.2767938559409,350.2767938559409,350.2767938559409,350.2767938559409,350.2767938559409,350.2767938559409,a,0.2945019791368395,10,155,0,350.59372062492184,,352.09518348705024,,,,,,,,,,,,,,,,,,,,,38074,2022-11-09_14h33.05.439,vts_reward_expectancy_bt_OFFLINE,2022.2.4,59.81407118843644,
0,1,0,0,1,0,0,0,circle,triangle,0,0,0,0,2,5,29,3,,,,,,,,,,,,352.59597433102317,352.59597433102317,352.59597433102317,352.59597433102317,352.59597433102317,352.59597433102317,352.59597433102317,352.59597433102317,352.59597433102317,352.59597433102317,a,0.3373889080248773,1,156,0,352.9629704048857,,354.4645843319595,,,,,,,,,,,,,,,,,,,,,38074,2022-11-09_14h33.05.439,vts_reward_expectancy_bt_OFFLINE,2022.2.4,59.81407118843644,
0,0,0,1,0,1,0,0,star ,circle,0,0,0,0,2,6,30,10,,,,,,,,,,,,354.96528511098586,354.96528511098586,354.96528511098586,354.96528511098586,354.96528511098586,354.96528511098586,354.96528511098586,354.96528511098586,354.96528511098586,354.96528511098586,l,0.30937158106826246,10,166,0,355.2990131310653,,356.8004455349874,,,,,,,,,,,,,,,,,,,,,38074,2022-11-09_14h33.05.439,vts_reward_expectancy_bt_OFFLINE,2022.2.4,59.81407118843644,
0,0,1,0,0,1,0,0,hexagon,circle,0,0,0,0,2,7,31,7,,,,,,,,,,,,357.30131699494086,357.30131699494086,357.30131699494086,357.30131699494086,357.30131699494086,357.30131699494086,357.30131699494086,357.30131699494086,357.30131699494086,357.30131699494086,a,0.381117737153545,1,167,0,357.7016264300328,,359.20328890695237,,,,,,,,,,,,,,,,,,,,,38074,2022-11-09_14h33.05.439,vts_reward_expectancy_bt_OFFLINE,2022.2.4,59.81407118843644,
0,1,0,0,0,0,0,1,circle,star,0,0,0,0,2,8,32,5,,,,,,,,,,,,359.7036026220303,359.7036026220303,359.7036026220303,359.7036026220303,359.7036026220303,359.7036026220303,359.7036026220303,359.7036026220303,359.7036026220303,359.7036026220303,l,0.39761343598365784,1,168,0,360.1209171190858,,361.6224237270653,,,,,,,,,,,,,,,,,,,,,38074,2022-11-09_14h33.05.439,vts_reward_expectancy_bt_OFFLINE,2022.2.4,59.81407118843644,
1,0,0,0,0,0,0,1,triangle,star,0,0,0,0,2,9,33,2,,,,,,,,,,,,362.1231686200481,362.1231686200481,362.1231686200481,362.1231686200481,362.1231686200481,362.1231686200481,362.1231686200481,362.1231686200481,362.1231686200481,362.1231686200481,l,0.4650432881899178,1,169,0,362.6068792520091,,364.1085911709815,,,,,,,,,,,,,,,,,,,,,38074,2022-11-09_14h33.05.439,vts_reward_expectancy_bt_OFFLINE,2022.2.4,59.81407118843644,
1,0,0,0,0,1,0,0,triangle,circle,0,0,0,0,2,10,34,0,,,,,,,,,,,,364.60917853191495,364.60917853191495,364.60917853191495,364.60917853191495,364.60917853191495,364.60917853191495,364.60917853191495,364.60917853191495,364.60917853191495,364.60917853191495,a,0.3414730071090162,10,179,0,364.9762006669771,,366.47793768602423,,,,,,,,,,,,,,,,,,,,,38074,2022-11-09_14h33.05.439,vts_reward_expectancy_bt_OFFLINE,2022.2.4,59.81407118843644,
0,0,0,1,1,0,0,0,star,triangle,0,0,0,0,2,11,35,9,,,,,,,,,,,,366.9783083999064,366.9783083999064,366.9783083999064,366.9783083999064,366.9783083999064,366.9783083999064,366.9783083999064,366.9783083999064,366.9783083999064,366.9783083999064,a,0.3450286742299795,1,180,0,367.3454224220477,,368.84729061392136,,,,,,,,,,,,,,,,,,,,,38074,2022-11-09_14h33.05.439,vts_reward_expectancy_bt_OFFLINE,2022.2.4,59.81407118843644,
1,0,0,0,0,1,0,0,triangle,circle,0,0,0,0,3,0,36,0,,,,,,,,,,,,369.3477081810124,369.3477081810124,369.3477081810124,369.3477081810124,369.3477081810124,369.3477081810124,369.3477081810124,369.3477081810124,369.3477081810124,369.3477081810124,a,0.6763307969085872,10,190,0,370.0484852970112,,371.55006796191446,,,,,,,,,,,,,,,,,,,,,38074,2022-11-09_14h33.05.439,vts_reward_expectancy_bt_OFFLINE,2022.2.4,59.81407118843644,
0,0,0,1,1,0,0,0,star,triangle,0,0,0,0,3,1,37,9,,,,,,,,,,,,372.05067346594296,372.05067346594296,372.05067346594296,372.05067346594296,372.05067346594296,372.05067346594296,372.05067346594296,372.05067346594296,372.05067346594296,372.05067346594296,l,0.538933846866712,1,191,0,372.61796919908375,,374.1196301439777,,,,,,,,,,,,,,,,,,,,,38074,2022-11-09_14h33.05.439,vts_reward_expectancy_bt_OFFLINE,2022.2.4,59.81407118843644,
0,0,1,0,0,0,0,1,hexagon,star,0,0,0,0,3,2,38,8,,,,,,,,,,,,374.6200509238988,374.6200509238988,374.6200509238988,374.6200509238988,374.6200509238988,374.6200509238988,374.6200509238988,374.6200509238988,374.6200509238988,374.6200509238988,a,0.38864889508113265,10,201,0,375.03733718092553,,376.53903428209014,,,,,,,,,,,,,,,,,,,,,38074,2022-11-09_14h33.05.439,vts_reward_expectancy_bt_OFFLINE,2022.2.4,59.81407118843644,
0,1,0,0,0,0,1,0,circle,hexagon,0,0,0,0,3,3,39,4,,,,,,,,,,,,377.03965252195485,377.03965252195485,377.03965252195485,377.03965252195485,377.03965252195485,377.03965252195485,377.03965252195485,377.03965252195485,377.03965252195485,377.03965252195485,a,3.3033434911631048,10,211,0,380.35973206092604,381.8613366619684,381.8613366619684,,,,,,,,,,,,,,,,,,,,,38074,2022-11-09_14h33.05.439,vts_reward_expectancy_bt_OFFLINE,2022.2.4,59.81407118843644,
0,0,0,1,0,0,1,0,star,hexagon,0,0,0,0,3,4,40,11,,,,,,,,,,,,382.3620231610257,382.3620231610257,382.3620231610257,382.3620231610257,382.3620231610257,382.3620231610257,382.3620231610257,382.3620231610257,382.3620231610257,382.3620231610257,l,0.5680353541392833,10,221,0,382.9624392138794,,384.4642004019115,,,,,,,,,,,,,,,,,,,,,38074,2022-11-09_14h33.05.439,vts_reward_expectancy_bt_OFFLINE,2022.2.4,59.81407118843644,
0,0,1,0,0,1,0,0,hexagon,circle,0,0,0,0,3,5,41,7,,,,,,,,,,,,384.96496794209816,384.96496794209816,384.96496794209816,384.96496794209816,384.96496794209816,384.96496794209816,384.96496794209816,384.96496794209816,384.96496794209816,384.96496794209816,a,0.4180927451234311,10,231,0,385.41550731193274,,386.91704138205387,,,,,,,,,,,,,,,,,,,,,38074,2022-11-09_14h33.05.439,vts_reward_expectancy_bt_OFFLINE,2022.2.4,59.81407118843644,
0,1,0,0,0,0,0,1,circle,star,0,0,0,0,3,6,42,5,,,,,,,,,,,,387.4176253960468,387.4176253960468,387.4176253960468,387.4176253960468,387.4176253960468,387.4176253960468,387.4176253960468,387.4176253960468,387.4176253960468,387.4176253960468,l,0.31709801801480353,1,232,0,387.7514466769062,389.2529917298816,389.2529917298816,,,,,,,,,,,,,,,,,,,,,38074,2022-11-09_14h33.05.439,vts_reward_expectancy_bt_OFFLINE,2022.2.4,59.81407118843644,
0,0,0,1,0,1,0,0,star ,circle,0,0,0,0,3,7,43,10,,,,,,,,,,,,389.75350901600905,389.75350901600905,389.75350901600905,389.75350901600905,389.75350901600905,389.75350901600905,389.75350901600905,389.75350901600905,389.75350901600905,389.75350901600905,a,0.2853709349874407,1,233,0,390.0706050770823,391.5719994790852,391.5719994790852,,,,,,,,,,,,,,,,,,,,,38074,2022-11-09_14h33.05.439,vts_reward_expectancy_bt_OFFLINE,2022.2.4,59.81407118843644,
0,1,0,0,1,0,0,0,circle,triangle,0,0,0,0,3,8,44,3,,,,,,,,,,,,392.0727317959536,392.0727317959536,392.0727317959536,392.0727317959536,392.0727317959536,392.0727317959536,392.0727317959536,392.0727317959536,392.0727317959536,392.0727317959536,a,0.3965711882337928,1,234,0,392.4898788090795,,393.9913797820918,,,,,,,,,,,,,,,,,,,,,38074,2022-11-09_14h33.05.439,vts_reward_expectancy_bt_OFFLINE,2022.2.4,59.81407118843644,
1,0,0,0,0,0,0,1,triangle,star,0,0,0,0,3,9,45,2,,,,,,,,,,,,394.4921747990884,394.4921747990884,394.4921747990884,394.4921747990884,394.4921747990884,394.4921747990884,394.4921747990884,394.4921747990884,394.4921747990884,394.4921747990884,a,0.30731759523041546,10,244,0,394.82569683203474,,396.32754759606905,,,,,,,,,,,,,,,,,,,,,38074,2022-11-09_14h33.05.439,vts_reward_expectancy_bt_OFFLINE,2022.2.4,59.81407118843644,
0,0,1,0,1,0,0,0,hexagon,triangle,0,0,0,0,3,10,46,6,,,,,,,,,,,,396.8281100760214,396.8281100760214,396.8281100760214,396.8281100760214,396.8281100760214,396.8281100760214,396.8281100760214,396.8281100760214,396.8281100760214,396.8281100760214,a,0.33458277909085155,1,245,0,397.1950931120664,,398.6968604470603,,,,,,,,,,,,,,,,,,,,,38074,2022-11-09_14h33.05.439,vts_reward_expectancy_bt_OFFLINE,2022.2.4,59.81407118843644,
1,0,0,0,0,0,1,0,triangle,hexagon,0,0,0,0,3,11,47,1,,,,,,,,,,,,399.1972657109145,399.1972657109145,399.1972657109145,399.1972657109145,399.1972657109145,399.1972657109145,399.1972657109145,399.1972657109145,399.1972657109145,399.1972657109145,a,0.35088625317439437,10,255,0,399.58090762607753,,401.0826456719078,,,,,,,,,,,,,,,,,,,,,38074,2022-11-09_14h33.05.439,vts_reward_expectancy_bt_OFFLINE,2022.2.4,59.81407118843644,
0,0,0,1,0,0,1,0,star,hexagon,1,0,1,0,0,0,0,11,,,,,,,,,,,,407.5066793470178,407.5066793470178,407.5066793470178,407.5066793470178,407.5066793470178,407.5066793470178,407.5066793470178,407.5066793470178,407.5066793470178,407.5066793470178,a,0.7363657741807401,1,256,1,408.273944840068,,409.7757313319016,,,,,,,,,,,,,,,,,,,,,38074,2022-11-09_14h33.05.439,vts_reward_expectancy_bt_OFFLINE,2022.2.4,59.81407118843644,
0,0,0,1,1,0,0,0,star,triangle,1,0,1,0,0,1,1,9,,,,,,,,,,,,410.2760725659318,410.2760725659318,410.2760725659318,410.2760725659318,410.2760725659318,410.2760725659318,410.2760725659318,410.2760725659318,410.2760725659318,410.2760725659318,l,0.3632898770738393,1,257,1,410.65996774705127,,412.1614084690809,,,,,,,,,,,,,,,,,,,,,38074,2022-11-09_14h33.05.439,vts_reward_expectancy_bt_OFFLINE,2022.2.4,59.81407118843644,
0,0,1,0,0,0,0,1,hexagon,star,1,0,1,0,0,2,2,8,,,,,,,,,,,,412.66199141088873,412.66199141088873,412.66199141088873,412.66199141088873,412.66199141088873,412.66199141088873,412.66199141088873,412.66199141088873,412.66199141088873,412.66199141088873,a,0.3288133288733661,1,258,1,413.0126456168946,,414.51419880706817,,,,,,,,,,,,,,,,,,,,,38074,2022-11-09_14h33.05.439,vts_reward_expectancy_bt_OFFLINE,2022.2.4,59.81407118843644,
0,0,1,0,0,1,0,0,hexagon,circle,1,0,1,0,0,3,3,7,,,,,,,,,,,,415.01460875198245,415.01460875198245,415.01460875198245,415.01460875198245,415.01460875198245,415.01460875198245,415.01460875198245,415.01460875198245,415.01460875198245,415.01460875198245,l,0.2707913259509951,10,268,1,415.3149924050085,,416.8166598859243,,,,,,,,,,,,,,,,,,,,,38074,2022-11-09_14h33.05.439,vts_reward_expectancy_bt_OFFLINE,2022.2.4,59.81407118843644,
0,1,0,0,1,0,0,0,circle,triangle,1,0,1,0,0,4,4,3,,,,,,,,,,,,417.31711868103594,417.31711868103594,417.31711868103594,417.31711868103594,417.31711868103594,417.31711868103594,417.31711868103594,417.31711868103594,417.31711868103594,417.31711868103594,a,0.10745551390573382,10,278,1,417.45065110898577,,418.9522663708776,,,,,,,,,,,,,,,,,,,,,38074,2022-11-09_14h33.05.439,vts_reward_expectancy_bt_OFFLINE,2022.2.4,59.81407118843644,
1,0,0,0,0,0,0,1,triangle,star,1,0,1,0,0,5,5,2,,,,,,,,,,,,419.45286924694665,419.45286924694665,419.45286924694665,419.45286924694665,419.45286924694665,419.45286924694665,419.45286924694665,419.45286924694665,419.45286924694665,419.45286924694665,a,0.17600593995302916,1,279,1,419.65305033908226,,421.1547330270987,,,,,,,,,,,,,,,,,,,,,38074,2022-11-09_14h33.05.439,vts_reward_expectancy_bt_OFFLINE,2022.2.4,59.81407118843644,
0,1,0,0,0,0,1,0,circle,hexagon,1,0,1,0,0,6,6,4,,,,,,,,,,,,421.65536264609545,421.65536264609545,421.65536264609545,421.65536264609545,421.65536264609545,421.65536264609545,421.65536264609545,421.65536264609545,421.65536264609545,421.65536264609545,a,0.7753572470974177,1,280,1,422.456295320997,,423.9579180860892,,,,,,,,,,,,,,,,,,,,,38074,2022-11-09_14h33.05.439,vts_reward_expectancy_bt_OFFLINE,2022.2.4,59.81407118843644,
0,0,1,0,1,0,0,0,hexagon,triangle,1,0,1,0,0,7,7,6,,,,,,,,,,,,424.45839968090877,424.45839968090877,424.45839968090877,424.45839968090877,424.45839968090877,424.45839968090877,424.45839968090877,424.45839968090877,424.45839968090877,424.45839968090877,a,0.48187003703787923,10,290,1,424.9590091588907,,426.4607142698951,,,,,,,,,,,,,,,,,,,,,38074,2022-11-09_14h33.05.439,vts_reward_expectancy_bt_OFFLINE,2022.2.4,59.81407118843644,
1,0,0,0,0,0,1,0,triangle,hexagon,1,0,1,0,0,8,8,1,,,,,,,,,,,,426.96111618098803,426.96111618098803,426.96111618098803,426.96111618098803,426.96111618098803,426.96111618098803,426.96111618098803,426.96111618098803,426.96111618098803,426.96111618098803,l,0.38530775904655457,1,291,1,427.3782444950193,,428.8799243969843,,,,,,,,,,,,,,,,,,,,,38074,2022-11-09_14h33.05.439,vts_reward_expectancy_bt_OFFLINE,2022.2.4,59.81407118843644,
0,0,0,1,0,1,0,0,star ,circle,1,0,1,0,0,9,9,10,,,,,,,,,,,,429.38056883588433,429.38056883588433,429.38056883588433,429.38056883588433,429.38056883588433,429.38056883588433,429.38056883588433,429.38056883588433,429.38056883588433,429.38056883588433,a,0.09304637112654746,1,292,1,429.49715453688987,,430.9990580889862,,,,,,,,,,,,,,,,,,,,,38074,2022-11-09_14h33.05.439,vts_reward_expectancy_bt_OFFLINE,2022.2.4,59.81407118843644,
1,0,0,0,0,1,0,0,triangle,circle,1,0,1,0,0,10,10,0,,,,,,,,,,,,431.4995093808975,431.4995093808975,431.4995093808975,431.4995093808975,431.4995093808975,431.4995093808975,431.4995093808975,431.4995093808975,431.4995093808975,431.4995093808975,a,0.03381269611418247,10,302,1,431.5499250649009,433.0512889660895,433.0512889660895,,,,,,,,,,,,,,,,,,,,,38074,2022-11-09_14h33.05.439,vts_reward_expectancy_bt_OFFLINE,2022.2.4,59.81407118843644,
0,1,0,0,0,0,0,1,circle,star,1,0,1,0,0,11,11,5,,,,,,,,,,,,433.5519847199321,433.5519847199321,433.5519847199321,433.5519847199321,433.5519847199321,433.5519847199321,433.5519847199321,433.5519847199321,433.5519847199321,433.5519847199321,a,0.08442353806458414,10,312,1,433.66879866598174,,435.1703382451087,,,,,,,,,,,,,,,,,,,,,38074,2022-11-09_14h33.05.439,vts_reward_expectancy_bt_OFFLINE,2022.2.4,59.81407118843644,
0,0,0,1,1,0,0,0,star,triangle,1,0,1,0,1,0,12,9,,,,,,,,,,,,435.67080914694816,435.67080914694816,435.67080914694816,435.67080914694816,435.67080914694816,435.67080914694816,435.67080914694816,435.67080914694816,435.67080914694816,435.67080914694816,a,0.08133393013849854,10,322,1,435.77089880988933,,437.2725103800185,,,,,,,,,,,,,,,,,,,,,38074,2022-11-09_14h33.05.439,vts_reward_expectancy_bt_OFFLINE,2022.2.4,59.81407118843644,
0,0,1,0,0,1,0,0,hexagon,circle,1,0,1,0,1,1,13,7,,,,,,,,,,,,437.77306594210677,437.77306594210677,437.77306594210677,437.77306594210677,437.77306594210677,437.77306594210677,437.77306594210677,437.77306594210677,437.77306594210677,437.77306594210677,a,0.46518088108859956,1,323,1,438.256877690088,,439.7587126889266,,,,,,,,,,,,,,,,,,,,,38074,2022-11-09_14h33.05.439,vts_reward_expectancy_bt_OFFLINE,2022.2.4,59.81407118843644,
0,0,0,1,0,0,1,0,star,hexagon,1,0,1,0,1,2,14,11,,,,,,,,,,,,440.2591236100998,440.2591236100998,440.2591236100998,440.2591236100998,440.2591236100998,440.2591236100998,440.2591236100998,440.2591236100998,440.2591236100998,440.2591236100998,l,0.25165190314874053,10,333,1,440.5428221570328,,442.0445520048961,,,,,,,,,,,,,,,,,,,,,38074,2022-11-09_14h33.05.439,vts_reward_expectancy_bt_OFFLINE,2022.2.4,59.81407118843644,
1,0,0,0,0,0,1,0,triangle,hexagon,1,0,1,0,1,3,15,1,,,,,,,,,,,,442.5452155920211,442.5452155920211,442.5452155920211,442.5452155920211,442.5452155920211,442.5452155920211,442.5452155920211,442.5452155920211,442.5452155920211,442.5452155920211,a,0.7779882920440286,1,334,1,443.345931696007,,444.84782444895245,,,,,,,,,,,,,,,,,,,,,38074,2022-11-09_14h33.05.439,vts_reward_expectancy_bt_OFFLINE,2022.2.4,59.81407118843644,
0,1,0,0,0,0,0,1,circle,star,1,0,1,0,1,4,16,5,,,,,,,,,,,,445.34827074198984,445.34827074198984,445.34827074198984,445.34827074198984,445.34827074198984,445.34827074198984,445.34827074198984,445.34827074198984,445.34827074198984,445.34827074198984,l,0.5074071332346648,10,344,1,445.88201399403624,,447.3836938799359,,,,,,,,,,,,,,,,,,,,,38074,2022-11-09_14h33.05.439,vts_reward_expectancy_bt_OFFLINE,2022.2.4,59.81407118843644,
0,1,0,0,1,0,0,0,circle,triangle,1,0,1,0,1,5,17,3,,,,,,,,,,,,447.8841709319968,447.8841709319968,447.8841709319968,447.8841709319968,447.8841709319968,447.8841709319968,447.8841709319968,447.8841709319968,447.8841709319968,447.8841709319968,l,0.4110041728708893,1,345,1,448.31798716890626,,449.8196939888876,,,,,,,,,,,,,,,,,,,,,38074,2022-11-09_14h33.05.439,vts_reward_expectancy_bt_OFFLINE,2022.2.4,59.81407118843644,
1,0,0,0,0,1,0,0,triangle,circle,1,0,1,0,1,6,18,0,,,,,,,,,,,,450.3204959919676,450.3204959919676,450.3204959919676,450.3204959919676,450.3204959919676,450.3204959919676,450.3204959919676,450.3204959919676,450.3204959919676,450.3204959919676,a,0.2933349821250886,10,355,1,450.6371869388968,,452.13894572202116,,,,,,,,,,,,,,,,,,,,,38074,2022-11-09_14h33.05.439,vts_reward_expectancy_bt_OFFLINE,2022.2.4,59.81407118843644,
0,0,0,1,0,1,0,0,star ,circle,1,0,1,0,1,7,19,10,,,,,,,,,,,,452.63957422599196,452.63957422599196,452.63957422599196,452.63957422599196,452.63957422599196,452.63957422599196,452.63957422599196,452.63957422599196,452.63957422599196,452.63957422599196,a,0.2919717540498823,10,365,1,452.956490094075,,454.45813385699876,,,,,,,,,,,,,,,,,,,,,38074,2022-11-09_14h33.05.439,vts_reward_expectancy_bt_OFFLINE,2022.2.4,59.81407118843644,
0,0,1,0,1,0,0,0,hexagon,triangle,1,0,1,0,1,8,20,6,,,,,,,,,,,,454.9586873271037,454.9586873271037,454.9586873271037,454.9586873271037,454.9586873271037,454.9586873271037,454.9586873271037,454.9586873271037,454.9586873271037,454.9586873271037,a,0.3461774601601064,1,366,1,455.32589754089713,,456.82773768901825,,,,,,,,,,,,,,,,,,,,,38074,2022-11-09_14h33.05.439,vts_reward_expectancy_bt_OFFLINE,2022.2.4,59.81407118843644,
0,1,0,0,0,0,1,0,circle,hexagon,1,0,1,0,1,9,21,4,,,,,,,,,,,,457.3281213310547,457.3281213310547,457.3281213310547,457.3281213310547,457.3281213310547,457.3281213310547,457.3281213310547,457.3281213310547,457.3281213310547,457.3281213310547,l,0.28462473303079605,1,367,1,457.64519448392093,,459.1467264650855,,,,,,,,,,,,,,,,,,,,,38074,2022-11-09_14h33.05.439,vts_reward_expectancy_bt_OFFLINE,2022.2.4,59.81407118843644,
1,0,0,0,0,0,0,1,triangle,star,1,0,1,0,1,10,22,2,,,,,,,,,,,,459.6473048310727,459.6473048310727,459.6473048310727,459.6473048310727,459.6473048310727,459.6473048310727,459.6473048310727,459.6473048310727,459.6473048310727,459.6473048310727,a,0.29369438788853586,10,377,1,459.96431656507775,,461.4658882669173,,,,,,,,,,,,,,,,,,,,,38074,2022-11-09_14h33.05.439,vts_reward_expectancy_bt_OFFLINE,2022.2.4,59.81407118843644,
0,0,1,0,0,0,0,1,hexagon,star,1,0,1,0,1,11,23,8,,,,,,,,,,,,461.96657122601755,461.96657122601755,461.96657122601755,461.96657122601755,461.96657122601755,461.96657122601755,461.96657122601755,461.96657122601755,461.96657122601755,461.96657122601755,a,0.39269015309400856,1,378,1,462.38365970994346,,463.885415581055,,,,,,,,,,,,,,,,,,,,,38074,2022-11-09_14h33.05.439,vts_reward_expectancy_bt_OFFLINE,2022.2.4,59.81407118843644,
0,1,0,0,0,0,0,1,circle,star,1,0,1,0,2,0,24,5,,,,,,,,,,,,464.3858968298882,464.3858968298882,464.3858968298882,464.3858968298882,464.3858968298882,464.3858968298882,464.3858968298882,464.3858968298882,464.3858968298882,464.3858968298882,a,0.36911315214820206,10,388,1,464.7864520261064,,466.2880995620508,,,,,,,,,,,,,,,,,,,,,38074,2022-11-09_14h33.05.439,vts_reward_expectancy_bt_OFFLINE,2022.2.4,59.81407118843644,
1,0,0,0,0,0,0,1,triangle,star,1,0,1,0,2,1,25,2,,,,,,,,,,,,466.7885380249936,466.7885380249936,466.7885380249936,466.7885380249936,466.7885380249936,466.7885380249936,466.7885380249936,466.7885380249936,466.7885380249936,466.7885380249936,a,0.3181274200323969,1,389,1,467.1390463160351,,468.6405878190417,,,,,,,,,,,,,,,,,,,,,38074,2022-11-09_14h33.05.439,vts_reward_expectancy_bt_OFFLINE,2022.2.4,59.81407118843644,
0,1,0,0,1,0,0,0,circle,triangle,1,0,1,0,2,2,26,3,,,,,,,,,,,,469.1411010660231,469.1411010660231,469.1411010660231,469.1411010660231,469.1411010660231,469.1411010660231,469.1411010660231,469.1411010660231,469.1411010660231,469.1411010660231,a,0.35114908521063626,10,399,1,469.5248608959373,,471.02631066692993,,,,,,,,,,,,,,,,,,,,,38074,2022-11-09_14h33.05.439,vts_reward_expectancy_bt_OFFLINE,2022.2.4,59.81407118843644,
0,0,1,0,0,0,0,1,hexagon,star,1,0,1,0,2,3,27,8,,,,,,,,,,,,471.5269419089891,471.5269419089891,471.5269419089891,471.5269419089891,471.5269419089891,471.5269419089891,471.5269419089891,471.5269419089891,471.5269419089891,471.5269419089891,a,0.31725523597560823,1,400,1,471.8612021189183,473.3624933499377,473.3624933499377,473.8630189569667,,,,,,,,,,,,,,,,,,,,38074,2022-11-09_14h33.05.439,vts_reward_expectancy_bt_OFFLINE,2022.2.4,59.81407118843644,
0,0,1,0,0,1,0,0,hexagon,circle,1,0,1,0,2,4,28,7,,,,,,,,,,,,473.8630189569667,473.8630189569667,473.8630189569667,473.8630189569667,473.8630189569667,473.8630189569667,473.8630189569667,473.8630189569667,473.8630189569667,473.8630189569667,a,0.30026991199702024,1,401,1,474.17996219405904,475.681706833886,475.681706833886,,,,,,,,,,,,,,,,,,,,,38074,2022-11-09_14h33.05.439,vts_reward_expectancy_bt_OFFLINE,2022.2.4,59.81407118843644,
0,0,0,1,1,0,0,0,star,triangle,1,0,1,0,2,5,29,9,,,,,,,,,,,,476.1820766169112,476.1820766169112,476.1820766169112,476.1820766169112,476.1820766169112,476.1820766169112,476.1820766169112,476.1820766169112,476.1820766169112,476.1820766169112,l,0.16202789917588234,1,402,1,476.3658115461003,,477.867482152069,,,,,,,,,,,,,,,,,,,,,38074,2022-11-09_14h33.05.439,vts_reward_expectancy_bt_OFFLINE,2022.2.4,59.81407118843644,
0,0,0,1,0,0,1,0,star,hexagon,1,0,1,0,2,6,30,11,,,,,,,,,,,,478.3680068370886,478.3680068370886,478.3680068370886,478.3680068370886,478.3680068370886,478.3680068370886,478.3680068370886,478.3680068370886,478.3680068370886,478.3680068370886,a,0.44094860390760005,10,412,1,478.8349833819084,,480.3368695760146,,,,,,,,,,,,,,,,,,,,,38074,2022-11-09_14h33.05.439,vts_reward_expectancy_bt_OFFLINE,2022.2.4,59.81407118843644,
0,0,0,1,0,1,0,0,star ,circle,1,0,1,0,2,7,31,10,,,,,,,,,,,,480.8373028100468,480.8373028100468,480.8373028100468,480.8373028100468,480.8373028100468,480.8373028100468,480.8373028100468,480.8373028100468,480.8373028100468,480.8373028100468,l,0.37833584006875753,1,413,1,481.2378014770802,,482.7396301201079,,,,,,,,,,,,,,,,,,,,,38074,2022-11-09_14h33.05.439,vts_reward_expectancy_bt_OFFLINE,2022.2.4,59.81407118843644,
0,0,1,0,1,0,0,0,hexagon,triangle,1,0,1,0,2,8,32,6,,,,,,,,,,,,483.2398221560288,483.2398221560288,483.2398221560288,483.2398221560288,483.2398221560288,483.2398221560288,483.2398221560288,483.2398221560288,483.2398221560288,483.2398221560288,a,1.7361342450603843,10,423,1,485.0085062470753,,486.51052180700935,,,,,,,,,,,,,,,,,,,,,38074,2022-11-09_14h33.05.439,vts_reward_expectancy_bt_OFFLINE,2022.2.4,59.81407118843644,
0,1,0,0,0,0,1,0,circle,hexagon,1,0,1,0,2,9,33,4,,,,,,,,,,,,487.0108600258827,487.0108600258827,487.0108600258827,487.0108600258827,487.0108600258827,487.0108600258827,487.0108600258827,487.0108600258827,487.0108600258827,487.0108600258827,l,0.45056267012842,1,424,1,487.47813717392273,488.979583700886,488.979583700886,,,,,,,,,,,,,,,,,,,,,38074,2022-11-09_14h33.05.439,vts_reward_expectancy_bt_OFFLINE,2022.2.4,59.81407118843644,
1,0,0,0,0,0,1,0,triangle,hexagon,1,0,1,0,2,10,34,1,,,,,,,,,,,,489.4802801560145,489.4802801560145,489.4802801560145,489.4802801560145,489.4802801560145,489.4802801560145,489.4802801560145,489.4802801560145,489.4802801560145,489.4802801560145,a,0.36625077901408076,1,425,1,489.8639531249646,491.365561299026,491.365561299026,,,,,,,,,,,,,,,,,,,,,38074,2022-11-09_14h33.05.439,vts_reward_expectancy_bt_OFFLINE,2022.2.4,59.81407118843644,
1,0,0,0,0,1,0,0,triangle,circle,1,0,1,0,2,11,35,0,,,,,,,,,,,,491.8662333008833,491.8662333008833,491.8662333008833,491.8662333008833,491.8662333008833,491.8662333008833,491.8662333008833,491.8662333008833,491.8662333008833,491.8662333008833,a,0.3746902032289654,1,426,1,492.2664741689805,,493.7682127999142,,,,,,,,,,,,,,,,,,,,,38074,2022-11-09_14h33.05.439,vts_reward_expectancy_bt_OFFLINE,2022.2.4,59.81407118843644,
1,0,0,0,0,0,1,0,triangle,hexagon,1,0,1,0,3,0,36,1,,,,,,,,,,,,494.2687437119894,494.2687437119894,494.2687437119894,494.2687437119894,494.2687437119894,494.2687437119894,494.2687437119894,494.2687437119894,494.2687437119894,494.2687437119894,l,0.3016302981413901,10,436,1,494.6025571890641,,496.1042812690139,,,,,,,,,,,,,,,,,,,,,38074,2022-11-09_14h33.05.439,vts_reward_expectancy_bt_OFFLINE,2022.2.4,59.81407118843644,
0,0,0,1,1,0,0,0,star,triangle,1,0,1,0,3,1,37,9,,,,,,,,,,,,496.6046529239975,496.6046529239975,496.6046529239975,496.6046529239975,496.6046529239975,496.6046529239975,496.6046529239975,496.6046529239975,496.6046529239975,496.6046529239975,a,0.5659243671689183,10,446,1,497.18867922597565,,498.690397832077,,,,,,,,,,,,,,,,,,,,,38074,2022-11-09_14h33.05.439,vts_reward_expectancy_bt_OFFLINE,2022.2.4,59.81407118843644,
0,0,1,0,1,0,0,0,hexagon,triangle,1,0,1,0,3,2,38,6,,,,,,,,,,,,499.19075606996194,499.19075606996194,499.19075606996194,499.19075606996194,499.19075606996194,499.19075606996194,499.19075606996194,499.19075606996194,499.19075606996194,499.19075606996194,a,0.41945090517401695,1,447,1,499.64126737206243,,501.1431825500913,,,,,,,,,,,,,,,,,,,,,38074,2022-11-09_14h33.05.439,vts_reward_expectancy_bt_OFFLINE,2022.2.4,59.81407118843644,
0,0,0,1,0,1,0,0,star ,circle,1,0,1,0,3,3,39,10,,,,,,,,,,,,501.6437412709929,501.6437412709929,501.6437412709929,501.6437412709929,501.6437412709929,501.6437412709929,501.6437412709929,501.6437412709929,501.6437412709929,501.6437412709929,l,0.40875579603016376,1,448,1,502.07742546102963,,503.57900184602477,,,,,,,,,,,,,,,,,,,,,38074,2022-11-09_14h33.05.439,vts_reward_expectancy_bt_OFFLINE,2022.2.4,59.81407118843644,
1,0,0,0,0,0,0,1,triangle,star,1,0,1,0,3,4,40,2,,,,,,,,,,,,504.07966841896996,504.07966841896996,504.07966841896996,504.07966841896996,504.07966841896996,504.07966841896996,504.07966841896996,504.07966841896996,504.07966841896996,504.07966841896996,a,0.3584388750605285,10,458,1,504.46343355905265,,505.96523350896314,,,,,,,,,,,,,,,,,,,,,38074,2022-11-09_14h33.05.439,vts_reward_expectancy_bt_OFFLINE,2022.2.4,59.81407118843644,
0,0,1,0,0,0,0,1,hexagon,star,1,0,1,0,3,5,41,8,,,,,,,,,,,,506.4655693699606,506.4655693699606,506.4655693699606,506.4655693699606,506.4655693699606,506.4655693699606,506.4655693699606,506.4655693699606,506.4655693699606,506.4655693699606,a,0.3682455930393189,1,459,1,506.8662137009669,,508.36761525599286,,,,,,,,,,,,,,,,,,,,,38074,2022-11-09_14h33.05.439,vts_reward_expectancy_bt_OFFLINE,2022.2.4,59.81407118843644,
0,1,0,0,1,0,0,0,circle,triangle,1,0,1,0,3,6,42,3,,,,,,,,,,,,508.86826614895836,508.86826614895836,508.86826614895836,508.86826614895836,508.86826614895836,508.86826614895836,508.86826614895836,508.86826614895836,508.86826614895836,508.86826614895836,a,0.40789364418014884,10,469,1,509.30194399598986,,510.8038534910884,,,,,,,,,,,,,,,,,,,,,38074,2022-11-09_14h33.05.439,vts_reward_expectancy_bt_OFFLINE,2022.2.4,59.81407118843644,
0,1,0,0,0,0,1,0,circle,hexagon,1,0,1,0,3,7,43,4,,,,,,,,,,,,511.30440186103806,511.30440186103806,511.30440186103806,511.30440186103806,511.30440186103806,511.30440186103806,511.30440186103806,511.30440186103806,511.30440186103806,511.30440186103806,a,0.4460163542535156,10,479,1,511.7715455710422,,513.2732297119219,,,,,,,,,,,,,,,,,,,,,38074,2022-11-09_14h33.05.439,vts_reward_expectancy_bt_OFFLINE,2022.2.4,59.81407118843644,
0,0,1,0,0,1,0,0,hexagon,circle,1,0,1,0,3,8,44,7,,,,,,,,,,,,513.7735961070284,513.7735961070284,513.7735961070284,513.7735961070284,513.7735961070284,513.7735961070284,513.7735961070284,513.7735961070284,513.7735961070284,513.7735961070284,a,0.34102289588190615,1,480,1,514.1406885141041,,515.6423097290099,,,,,,,,,,,,,,,,,,,,,38074,2022-11-09_14h33.05.439,vts_reward_expectancy_bt_OFFLINE,2022.2.4,59.81407118843644,
0,1,0,0,0,0,0,1,circle,star,1,0,1,0,3,9,45,5,,,,,,,,,,,,516.1430850611068,516.1430850611068,516.1430850611068,516.1430850611068,516.1430850611068,516.1430850611068,516.1430850611068,516.1430850611068,516.1430850611068,516.1430850611068,l,0.43457400193437934,10,490,1,516.6102829989977,,518.1118101789616,,,,,,,,,,,,,,,,,,,,,38074,2022-11-09_14h33.05.439,vts_reward_expectancy_bt_OFFLINE,2022.2.4,59.81407118843644,
0,0,0,1,0,0,1,0,star,hexagon,1,0,1,0,3,10,46,11,,,,,,,,,,,,518.6125491939019,518.6125491939019,518.6125491939019,518.6125491939019,518.6125491939019,518.6125491939019,518.6125491939019,518.6125491939019,518.6125491939019,518.6125491939019,a,0.4078468510415405,1,491,1,519.0462791100144,,520.5478064820636,,,,,,,,,,,,,,,,,,,,,38074,2022-11-09_14h33.05.439,vts_reward_expectancy_bt_OFFLINE,2022.2.4,59.81407118843644,
1,0,0,0,0,1,0,0,triangle,circle,1,0,1,0,3,11,47,0,,,,,,,,,,,,521.0486004960258,521.0486004960258,521.0486004960258,521.0486004960258,521.0486004960258,521.0486004960258,521.0486004960258,521.0486004960258,521.0486004960258,521.0486004960258,l,0.3777650601696223,1,492,1,521.4489791409578,,522.9506831639446,,,,,,,,,,,,,,,,,,,,,38074,2022-11-09_14h33.05.439,vts_reward_expectancy_bt_OFFLINE,2022.2.4,59.81407118843644,
1,0,0,0,0,0,0,1,triangle,star,2,0,2,0,0,0,0,2,,,,,,,,,,,,525.2531937689055,525.2531937689055,525.2531937689055,525.2531937689055,525.2531937689055,525.2531937689055,525.2531937689055,525.2531937689055,525.2531937689055,525.2531937689055,a,0.7185091581195593,10,502,2,526.0038561809342,527.5054418689106,527.5054418689106,,,,,,,,,,,,,,,,,,,,,38074,2022-11-09_14h33.05.439,vts_reward_expectancy_bt_OFFLINE,2022.2.4,59.81407118843644,
0,0,0,1,0,0,1,0,star,hexagon,2,0,2,0,0,1,1,11,,,,,,,,,,,,528.0061115850694,528.0061115850694,528.0061115850694,528.0061115850694,528.0061115850694,528.0061115850694,528.0061115850694,528.0061115850694,528.0061115850694,528.0061115850694,l,0.31822412903420627,1,503,2,528.3565595520195,,529.8581952210516,,,,,,,,,,,,,,,,,,,,,38074,2022-11-09_14h33.05.439,vts_reward_expectancy_bt_OFFLINE,2022.2.4,59.81407118843644,
0,0,1,0,0,0,0,1,hexagon,star,2,0,2,0,0,2,2,8,,,,,,,,,,,,530.3586911759339,530.3586911759339,530.3586911759339,530.3586911759339,530.3586911759339,530.3586911759339,530.3586911759339,530.3586911759339,530.3586911759339,530.3586911759339,a,0.28357354016043246,1,504,2,530.65899970592,532.1606643570121,532.1606643570121,,,,,,,,,,,,,,,,,,,,,38074,2022-11-09_14h33.05.439,vts_reward_expectancy_bt_OFFLINE,2022.2.4,59.81407118843644,
0,0,1,0,0,1,0,0,hexagon,circle,2,0,2,0,0,3,3,7,,,,,,,,,,,,532.6609286048915,532.6609286048915,532.6609286048915,532.6609286048915,532.6609286048915,532.6609286048915,532.6609286048915,532.6609286048915,532.6609286048915,532.6609286048915,a,0.2852709221187979,1,505,2,532.978176390985,,534.4797758508939,,,,,,,,,,,,,,,,,,,,,38074,2022-11-09_14h33.05.439,vts_reward_expectancy_bt_OFFLINE,2022.2.4,59.81407118843644,
0,1,0,0,0,0,0,1,circle,star,2,0,2,0,0,4,4,5,,,,,,,,,,,,534.9804620489012,534.9804620489012,534.9804620489012,534.9804620489012,534.9804620489012,534.9804620489012,534.9804620489012,534.9804620489012,534.9804620489012,534.9804620489012,l,0.46535176201723516,1,506,2,535.4642904819921,,536.9659362048842,,,,,,,,,,,,,,,,,,,,,38074,2022-11-09_14h33.05.439,vts_reward_expectancy_bt_OFFLINE,2022.2.4,59.81407118843644,
1,0,0,0,0,1,0,0,triangle,circle,2,0,2,0,0,5,5,0,,,,,,,,,,,,537.466379124904,537.466379124904,537.466379124904,537.466379124904,537.466379124904,537.466379124904,537.466379124904,537.466379124904,537.466379124904,537.466379124904,a,1.118668460054323,1,507,2,538.6178368309047,,540.1192593791056,,,,,,,,,,,,,,,,,,,,,38074,2022-11-09_14h33.05.439,vts_reward_expectancy_bt_OFFLINE,2022.2.4,59.81407118843644,
0,0,0,1,1,0,0,0,star,triangle,2,0,2,0,0,6,6,9,,,,,,,,,,,,540.6198860791046,540.6198860791046,540.6198860791046,540.6198860791046,540.6198860791046,540.6198860791046,540.6198860791046,540.6198860791046,540.6198860791046,540.6198860791046,a,2.386568982154131,10,517,2,543.0392723360565,,544.5410244120285,,,,,,,,,,,,,,,,,,,,,38074,2022-11-09_14h33.05.439,vts_reward_expectancy_bt_OFFLINE,2022.2.4,59.81407118843644,
0,1,0,0,1,0,0,0,circle,triangle,2,0,2,0,0,7,7,3,,,,,,,,,,,,545.0415055390913,545.0415055390913,545.0415055390913,545.0415055390913,545.0415055390913,545.0415055390913,545.0415055390913,545.0415055390913,545.0415055390913,545.0415055390913,a,0.4846799538936466,10,527,2,545.558949267026,,547.0604326510802,,,,,,,,,,,,,,,,,,,,,38074,2022-11-09_14h33.05.439,vts_reward_expectancy_bt_OFFLINE,2022.2.4,59.81407118843644,
0,0,1,0,1,0,0,0,hexagon,triangle,2,0,2,0,0,8,8,6,,,,,,,,,,,,547.560913851019,547.560913851019,547.560913851019,547.560913851019,547.560913851019,547.560913851019,547.560913851019,547.560913851019,547.560913851019,547.560913851019,a,0.3273754639085382,1,528,2,547.9114123710897,,549.4128670939244,,,,,,,,,,,,,,,,,,,,,38074,2022-11-09_14h33.05.439,vts_reward_expectancy_bt_OFFLINE,2022.2.4,59.81407118843644,
0,1,0,0,0,0,1,0,circle,hexagon,2,0,2,0,0,9,9,4,,,,,,,,,,,,549.9136467820499,549.9136467820499,549.9136467820499,549.9136467820499,549.9136467820499,549.9136467820499,549.9136467820499,549.9136467820499,549.9136467820499,549.9136467820499,a,0.12399717513471842,1,529,2,550.0638114609756,,551.5655672859866,,,,,,,,,,,,,,,,,,,,,38074,2022-11-09_14h33.05.439,vts_reward_expectancy_bt_OFFLINE,2022.2.4,59.81407118843644,
0,0,0,1,0,1,0,0,star ,circle,2,0,2,0,0,10,10,10,,,,,,,,,,,,552.0662045748904,552.0662045748904,552.0662045748904,552.0662045748904,552.0662045748904,552.0662045748904,552.0662045748904,552.0662045748904,552.0662045748904,552.0662045748904,a,0.3106684370432049,1,530,2,552.3997522320133,,553.9013004999142,,,,,,,,,,,,,,,,,,,,,38074,2022-11-09_14h33.05.439,vts_reward_expectancy_bt_OFFLINE,2022.2.4,59.81407118843644,
1,0,0,0,0,0,1,0,triangle,hexagon,2,0,2,0,0,11,11,1,,,,,,,,,,,,554.4018246319611,554.4018246319611,554.4018246319611,554.4018246319611,554.4018246319611,554.4018246319611,554.4018246319611,554.4018246319611,554.4018246319611,554.4018246319611,a,0.8443119039293379,10,540,2,555.2700739700813,,556.7709648150485,,,,,,,,,,,,,,,,,,,,,38074,2022-11-09_14h33.05.439,vts_reward_expectancy_bt_OFFLINE,2022.2.4,59.81407118843644,
0,1,0,0,0,0,1,0,circle,hexagon,2,0,2,0,1,0,12,4,,,,,,,,,,,,557.2718101299834,557.2718101299834,557.2718101299834,557.2718101299834,557.2718101299834,557.2718101299834,557.2718101299834,557.2718101299834,557.2718101299834,557.2718101299834,a,0.32529902923852205,1,541,2,557.621868589893,,559.1236292840913,,,,,,,,,,,,,,,,,,,,,38074,2022-11-09_14h33.05.439,vts_reward_expectancy_bt_OFFLINE,2022.2.4,59.81407118843644,
0,0,1,0,0,1,0,0,hexagon,circle,2,0,2,0,1,1,13,7,,,,,,,,,,,,559.6242438310292,559.6242438310292,559.6242438310292,559.6242438310292,559.6242438310292,559.6242438310292,559.6242438310292,559.6242438310292,559.6242438310292,559.6242438310292,a,0.3814208321273327,10,551,2,560.0245826970786,,561.5262735590804,,,,,,,,,,,,,,,,,,,,,38074,2022-11-09_14h33.05.439,vts_reward_expectancy_bt_OFFLINE,2022.2.4,59.81407118843644,
0,0,0,1,0,1,0,0,star ,circle,2,0,2,0,1,2,14,10,,,,,,,,,,,,562.0267181799281,562.0267181799281,562.0267181799281,562.0267181799281,562.0267181799281,562.0267181799281,562.0267181799281,562.0267181799281,562.0267181799281,562.0267181799281,a,0.35185561003163457,10,561,2,562.4105485670734,563.9124747959431,563.9124747959431,,,,,,,,,,,,,,,,,,,,,38074,2022-11-09_14h33.05.439,vts_reward_expectancy_bt_OFFLINE,2022.2.4,59.81407118843644,
0,0,1,0,0,0,0,1,hexagon,star,2,0,2,0,1,3,15,8,,,,,,,,,,,,564.4130100870971,564.4130100870971,564.4130100870971,564.4130100870971,564.4130100870971,564.4130100870971,564.4130100870971,564.4130100870971,564.4130100870971,564.4130100870971,a,0.362119363155216,1,562,2,564.7969663050026,,566.2982102190144,,,,,,,,,,,,,,,,,,,,,38074,2022-11-09_14h33.05.439,vts_reward_expectancy_bt_OFFLINE,2022.2.4,59.81407118843644,
0,0,0,1,1,0,0,0,star,triangle,2,0,2,0,1,4,16,9,,,,,,,,,,,,566.7988906588871,566.7988906588871,566.7988906588871,566.7988906588871,566.7988906588871,566.7988906588871,566.7988906588871,566.7988906588871,566.7988906588871,566.7988906588871,a,0.34037193609401584,1,563,2,567.1658247320447,,568.6676749100443,,,,,,,,,,,,,,,,,,,,,38074,2022-11-09_14h33.05.439,vts_reward_expectancy_bt_OFFLINE,2022.2.4,59.81407118843644,
0,1,0,0,1,0,0,0,circle,triangle,2,0,2,0,1,5,17,3,,,,,,,,,,,,569.1685774358921,569.1685774358921,569.1685774358921,569.1685774358921,569.1685774358921,569.1685774358921,569.1685774358921,569.1685774358921,569.1685774358921,569.1685774358921,a,0.3551420741714537,1,564,2,569.551895448938,,571.0536454310641,,,,,,,,,,,,,,,,,,,,,38074,2022-11-09_14h33.05.439,vts_reward_expectancy_bt_OFFLINE,2022.2.4,59.81407118843644,
1,0,0,0,0,1,0,0,triangle,circle,2,0,2,0,1,6,18,0,,,,,,,,,,,,571.5541946869344,571.5541946869344,571.5541946869344,571.5541946869344,571.5541946869344,571.5541946869344,571.5541946869344,571.5541946869344,571.5541946869344,571.5541946869344,a,0.34266484691761434,1,565,2,571.9211051010061,,573.422994727036,,,,,,,,,,,,,,,,,,,,,38074,2022-11-09_14h33.05.439,vts_reward_expectancy_bt_OFFLINE,2022.2.4,59.81407118843644,
0,0,1,0,1,0,0,0,hexagon,triangle,2,0,2,0,1,7,19,6,,,,,,,,,,,,573.9234487060457,573.9234487060457,573.9234487060457,573.9234487060457,573.9234487060457,573.9234487060457,573.9234487060457,573.9234487060457,573.9234487060457,573.9234487060457,a,0.291609741281718,1,566,2,574.2403722750023,,575.7419641220476,,,,,,,,,,,,,,,,,,,,,38074,2022-11-09_14h33.05.439,vts_reward_expectancy_bt_OFFLINE,2022.2.4,59.81407118843644,
1,0,0,0,0,0,1,0,triangle,hexagon,2,0,2,0,1,8,20,1,,,,,,,,,,,,576.2426975790877,576.2426975790877,576.2426975790877,576.2426975790877,576.2426975790877,576.2426975790877,576.2426975790877,576.2426975790877,576.2426975790877,576.2426975790877,a,0.2222656449303031,1,567,2,576.4927559609059,577.9944550849032,577.9944550849032,578.4949772120453,,,,,,,,,,,,,,,,,,,,38074,2022-11-09_14h33.05.439,vts_reward_expectancy_bt_OFFLINE,2022.2.4,59.81407118843644,
1,0,0,0,0,0,0,1,triangle,star,2,0,2,0,1,9,21,2,,,,,,,,,,,,578.4949772120453,578.4949772120453,578.4949772120453,578.4949772120453,578.4949772120453,578.4949772120453,578.4949772120453,578.4949772120453,578.4949772120453,578.4949772120453,a,0.276578487129882,1,568,2,578.7952439489309,,580.2971692609135,,,,,,,,,,,,,,,,,,,,,38074,2022-11-09_14h33.05.439,vts_reward_expectancy_bt_OFFLINE,2022.2.4,59.81407118843644,
0,0,0,1,0,0,1,0,star,hexagon,2,0,2,0,1,10,22,11,,,,,,,,,,,,580.7976820089389,580.7976820089389,580.7976820089389,580.7976820089389,580.7976820089389,580.7976820089389,580.7976820089389,580.7976820089389,580.7976820089389,580.7976820089389,a,0.30251642409712076,1,569,2,581.1311221239157,,582.6329213450663,,,,,,,,,,,,,,,,,,,,,38074,2022-11-09_14h33.05.439,vts_reward_expectancy_bt_OFFLINE,2022.2.4,59.81407118843644,
0,1,0,0,0,0,0,1,circle,star,2,0,2,0,1,11,23,5,,,,,,,,,,,,583.1335373870097,583.1335373870097,583.1335373870097,583.1335373870097,583.1335373870097,583.1335373870097,583.1335373870097,583.1335373870097,583.1335373870097,583.1335373870097,a,0.27399071492254734,10,579,2,583.4341411239002,584.9354705659207,584.9354705659207,,,,,,,,,,,,,,,,,,,,,38074,2022-11-09_14h33.05.439,vts_reward_expectancy_bt_OFFLINE,2022.2.4,59.81407118843644,
0,1,0,0,0,0,1,0,circle,hexagon,2,0,2,0,2,0,24,4,,,,,,,,,,,,585.4360928901006,585.4360928901006,585.4360928901006,585.4360928901006,585.4360928901006,585.4360928901006,585.4360928901006,585.4360928901006,585.4360928901006,585.4360928901006,a,0.16602667304687202,10,589,2,585.6195651299786,587.1211867339443,587.1211867339443,,,,,,,,,,,,,,,,,,,,,38074,2022-11-09_14h33.05.439,vts_reward_expectancy_bt_OFFLINE,2022.2.4,59.81407118843644,
0,0,0,1,0,0,1,0,star,hexagon,2,0,2,0,2,1,25,11,,,,,,,,,,,,587.6217919269111,587.6217919269111,587.6217919269111,587.6217919269111,587.6217919269111,587.6217919269111,587.6217919269111,587.6217919269111,587.6217919269111,587.6217919269111,a,0.2076158239506185,1,590,2,587.8558121970855,,589.3570510800928,,,,,,,,,,,,,,,,,,,,,38074,2022-11-09_14h33.05.439,vts_reward_expectancy_bt_OFFLINE,2022.2.4,59.81407118843644,
0,0,0,1,0,1,0,0,star ,circle,2,0,2,0,2,2,26,10,,,,,,,,,,,,589.8575479299761,589.8575479299761,589.8575479299761,589.8575479299761,589.8575479299761,589.8575479299761,589.8575479299761,589.8575479299761,589.8575479299761,589.8575479299761,a,0.2671191480476409,1,591,2,590.1413277368993,591.6428881869651,591.6428881869651,,,,,,,,,,,,,,,,,,,,,38074,2022-11-09_14h33.05.439,vts_reward_expectancy_bt_OFFLINE,2022.2.4,59.81407118843644,
0,0,1,0,0,1,0,0,hexagon,circle,2,0,2,0,2,3,27,7,,,,,,,,,,,,592.1436641190667,592.1436641190667,592.1436641190667,592.1436641190667,592.1436641190667,592.1436641190667,592.1436641190667,592.1436641190667,592.1436641190667,592.1436641190667,a,0.24143272126093507,10,601,2,592.4109820609447,,593.9120372219477,,,,,,,,,,,,,,,,,,,,,38074,2022-11-09_14h33.05.439,vts_reward_expectancy_bt_OFFLINE,2022.2.4,59.81407118843644,
0,0,1,0,0,0,0,1,hexagon,star,2,0,2,0,2,4,28,8,,,,,,,,,,,,594.4128365051001,594.4128365051001,594.4128365051001,594.4128365051001,594.4128365051001,594.4128365051001,594.4128365051001,594.4128365051001,594.4128365051001,594.4128365051001,a,0.23452877416275442,10,611,2,594.6795594219584,,596.1814294990618,,,,,,,,,,,,,,,,,,,,,38074,2022-11-09_14h33.05.439,vts_reward_expectancy_bt_OFFLINE,2022.2.4,59.81407118843644,
0,1,0,0,0,0,0,1,circle,star,2,0,2,0,2,5,29,5,,,,,,,,,,,,596.6820231049787,596.6820231049787,596.6820231049787,596.6820231049787,596.6820231049787,596.6820231049787,596.6820231049787,596.6820231049787,596.6820231049787,596.6820231049787,a,0.2502174931578338,1,612,2,596.9498333400115,598.4506074590608,598.4506074590608,,,,,,,,,,,,,,,,,,,,,38074,2022-11-09_14h33.05.439,vts_reward_expectancy_bt_OFFLINE,2022.2.4,59.81407118843644,
1,0,0,0,0,0,1,0,triangle,hexagon,2,0,2,0,2,6,30,1,,,,,,,,,,,,598.9510067768861,598.9510067768861,598.9510067768861,598.9510067768861,598.9510067768861,598.9510067768861,598.9510067768861,598.9510067768861,598.9510067768861,598.9510067768861,a,0.06056179408915341,10,622,2,599.0350078688934,,600.5361402200069,,,,,,,,,,,,,,,,,,,,,38074,2022-11-09_14h33.05.439,vts_reward_expectancy_bt_OFFLINE,2022.2.4,59.81407118843644,
0,0,1,0,1,0,0,0,hexagon,triangle,2,0,2,0,2,7,31,6,,,,,,,,,,,,601.036568575073,601.036568575073,601.036568575073,601.036568575073,601.036568575073,601.036568575073,601.036568575073,601.036568575073,601.036568575073,601.036568575073,a,0.5626658939290792,1,623,2,601.62138658599,,603.1223305910826,,,,,,,,,,,,,,,,,,,,,38074,2022-11-09_14h33.05.439,vts_reward_expectancy_bt_OFFLINE,2022.2.4,59.81407118843644,
0,1,0,0,1,0,0,0,circle,triangle,2,0,2,0,2,8,32,3,,,,,,,,,,,,603.6229767499026,603.6229767499026,603.6229767499026,603.6229767499026,603.6229767499026,603.6229767499026,603.6229767499026,603.6229767499026,603.6229767499026,603.6229767499026,a,0.26005985401570797,10,633,2,603.9070673310198,,605.4080656908918,,,,,,,,,,,,,,,,,,,,,38074,2022-11-09_14h33.05.439,vts_reward_expectancy_bt_OFFLINE,2022.2.4,59.81407118843644,
1,0,0,0,0,0,0,1,triangle,star,2,0,2,0,2,9,33,2,,,,,,,,,,,,605.9086874269415,605.9086874269415,605.9086874269415,605.9086874269415,605.9086874269415,605.9086874269415,605.9086874269415,605.9086874269415,605.9086874269415,605.9086874269415,a,0.31532833306118846,1,634,2,606.2433542960789,,607.7439125049859,,,,,,,,,,,,,,,,,,,,,38074,2022-11-09_14h33.05.439,vts_reward_expectancy_bt_OFFLINE,2022.2.4,59.81407118843644,
1,0,0,0,0,1,0,0,triangle,circle,2,0,2,0,2,10,34,0,,,,,,,,,,,,608.2444127008785,608.2444127008785,608.2444127008785,608.2444127008785,608.2444127008785,608.2444127008785,608.2444127008785,608.2444127008785,608.2444127008785,608.2444127008785,a,0.4330238620750606,10,644,2,608.6961450600065,610.1967434969265,610.1967434969265,,,,,,,,,,,,,,,,,,,,,38074,2022-11-09_14h33.05.439,vts_reward_expectancy_bt_OFFLINE,2022.2.4,59.81407118843644,
0,0,0,1,1,0,0,0,star,triangle,2,0,2,0,2,11,35,9,,,,,,,,,,,,610.6972867159639,610.6972867159639,610.6972867159639,610.6972867159639,610.6972867159639,610.6972867159639,610.6972867159639,610.6972867159639,610.6972867159639,610.6972867159639,a,0.09429950406774879,1,645,2,610.8146199670155,,612.3156685219146,,,,,,,,,,,,,,,,,,,,,38074,2022-11-09_14h33.05.439,vts_reward_expectancy_bt_OFFLINE,2022.2.4,59.81407118843644,
0,0,1,0,0,1,0,0,hexagon,circle,2,0,2,0,3,0,36,7,,,,,,,,,,,,612.8162795659155,612.8162795659155,612.8162795659155,612.8162795659155,612.8162795659155,612.8162795659155,612.8162795659155,612.8162795659155,612.8162795659155,612.8162795659155,l,0.07853779825381935,10,655,2,612.9167992970906,,614.4180234489031,,,,,,,,,,,,,,,,,,,,,38074,2022-11-09_14h33.05.439,vts_reward_expectancy_bt_OFFLINE,2022.2.4,59.81407118843644,
0,0,1,0,0,0,0,1,hexagon,star,2,0,2,0,3,1,37,8,,,,,,,,,,,,614.9186370219104,614.9186370219104,614.9186370219104,614.9186370219104,614.9186370219104,614.9186370219104,614.9186370219104,614.9186370219104,614.9186370219104,614.9186370219104,l,0.4858826140407473,1,656,2,615.4358334909193,,616.9373738919385,,,,,,,,,,,,,,,,,,,,,38074,2022-11-09_14h33.05.439,vts_reward_expectancy_bt_OFFLINE,2022.2.4,59.81407118843644,
1,0,0,0,0,0,0,1,triangle,star,2,0,2,0,3,2,38,2,,,,,,,,,,,,617.4381007440388,617.4381007440388,617.4381007440388,617.4381007440388,617.4381007440388,617.4381007440388,617.4381007440388,617.4381007440388,617.4381007440388,617.4381007440388,a,0.30708601512014866,10,666,2,617.7722837820183,,619.2733811049256,,,,,,,,,,,,,,,,,,,,,38074,2022-11-09_14h33.05.439,vts_reward_expectancy_bt_OFFLINE,2022.2.4,59.81407118843644,
0,1,0,0,0,0,1,0,circle,hexagon,2,0,2,0,3,3,39,4,,,,,,,,,,,,619.7739810119383,619.7739810119383,619.7739810119383,619.7739810119383,619.7739810119383,619.7739810119383,619.7739810119383,619.7739810119383,619.7739810119383,619.7739810119383,l,0.37778828712180257,1,667,2,620.1751149459742,,621.6761775359046,,,,,,,,,,,,,,,,,,,,,38074,2022-11-09_14h33.05.439,vts_reward_expectancy_bt_OFFLINE,2022.2.4,59.81407118843644,
0,0,1,0,1,0,0,0,hexagon,triangle,2,0,2,0,3,4,40,6,,,,,,,,,,,,622.1764268320985,622.1764268320985,622.1764268320985,622.1764268320985,622.1764268320985,622.1764268320985,622.1764268320985,622.1764268320985,622.1764268320985,622.1764268320985,a,0.3172705532051623,1,668,2,622.5103460890241,624.0121399159543,624.0121399159543,,,,,,,,,,,,,,,,,,,,,38074,2022-11-09_14h33.05.439,vts_reward_expectancy_bt_OFFLINE,2022.2.4,59.81407118843644,
1,0,0,0,0,1,0,0,triangle,circle,2,0,2,0,3,5,41,0,,,,,,,,,,,,624.5125526289921,624.5125526289921,624.5125526289921,624.5125526289921,624.5125526289921,624.5125526289921,624.5125526289921,624.5125526289921,624.5125526289921,624.5125526289921,a,0.26430938323028386,10,678,2,624.7972797208931,,626.297776110936,,,,,,,,,,,,,,,,,,,,,38074,2022-11-09_14h33.05.439,vts_reward_expectancy_bt_OFFLINE,2022.2.4,59.81407118843644,
1,0,0,0,0,0,1,0,triangle,hexagon,2,0,2,0,3,6,42,1,,,,,,,,,,,,626.7985782548785,626.7985782548785,626.7985782548785,626.7985782548785,626.7985782548785,626.7985782548785,626.7985782548785,626.7985782548785,626.7985782548785,626.7985782548785,l,0.2606895170174539,1,679,2,627.0831944409292,,628.583575935103,,,,,,,,,,,,,,,,,,,,,38074,2022-11-09_14h33.05.439,vts_reward_expectancy_bt_OFFLINE,2022.2.4,59.81407118843644,
0,0,0,1,0,0,1,0,star,hexagon,2,0,2,0,3,7,43,11,,,,,,,,,,,,629.0844405500684,629.0844405500684,629.0844405500684,629.0844405500684,629.0844405500684,629.0844405500684,629.0844405500684,629.0844405500684,629.0844405500684,629.0844405500684,a,0.2588818622753024,1,680,2,629.3679770568851,,630.8695464550983,,,,,,,,,,,,,,,,,,,,,38074,2022-11-09_14h33.05.439,vts_reward_expectancy_bt_OFFLINE,2022.2.4,59.81407118843644,
0,1,0,0,0,0,0,1,circle,star,2,0,2,0,3,8,44,5,,,,,,,,,,,,631.3701547021046,631.3701547021046,631.3701547021046,631.3701547021046,631.3701547021046,631.3701547021046,631.3701547021046,631.3701547021046,631.3701547021046,631.3701547021046,l,0.3149041081778705,10,690,2,631.7049336889759,,633.2053808670025,,,,,,,,,,,,,,,,,,,,,38074,2022-11-09_14h33.05.439,vts_reward_expectancy_bt_OFFLINE,2022.2.4,59.81407118843644,
0,0,0,1,1,0,0,0,star,triangle,2,0,2,0,3,9,45,9,,,,,,,,,,,,633.7059461961035,633.7059461961035,633.7059461961035,633.7059461961035,633.7059461961035,633.7059461961035,633.7059461961035,633.7059461961035,633.7059461961035,633.7059461961035,a,0.27465863712131977,10,700,2,634.0063271289691,,635.5080609349534,,,,,,,,,,,,,,,,,,,,,38074,2022-11-09_14h33.05.439,vts_reward_expectancy_bt_OFFLINE,2022.2.4,59.81407118843644,
0,0,0,1,0,1,0,0,star ,circle,2,0,2,0,3,10,46,10,,,,,,,,,,,,636.0084181660786,636.0084181660786,636.0084181660786,636.0084181660786,636.0084181660786,636.0084181660786,636.0084181660786,636.0084181660786,636.0084181660786,636.0084181660786,a,0.3349406090565026,10,710,2,636.3757158489898,637.8771413720679,637.8771413720679,,,,,,,,,,,,,,,,,,,,,38074,2022-11-09_14h33.05.439,vts_reward_expectancy_bt_OFFLINE,2022.2.4,59.81407118843644,
0,1,0,0,1,0,0,0,circle,triangle,2,0,2,0,3,11,47,3,,,,,,,,,,,,638.3778185890988,638.3778185890988,638.3778185890988,638.3778185890988,638.3778185890988,638.3778185890988,638.3778185890988,638.3778185890988,638.3778185890988,638.3778185890988,a,0.28332372196018696,1,711,2,638.6948346660938,,640.1964020009618,,,,,,,,,,,,,,,,,,,,,38074,2022-11-09_14h33.05.439,vts_reward_expectancy_bt_OFFLINE,2022.2.4,59.81407118843644,
,,,,,,,,,,,,,,,,,,0,0,0,0,0,0,0,0,,,,,,,,,,,,,,,,,,,,,662.871358190896,,B,132,hexagon,0.0020509830210357904,656.8649555270094,658.3498791889288,658.3498791889288,658.3498791889288,661.3530766619369,661.3530766619369,661.3530766619369,0,0,None,0,661.3697988248896,,,,38074,2022-11-09_14h33.05.439,vts_reward_expectancy_bt_OFFLINE,2022.2.4,59.81407118843644,
,,,,,,,,,,,,,,,,,,0,0,0,0,1,0,1,0,,,,,,,,,,,,,,,,,,,,,668.4109166059643,,Y,146,circle,0.009301343001425266,663.8571991799399,665.3576401169412,665.3576401169412,665.3576401169412,,,,0,1,d,0,666.9091270910576,1.5193808341864496,,,38074,2022-11-09_14h33.05.439,vts_reward_expectancy_bt_OFFLINE,2022.2.4,59.81407118843644,
,,,,,,,,,,,,,,,,,,0,0,0,0,2,0,2,0,,,,,,,,,,,,,,,,,,,,,675.4188667719718,,S,174,star,0.0012385090813040733,669.412151412107,670.8972737900913,670.8972737900913,670.8972737900913,673.9003006441053,673.9003006441053,673.9003006441053,0,1,None,0,673.9170739909168,,,,38074,2022-11-09_14h33.05.439,vts_reward_expectancy_bt_OFFLINE,2022.2.4,59.81407118843644,
,,,,,,,,,,,,,,,,,,0,0,0,0,3,0,3,0,,,,,,,,,,,,,,,,,,,,,680.057115491014,,F,160,triangle,0.00917185889557004,676.4030274320394,677.9047251539305,677.9047251539305,677.9047251539305,,,,1,1,d,0,678.5553796889726,0.6179265643004328,,,38074,2022-11-09_14h33.05.439,vts_reward_expectancy_bt_OFFLINE,2022.2.4,59.81407118843644,
,,,,,,,,,,,,,,,,,,0,0,0,0,4,0,4,0,,,,,,,,,,,,,,,,,,,,,684.8122236649506,,U,167,star,0.001056845998391509,681.0582045149058,682.5433609050233,682.5433609050233,682.5433609050233,,,,0,0,d,0,683.3106928919442,0.7362852359656245,,,38074,2022-11-09_14h33.05.439,vts_reward_expectancy_bt_OFFLINE,2022.2.4,59.81407118843644,
,,,,,,,,,,,,,,,,,,0,0,0,0,5,0,5,0,,,,,,,,,,,,,,,,,,,,,689.3841436249204,,H,181,triangle,0.0013867970556020737,685.8135140070226,687.2985847599339,687.2985847599339,687.2985847599339,,,,0,1,f,0,687.8824445540085,0.551165244076401,,,38074,2022-11-09_14h33.05.439,vts_reward_expectancy_bt_OFFLINE,2022.2.4,59.81407118843644,
,,,,,,,,,,,,,,,,,,0,0,0,0,6,0,6,0,,,,,,,,,,,,,,,,,,,,,693.9055072420742,,D,139,hexagon,0.0013340988662093878,690.3853118969128,691.8700451420154,691.8700451420154,691.8700451420154,,,,1,1,d,0,692.4208770389669,0.5112616312690079,,,38074,2022-11-09_14h33.05.439,vts_reward_expectancy_bt_OFFLINE,2022.2.4,59.81407118843644,
,,,,,,,,,,,,,,,,,,0,0,0,0,7,0,7,0,,,,,,,,,,,,,,,,,,,,,700.5631349799223,,W,125,circle,0.001081923022866249,694.9067161509302,696.3919240040705,696.3919240040705,696.3919240040705,,,,0,0,d,0,699.061294920044,2.638568026246503,,,38074,2022-11-09_14h33.05.439,vts_reward_expectancy_bt_OFFLINE,2022.2.4,59.81407118843644,
,,,,,,,,,,,,,,,,,,0,0,0,0,8,0,8,0,,,,,,,,,,,,,,,,,,,,,704.9680473268963,,B,132,circle,0.0011035529896616936,701.5642951510381,703.0490860389546,703.0490860389546,703.0490860389546,,,,0,1,f,0,703.4665322040673,0.3922712900675833,,,38074,2022-11-09_14h33.05.439,vts_reward_expectancy_bt_OFFLINE,2022.2.4,59.81407118843644,
,,,,,,,,,,,,,,,,,,0,0,0,0,9,0,9,0,,,,,,,,,,,,,,,,,,,,,710.0402842089534,,Y,146,star,0.0013054439332336187,705.9691731149796,707.4539965989534,707.4539965989534,707.4539965989534,,,,0,1,d,0,708.5387068609707,1.061884616035968,,,38074,2022-11-09_14h33.05.439,vts_reward_expectancy_bt_OFFLINE,2022.2.4,59.81407118843644,
,,,,,,,,,,,,,,,,,,1,0,1,0,0,0,0,0,,,,,,,,,,,,,,,,,,,,,730.5962962300982,731.096663574921,F,139,triangle,0.0019462318159639835,724.5896663169842,726.0910577410832,726.0910577410832,726.0910577410832,729.0943983239122,729.0943983239122,729.0943983239122,0,1,None,1,729.0943983239122,,729.0943983239122,730.5962962300982,38074,2022-11-09_14h33.05.439,vts_reward_expectancy_bt_OFFLINE,2022.2.4,59.81407118843644,
,,,,,,,,,,,,,,,,,,1,0,1,0,1,0,1,0,,,,,,,,,,,,,,,,,,,,,735.0012058950961,,U,167,circle,0.008895899867638946,731.5973962340504,733.0988592600916,733.0988592600916,733.0988592600916,,,,0,1,d,1,733.4992117409129,0.37060756306163967,,,38074,2022-11-09_14h33.05.439,vts_reward_expectancy_bt_OFFLINE,2022.2.4,59.81407118843644,
,,,,,,,,,,,,,,,,,,1,0,1,0,2,0,2,0,,,,,,,,,,,,,,,,,,,,,739.7895340339746,,B,181,hexagon,0.001142839901149273,736.0022341799922,737.4869332159869,737.4869332159869,737.4869332159869,,,,1,1,d,1,738.3047502639238,0.7761799842119217,,,38074,2022-11-09_14h33.05.439,vts_reward_expectancy_bt_OFFLINE,2022.2.4,59.81407118843644,
,,,,,,,,,,,,,,,,,,1,0,1,0,3,0,3,0,,,,,,,,,,,,,,,,,,,,,745.2289357210975,,D,174,star,0.0012355160433799028,740.7908870060928,742.2757815369405,742.2757815369405,742.2757815369405,,,,1,0,d,1,743.727889501024,1.4337480731774122,,,38074,2022-11-09_14h33.05.439,vts_reward_expectancy_bt_OFFLINE,2022.2.4,59.81407118843644,
,,,,,,,,,,,,,,,,,,1,0,1,0,4,0,4,0,,,,,,,,,,,,,,,,,,,,,749.7675712739583,,S,160,circle,0.0012663111556321383,746.2134308840614,747.7150732669979,747.7150732669979,747.7150732669979,,,,0,0,d,1,748.2824514969252,0.526727308286354,,,38074,2022-11-09_14h33.05.439,vts_reward_expectancy_bt_OFFLINE,2022.2.4,59.81407118843644,
,,,,,,,,,,,,,,,,,,1,0,1,0,5,0,5,0,,,,,,,,,,,,,,,,,,,,,754.6727863498963,,H,146,star,0.0012980429455637932,750.7683603789192,752.2534488050733,752.2534488050733,752.2534488050733,,,,1,1,d,1,753.1710831220262,0.8845477900467813,,,38074,2022-11-09_14h33.05.439,vts_reward_expectancy_bt_OFFLINE,2022.2.4,59.81407118843644,
,,,,,,,,,,,,,,,,,,1,0,1,0,6,0,6,0,,,,,,,,,,,,,,,,,,,,,759.5282691139728,,Y,132,hexagon,0.0005800111684948206,755.6570544759743,757.1419805618934,757.1419805618934,757.1419805618934,,,,1,0,f,1,758.0264887770172,0.8540677649434656,,,38074,2022-11-09_14h33.05.439,vts_reward_expectancy_bt_OFFLINE,2022.2.4,59.81407118843644,
,,,,,,,,,,,,,,,,,,1,0,1,0,7,0,7,0,,,,,,,,,,,,,,,,,,,,,764.3166337918956,,W,125,triangle,0.0009247809648513794,760.5291080819443,762.0141957988963,762.0141957988963,762.0141957988963,,,,1,0,f,1,762.8151458490174,0.7752536202315241,,,38074,2022-11-09_14h33.05.439,vts_reward_expectancy_bt_OFFLINE,2022.2.4,59.81407118843644,
,,,,,,,,,,,,,,,,,,1,0,1,0,8,0,8,0,,,,,,,,,,,,,,,,,,,,,769.0885884189047,,F,139,triangle,0.0014371389988809824,765.3013176019304,766.802825256018,766.802825256018,766.802825256018,,,,0,0,f,1,767.6037641349249,0.7575895399786532,,,38074,2022-11-09_14h33.05.439,vts_reward_expectancy_bt_OFFLINE,2022.2.4,59.81407118843644,
,,,,,,,,,,,,,,,,,,1,0,1,0,9,0,9,0,,,,,,,,,,,,,,,,,,,,,773.8107392759994,,U,167,hexagon,0.001111833844333887,770.0897045370657,771.5749217791017,771.5749217791017,771.5749217791017,,,,1,1,f,1,772.309029656928,0.7007593060843647,,,38074,2022-11-09_14h33.05.439,vts_reward_expectancy_bt_OFFLINE,2022.2.4,59.81407118843644,
,,,,,,,,,,,,,,,,,,2,0,2,0,0,0,0,0,,,,,,,,,,,,,,,,,,,,,786.224313284969,,B,160,hexagon,0.001844129990786314,782.2698114090599,783.7716370120179,783.7716370120179,783.7716370120179,,,,1,0,d,2,784.7227304440457,0.9237498042639345,,786.224313284969,38074,2022-11-09_14h33.05.439,vts_reward_expectancy_bt_OFFLINE,2022.2.4,59.81407118843644,
,,,,,,,,,,,,,,,,,,2,0,2,0,1,0,1,0,,,,,,,,,,,,,,,,,,,,,791.1130923870951,,W,174,circle,0.0008845988195389509,787.2251908250619,788.7103055659682,788.7103055659682,788.7103055659682,,,,1,0,f,2,789.6112235009205,0.8786539612337947,,,38074,2022-11-09_14h33.05.439,vts_reward_expectancy_bt_OFFLINE,2022.2.4,59.81407118843644,
,,,,,,,,,,,,,,,,,,2,0,2,0,2,0,2,0,,,,,,,,,,,,,,,,,,,,,796.1353191419039,,H,181,triangle,0.001148289069533348,792.1142894120421,793.5990188920405,793.5990188920405,793.5990188920405,,,,0,0,f,2,794.6500955868978,1.0086905651260167,,,38074,2022-11-09_14h33.05.439,vts_reward_expectancy_bt_OFFLINE,2022.2.4,59.81407118843644,
,,,,,,,,,,,,,,,,,,2,0,2,0,3,0,3,0,,,,,,,,,,,,,,,,,,,,,800.8236922740471,,F,146,star,0.001193817937746644,797.1362429149449,798.6211876790039,798.6211876790039,798.6211876790039,,,,0,1,f,2,799.3219315540045,0.6765124280937016,,,38074,2022-11-09_14h33.05.439,vts_reward_expectancy_bt_OFFLINE,2022.2.4,59.81407118843644,
,,,,,,,,,,,,,,,,,,2,0,2,0,4,0,4,0,,,,,,,,,,,,,,,,,,,,,806.2129713299219,,S,132,circle,0.0010634302161633968,801.8246249388903,803.3097879251,803.3097879251,803.3097879251,,,,1,1,f,2,804.7112701039296,1.36828383221291,,,38074,2022-11-09_14h33.05.439,vts_reward_expectancy_bt_OFFLINE,2022.2.4,59.81407118843644,
,,,,,,,,,,,,,,,,,,2,0,2,0,5,0,5,0,,,,,,,,,,,,,,,,,,,,,811.4852509188931,,Y,167,star,0.0008605099283158779,807.1972901469562,808.6825158770662,808.6825158770662,808.6825158770662,,,,1,0,f,2,809.983830939047,1.282635347917676,,,38074,2022-11-09_14h33.05.439,vts_reward_expectancy_bt_OFFLINE,2022.2.4,59.81407118843644,
,,,,,,,,,,,,,,,,,,2,0,2,0,6,0,6,0,,,,,,,,,,,,,,,,,,,,,817.9925416510087,,U,139,hexagon,0.0011180590372532606,812.4864573059604,813.9716716939583,813.9716716939583,813.9716716939583,,,,1,0,f,2,816.4912936668843,2.4949857708998024,,,38074,2022-11-09_14h33.05.439,vts_reward_expectancy_bt_OFFLINE,2022.2.4,59.81407118843644,
,,,,,,,,,,,,,,,,,,2,0,2,0,7,0,7,0,,,,,,,,,,,,,,,,,,,,,823.0315505340695,,D,125,triangle,0.0011448180302977562,818.993732071016,820.4789690170437,820.4789690170437,820.4789690170437,,,,1,0,d,2,821.5296981718857,1.0278621821198612,,,38074,2022-11-09_14h33.05.439,vts_reward_expectancy_bt_OFFLINE,2022.2.4,59.81407118843644,
,,,,,,,,,,,,,,,,,,2,0,2,0,8,0,8,0,,,,,,,,,,,,,,,,,,,,,828.1870852350257,,B,160,triangle,0.0014843170065432787,824.0159823559225,825.5175600859802,825.5175600859802,825.5175600859802,,,,1,0,d,2,826.6856910889037,1.132757439976558,,,38074,2022-11-09_14h33.05.439,vts_reward_expectancy_bt_OFFLINE,2022.2.4,59.81407118843644,
,,,,,,,,,,,,,,,,,,2,0,2,0,9,0,9,0,,,,,,,,,,,,,,,,,,,,,834.0103998549748,,W,174,hexagon,0.016443380853161216,829.1715635738801,830.6567183209118,830.6567183209118,830.6567183209118,,,,1,0,f,2,832.508749746019,1.83095988817513,,,38074,2022-11-09_14h33.05.439,vts_reward_expectancy_bt_OFFLINE,2022.2.4,59.81407118843644,
