training_blocks.thisRepN,training_blocks.thisTrialN,training_blocks.thisN,training_blocks.thisIndex,task1_prac_redo.thisRepN,task1_prac_redo.thisTrialN,task1_prac_redo.thisN,task1_prac_redo.thisIndex,task1_prac_trials.thisRepN,task1_prac_trials.thisTrialN,task1_prac_trials.thisN,task1_prac_trials.thisIndex,task2_prac_redo.thisRepN,task2_prac_redo.thisTrialN,task2_prac_redo.thisN,task2_prac_redo.thisIndex,task2_praac_trials.thisRepN,task2_praac_trials.thisTrialN,task2_praac_trials.thisN,task2_praac_trials.thisIndex,vts_prac_redo.thisRepN,vts_prac_redo.thisTrialN,vts_prac_redo.thisN,vts_prac_redo.thisIndex,vts_practice_trials.thisRepN,vts_practice_trials.thisTrialN,vts_practice_trials.thisN,vts_practice_trials.thisIndex,trials_norew.thisRepN,trials_norew.thisTrialN,trials_norew.thisN,trials_norew.thisIndex,block.thisRepN,block.thisTrialN,block.thisN,block.thisIndex,trials_rew.thisRepN,trials_rew.thisTrialN,trials_rew.thisN,trials_rew.thisIndex,key_resp.started,key_resp.keys,key_resp.rt,curr_topStim,curr_bottStim,curr_shape,ISI.started,tgt_fix_prac1.started,top_target_prac1.started,bott_target_prac1.started,target_resp_prac1.started,acc,E1,target_resp_prac1.keys,target_resp_prac1.rt,pracBlock,prac_fback_text.started,fix.started,top_target_prac1.stopped,tgt_fix_prac1.stopped,bott_target_prac1.stopped,target_resp_prac1.stopped,prac_fback_text.stopped,fix.stopped,tgt_fix_prac2.started,top_target_prac2.started,bott_target_prac2.started,target_resp_prac2.started,target_resp_prac2.keys,target_resp_prac2.rt,top_target_prac2.stopped,tgt_fix_prac2.stopped,bott_target_prac2.stopped,target_resp_prac2.stopped,star.started,hegagon.started,triangle.started,circle.started,star.stopped,hegagon.stopped,triangle.stopped,circle.stopped,top_target.started,tgt_fix.started,bot_target.started,target_resp.started,alt,task,condition,target_resp.keys,target_resp.rt,rewCond,points_trial,points_cumul,vts_fback.started,blockNum,norew_fback.started,norew_fback.stopped,key_resp_2.keys,key_resp_2.rt,rewExpectancy,feedbk_text.started,feedbk_text.stopped,text_3.started,text_3.stopped,button.started,debrief.index,debrief.itemText,debrief.type,debrief.granularity,debrief.font,debrief.markerColor,debrief.response,debrief.rt,button.numClicks,button.timesOn,button.timesOff,participant,date,expName,psychopyVersion,frameRate,
,,,,,,,,,,,,,,,,,,,,,,,,,,,,,,,,,,,,,,,,20.73794819199975,space,4.4374958979997245,,,,,,,,,,,,,,,,,,,,,,,,,,,,,,,,,,,,,,,,,,,,,,,,,,,,,,,,,,,,,,,,,,,,,,,,,,,39022,2022-10-25_10h28.10.269,vts_reward_expectancy_bt_OFFLINE,2022.2.4,59.975928421216494,
,,,,0,0,0,0,0,0,0,0,,,,,,,,,,,,,,,,,,,,,,,,,,,,,,,,181,S,hexagon,0.0017996090000451659,29.42674789600005,30.9342424940005,30.9342424940005,30.9342424940005,1,0,f,2.7050105810003515,0,33.67072900800031,35.17243593500007,,,,,,,,,,,,,,,,,,,,,,,,,,,,,,,,,,,,,,,,,,,,,,,,,,,,,,,,,,,,39022,2022-10-25_10h28.10.269,vts_reward_expectancy_bt_OFFLINE,2022.2.4,59.975928421216494,
,,,,0,0,0,0,1,0,1,0,,,,,,,,,,,,,,,,,,,,,,,,,,,,,,,,160,Y,circle,0.0017624330002945499,36.152535158999854,37.658324390000416,37.658324390000416,37.658324390000416,1,0,f,0.9021688519997042,0,38.59269180699994,40.09472963200005,,,,,,,,,,,,,,,,,,,,,,,,,,,,,,,,,,,,,,,,,,,,,,,,,,,,,,,,,,,,39022,2022-10-25_10h28.10.269,vts_reward_expectancy_bt_OFFLINE,2022.2.4,59.975928421216494,
,,,,0,0,0,0,2,0,2,0,,,,,,,,,,,,,,,,,,,,,,,,,,,,,,,,139,U,star,0.0010596700003588921,41.07379949999995,42.58022275999974,42.58022275999974,42.58022275999974,1,0,d,0.8437922789998993,0,43.447959150000315,44.949656843999946,,,,,,,,,,,,,,,,,,,,,,,,,,,,,,,,,,,,,,,,,,,,,,,,,,,,,,,,,,,,39022,2022-10-25_10h28.10.269,vts_reward_expectancy_bt_OFFLINE,2022.2.4,59.975928421216494,
,,,,0,0,0,0,3,0,3,0,,,,,,,,,,,,,,,,,,,,,,,,,,,,,,,,132,D,triangle,0.0018491420005375403,45.92812465299994,47.43573336100053,47.43573336100053,47.43573336100053,0,0,None,,0,50.43906741000046,51.94093941099982,50.43906741000046,50.43906741000046,50.43906741000046,50.43906741000046,51.94093941099982,52.44109714000024,,,,,,,,,,,,,,,,,,,,,,,,,,,,,,,,,,,,,,,,,,,,,,,,,,,,,,39022,2022-10-25_10h28.10.269,vts_reward_expectancy_bt_OFFLINE,2022.2.4,59.975928421216494,
,,,,0,0,0,0,4,0,4,0,,,,,,,,,,,,,,,,,,,,,,,,,,,,,,,,174,W,star,0.00905750500078284,52.93773459299973,54.443321724999805,54.443321724999805,54.443321724999805,1,1,f,0.6279667930002688,0,55.09399734300041,56.595795897000244,,,,,,,,,,,,,,,,,,,,,,,,,,,,,,,,,,,,,,,,,,,,,,,,,,,,,,,,,,,,39022,2022-10-25_10h28.10.269,vts_reward_expectancy_bt_OFFLINE,2022.2.4,59.975928421216494,
,,,,0,0,0,0,5,0,5,0,,,,,,,,,,,,,,,,,,,,,,,,,,,,,,,,146,B,circle,0.0019554219998099143,57.57453043100031,59.081987585000206,59.081987585000206,59.081987585000206,0,0,f,1.0689374930007034,0,60.183139499999925,61.6849821830001,,,,,,,,,,,,,,,,,,,,,,,,,,,,,,,,,,,,,,,,,,,,,,,,,,,,,,,,,,,,39022,2022-10-25_10h28.10.269,vts_reward_expectancy_bt_OFFLINE,2022.2.4,59.975928421216494,
,,,,0,0,0,0,6,0,6,0,,,,,,,,,,,,,,,,,,,,,,,,,,,,,,,,167,H,hexagon,0.0012785460003215121,62.663125099000354,64.17104703099994,64.17104703099994,64.17104703099994,1,1,f,0.7020551780005917,0,64.90524234700024,66.4066682800003,,,,,,,,,,,,,,,,,,,,,,,,,,,,,,,,,,,,,,,,,,,,,,,,,,,,,,,,,,,,39022,2022-10-25_10h28.10.269,vts_reward_expectancy_bt_OFFLINE,2022.2.4,59.975928421216494,
,,,,0,0,0,0,7,0,7,0,,,,,,,,,,,,,,,,,,,,,,,,,,,,,,,,125,F,triangle,0.0016365880001103505,67.38537052300035,68.89294245700057,68.89294245700057,68.89294245700057,1,0,d,0.7147388470002625,0,69.6268872540004,71.12845794700024,,,,,,,,,,,,,,,,,,,,,,,,,,,,,,,,,,,,,,,,,,,,,,,,,,,,,,,,,,,,39022,2022-10-25_10h28.10.269,vts_reward_expectancy_bt_OFFLINE,2022.2.4,59.975928421216494,
,,,,0,0,0,0,8,0,8,0,,,,,,,,,,,,,,,,,,,,,,,,,,,,,,,,181,S,hexagon,0.001304852000430401,72.1061585970001,73.61451035299979,73.61451035299979,73.61451035299979,1,0,f,0.6651986020006007,0,74.29872044600052,75.80018801300048,,,,,,,,,,,,,,,,,,,,,,,,,,,,,,,,,,,,,,,,,,,,,,,,,,,,,,,,,,,,39022,2022-10-25_10h28.10.269,vts_reward_expectancy_bt_OFFLINE,2022.2.4,59.975928421216494,
,,,,0,0,0,0,9,0,9,0,,,,,,,,,,,,,,,,,,,,,,,,,,,,,,,,160,Y,circle,0.0009883969996735686,76.77810829200007,78.28665060700041,78.28665060700041,78.28665060700041,1,0,f,0.496468265000658,0,78.80377041700012,80.30529736600056,,,,,,,,,,,,,,,,,,,,,,,,,,,,,,,,,,,,,,,,,,,,,,,,,,,,,,,,,,,,39022,2022-10-25_10h28.10.269,vts_reward_expectancy_bt_OFFLINE,2022.2.4,59.975928421216494,
,,,,1,0,1,0,0,0,0,0,,,,,,,,,,,,,,,,,,,,,,,,,,,,,,,,181,U,circle,0.0017148530005215434,92.29644960699989,93.80363811900042,93.80363811900042,93.80363811900042,1,0,f,0.524046145000284,1,94.35421939299977,95.85585185699983,,,,,,,,,,,,,,,,,,,,,,,,,,,,,,,,,,,,,,,,,,,,,,,,,,,,,,,,,,,,39022,2022-10-25_10h28.10.269,vts_reward_expectancy_bt_OFFLINE,2022.2.4,59.975928421216494,
,,,,1,0,1,0,1,0,1,0,,,,,,,,,,,,,,,,,,,,,,,,,,,,,,,,132,F,hexagon,0.0015365950002887985,96.83354188399971,98.34171449400037,98.34171449400037,98.34171449400037,1,0,d,0.8513998979997268,1,99.20938902800026,100.71101334800005,,,,,,,,,,,,,,,,,,,,,,,,,,,,,,,,,,,,,,,,,,,,,,,,,,,,,,,,,,,,39022,2022-10-25_10h28.10.269,vts_reward_expectancy_bt_OFFLINE,2022.2.4,59.975928421216494,
,,,,1,0,1,0,2,0,2,0,,,,,,,,,,,,,,,,,,,,,,,,,,,,,,,,125,H,star,0.0009264990003430285,101.68910707899977,103.19721580500027,103.19721580500027,103.19721580500027,1,0,d,0.7710258540000723,1,103.9981350779999,105.49980213799972,,,,,,,,,,,,,,,,,,,,,,,,,,,,,,,,,,,,,,,,,,,,,,,,,,,,,,,,,,,,39022,2022-10-25_10h28.10.269,vts_reward_expectancy_bt_OFFLINE,2022.2.4,59.975928421216494,
,,,,1,0,1,0,3,0,3,0,,,,,,,,,,,,,,,,,,,,,,,,,,,,,,,,160,Y,triangle,0.0016461300001537893,106.47787752299973,107.98587111699999,107.98587111699999,107.98587111699999,1,0,f,1.0226410260002012,1,109.03727732700008,110.53865483800018,,,,,,,,,,,,,,,,,,,,,,,,,,,,,,,,,,,,,,,,,,,,,,,,,,,,,,,,,,,,39022,2022-10-25_10h28.10.269,vts_reward_expectancy_bt_OFFLINE,2022.2.4,59.975928421216494,
,,,,1,0,1,0,4,0,4,0,,,,,,,,,,,,,,,,,,,,,,,,,,,,,,,,174,W,circle,0.0021037119995526155,111.51783921200058,113.02476676700007,113.02476676700007,113.02476676700007,1,0,f,0.7273455180002202,1,113.77554715400038,115.27722675699988,,,,,,,,,,,,,,,,,,,,,,,,,,,,,,,,,,,,,,,,,,,,,,,,,,,,,,,,,,,,39022,2022-10-25_10h28.10.269,vts_reward_expectancy_bt_OFFLINE,2022.2.4,59.975928421216494,
,,,,1,0,1,0,5,0,5,0,,,,,,,,,,,,,,,,,,,,,,,,,,,,,,,,139,D,star,0.0017207239998242585,116.25513851800042,117.76321707900024,117.76321707900024,117.76321707900024,1,0,d,0.9959424349999608,1,118.78120215200033,120.28278831599982,,,,,,,,,,,,,,,,,,,,,,,,,,,,,,,,,,,,,,,,,,,,,,,,,,,,,,,,,,,,39022,2022-10-25_10h28.10.269,vts_reward_expectancy_bt_OFFLINE,2022.2.4,59.975928421216494,
,,,,1,0,1,0,6,0,6,0,,,,,,,,,,,,,,,,,,,,,,,,,,,,,,,,167,B,triangle,0.0018915299997388502,121.2613420409998,122.76894051799991,122.76894051799991,122.76894051799991,1,0,f,0.599725290000606,1,123.386360427,124.88785413000005,,,,,,,,,,,,,,,,,,,,,,,,,,,,,,,,,,,,,,,,,,,,,,,,,,,,,,,,,,,,39022,2022-10-25_10h28.10.269,vts_reward_expectancy_bt_OFFLINE,2022.2.4,59.975928421216494,
,,,,1,0,1,0,7,0,7,0,,,,,,,,,,,,,,,,,,,,,,,,,,,,,,,,146,S,hexagon,0.0009378280001328676,125.86590004200025,127.37387824000052,127.37387824000052,127.37387824000052,1,0,d,0.9689974339999026,1,128.37486258700028,129.87689187599972,,,,,,,,,,,,,,,,,,,,,,,,,,,,,,,,,,,,,,,,,,,,,,,,,,,,,,,,,,,,39022,2022-10-25_10h28.10.269,vts_reward_expectancy_bt_OFFLINE,2022.2.4,59.975928421216494,
,,,,1,0,1,0,8,0,8,0,,,,,,,,,,,,,,,,,,,,,,,,,,,,,,,,181,U,triangle,0.0016469419997520163,130.85361685299995,132.36272799900053,132.36272799900053,132.36272799900053,1,0,f,0.9344072650001181,1,133.31377896899994,134.81538676000037,,,,,,,,,,,,,,,,,,,,,,,,,,,,,,,,,,,,,,,,,,,,,,,,,,,,,,,,,,,,39022,2022-10-25_10h28.10.269,vts_reward_expectancy_bt_OFFLINE,2022.2.4,59.975928421216494,
,,,,1,0,1,0,9,0,9,0,,,,,,,,,,,,,,,,,,,,,,,,,,,,,,,,132,F,star,0.0009696909992271685,135.79140445099983,137.30158261900033,137.30158261900033,137.30158261900033,1,0,d,1.0101949689997127,1,138.33599564399992,139.83771512600015,,,,,,,,,,,,,,,,,,,,,,,,,,,,,,,,,,,,,,,,,,,,,,,,,,,,,,,,,,,,39022,2022-10-25_10h28.10.269,vts_reward_expectancy_bt_OFFLINE,2022.2.4,59.975928421216494,
,,,,,,,,,,,,0,0,0,0,0,0,0,0,,,,,,,,,,,,,,,,,,,,,,,,181,S,triangle,0.0015650710001864354,,,,,2,0,,,2,154.70450951600014,156.20569109400003,,,,,,,151.37717459800024,152.88544970299972,152.88544970299972,152.88544970299972,f,1.7865020689996527,,,,,,,,,,,,,,,,,,,,,,,,,,,,,,,,,,,,,,,,,,,,,,,,39022,2022-10-25_10h28.10.269,vts_reward_expectancy_bt_OFFLINE,2022.2.4,59.975928421216494,
,,,,,,,,,,,,0,0,0,0,1,0,1,0,,,,,,,,,,,,,,,,,,,,,,,,174,U,star,0.0016693589996066294,,,,,2,0,,,2,160.37678766299996,161.87855525800023,,,,,161.87855525800023,,157.18271423100032,158.69185829399976,158.69185829399976,158.69185829399976,f,1.6689827059999516,,,,,,,,,,,,,,,,,,,,,,,,,,,,,,,,,,,,,,,,,,,,,,,,39022,2022-10-25_10h28.10.269,vts_reward_expectancy_bt_OFFLINE,2022.2.4,59.975928421216494,
,,,,,,,,,,,,0,0,0,0,2,0,2,0,,,,,,,,,,,,,,,,,,,,,,,,146,H,hexagon,0.0009520869998596027,,,,,2,0,,,2,165.76710929399997,167.26796681300038,,,,,,,162.86353160599992,164.36469853000017,164.36469853000017,164.36469853000017,d,1.3708758530001433,,,,,,,,,,,,,,,,,,,,,,,,,,,,,,,,,,,,,,,,,,,,,,,,39022,2022-10-25_10h28.10.269,vts_reward_expectancy_bt_OFFLINE,2022.2.4,59.975928421216494,
,,,,,,,,,,,,0,0,0,0,3,0,3,0,,,,,,,,,,,,,,,,,,,,,,,,167,D,circle,0.003002937000019301,,,,,2,0,,,2,170.5048390359998,172.0065035710004,,,,,,,168.2449958369998,169.75394664400028,169.75394664400028,169.75394664400028,f,0.7182700099992871,,,,,,,,,,,,,,,,,,,,,,,,,,,,,,,,,,,,,,,,,,,,,,,,39022,2022-10-25_10h28.10.269,vts_reward_expectancy_bt_OFFLINE,2022.2.4,59.975928421216494,
,,,,,,,,,,,,0,0,0,0,4,0,4,0,,,,,,,,,,,,,,,,,,,,,,,,139,F,triangle,0.0014448419997279416,,,,,2,0,,,2,175.36013260500022,176.86175792700033,,,,,,,172.98343565899995,174.49252432899993,174.49252432899993,174.49252432899993,d,0.8354550419999214,,,,,,,,,,,,,,,,,,,,,,,,,,,,,,,,,,,,,,,,,,,,,,,,39022,2022-10-25_10h28.10.269,vts_reward_expectancy_bt_OFFLINE,2022.2.4,59.975928421216494,
,,,,,,,,,,,,0,0,0,0,5,0,5,0,,,,,,,,,,,,,,,,,,,,,,,,125,B,circle,0.0017453540003771195,,,,,2,0,,,2,181.48354036199999,182.98566108900013,,,,,,,177.83837549500004,179.34788818300058,179.34788818300058,179.34788818300058,d,2.1163842169999043,,,,,,,,,,,,,,,,,,,,,,,,,,,,,,,,,,,,,,,,,,,,,,,,39022,2022-10-25_10h28.10.269,vts_reward_expectancy_bt_OFFLINE,2022.2.4,59.975928421216494,
,,,,,,,,,,,,0,0,0,0,6,0,6,0,,,,,,,,,,,,,,,,,,,,,,,,132,Y,star,0.0015436989997397177,,,,,0,0,,,2,188.47444843300036,189.9761661499997,,,,,189.9761661499997,190.4767840000004,183.96282421399974,185.47136293899985,185.47136293899985,185.47136293899985,None,,188.47444843300036,188.47444843300036,188.47444843300036,188.47444843300036,,,,,,,,,,,,,,,,,,,,,,,,,,,,,,,,,,,,,,,,,,,,39022,2022-10-25_10h28.10.269,vts_reward_expectancy_bt_OFFLINE,2022.2.4,59.975928421216494,
,,,,,,,,,,,,0,0,0,0,7,0,7,0,,,,,,,,,,,,,,,,,,,,,,,,160,W,hexagon,0.008724293999875954,,,,,2,1,,,2,193.8139265179998,195.31549875499968,,,,,,,190.9695991030003,192.47897912200006,192.47897912200006,192.47897912200006,f,1.3039536149999549,,,,,,,,,,,,,,,,,,,,,,,,,,,,,,,,,,,,,,,,,,,,,,,,39022,2022-10-25_10h28.10.269,vts_reward_expectancy_bt_OFFLINE,2022.2.4,59.975928421216494,
,,,,,,,,,,,,0,0,0,0,8,0,8,0,,,,,,,,,,,,,,,,,,,,,,,,181,S,triangle,0.0015764640002089436,,,,,2,0,,,2,198.33554408500004,199.83718419199977,,,,,,,196.29229700300039,197.801427806,197.801427806,197.801427806,f,0.5015924850004012,,,,,,,,,,,,,,,,,,,,,,,,,,,,,,,,,,,,,,,,,,,,,,,,39022,2022-10-25_10h28.10.269,vts_reward_expectancy_bt_OFFLINE,2022.2.4,59.975928421216494,
,,,,,,,,,,,,0,0,0,0,9,0,9,0,,,,,,,,,,,,,,,,,,,,,,,,174,U,circle,0.0017162590002044453,,,,,2,0,,,2,203.3745454480004,204.87619107499995,,,,,,,200.81448139500026,202.32337303300028,202.32337303300028,202.32337303300028,d,1.0201858480004375,,,,,,,,,,,,,,,,,,,,,,,,,,,,,,,,,,,,,,,,,,,,,,,,39022,2022-10-25_10h28.10.269,vts_reward_expectancy_bt_OFFLINE,2022.2.4,59.975928421216494,
,,,,,,,,,,,,1,0,1,0,0,0,0,0,,,,,,,,,,,,,,,,,,,,,,,,174,Y,triangle,0.0019413849995544297,,,,,1,0,,,3,220.6100174359999,222.11173505500028,,,,,,,218.2994495160001,219.80930386900036,219.80930386900036,219.80930386900036,k,0.7839730760006205,,,,,,,,,,,,,,,,,,,,,,,,,,,,,,,,,,,,,,,,,,,,,,,,39022,2022-10-25_10h28.10.269,vts_reward_expectancy_bt_OFFLINE,2022.2.4,59.975928421216494,
,,,,,,,,,,,,1,0,1,0,1,0,1,0,,,,,,,,,,,,,,,,,,,,,,,,132,D,star,0.0011706670002240571,,,,,1,0,,,3,225.54905453500032,227.05085763199986,,,,,,,223.08844284400038,224.59787183200024,224.59787183200024,224.59787183200024,j,0.9301096870003676,,,,,,,,,,,,,,,,,,,,,,,,,,,,,,,,,,,,,,,,,,,,,,,,39022,2022-10-25_10h28.10.269,vts_reward_expectancy_bt_OFFLINE,2022.2.4,59.975928421216494,
,,,,,,,,,,,,1,0,1,0,2,0,2,0,,,,,,,,,,,,,,,,,,,,,,,,125,H,hexagon,0.0018072220000249217,,,,,1,0,,,3,230.7210800640005,232.22271360100058,,,,,,,228.03367624900056,229.53668762400048,229.53668762400048,229.53668762400048,j,1.1583667020004214,,,,,,,,,,,,,,,,,,,,,,,,,,,,,,,,,,,,,,,,,,,,,,,,39022,2022-10-25_10h28.10.269,vts_reward_expectancy_bt_OFFLINE,2022.2.4,59.975928421216494,
,,,,,,,,,,,,1,0,1,0,3,0,3,0,,,,,,,,,,,,,,,,,,,,,,,,181,U,circle,0.0017400830001861323,,,,,1,0,,,3,235.82678455800033,237.3286403410002,,,,,,,233.2001806799999,234.70887670400043,234.70887670400043,234.70887670400043,k,1.0985556100004032,,,,,,,,,,,,,,,,,,,,,,,,,,,,,,,,,,,,,,,,,,,,,,,,39022,2022-10-25_10h28.10.269,vts_reward_expectancy_bt_OFFLINE,2022.2.4,59.975928421216494,
,,,,,,,,,,,,1,0,1,0,4,0,4,0,,,,,,,,,,,,,,,,,,,,,,,,146,S,circle,0.0014111899999988964,,,,,1,0,,,3,240.69892630600043,242.2005908050005,,,,,,,238.30545093,239.81461827800013,239.81461827800013,239.81461827800013,k,0.8651826049999727,,,,,,,,,,,,,,,,,,,,,,,,,,,,,,,,,,,,,,,,,,,,,,,,39022,2022-10-25_10h28.10.269,vts_reward_expectancy_bt_OFFLINE,2022.2.4,59.975928421216494,
,,,,,,,,,,,,1,0,1,0,5,0,5,0,,,,,,,,,,,,,,,,,,,,,,,,160,B,hexagon,0.0014793290001762216,,,,,1,0,,,3,245.43770925900026,246.93942604600034,,,,,,,243.1782265339998,244.68664291000005,244.68664291000005,244.68664291000005,j,0.7284184000000096,,,,,,,,,,,,,,,,,,,,,,,,,,,,,,,,,,,,,,,,,,,,,,,,39022,2022-10-25_10h28.10.269,vts_reward_expectancy_bt_OFFLINE,2022.2.4,59.975928421216494,
,,,,,,,,,,,,1,0,1,0,6,0,6,0,,,,,,,,,,,,,,,,,,,,,,,,139,F,triangle,0.0016668789994582767,,,,,1,0,,,3,251.37765608600057,252.87891906200002,,,,,,,247.91600818999996,249.42524552600025,249.42524552600025,249.42524552600025,j,1.9195617530003801,,,,,,,,,,,,,,,,,,,,,,,,,,,,,,,,,,,,,,,,,,,,,,,,39022,2022-10-25_10h28.10.269,vts_reward_expectancy_bt_OFFLINE,2022.2.4,59.975928421216494,
,,,,,,,,,,,,1,0,1,0,7,0,7,0,,,,,,,,,,,,,,,,,,,,,,,,167,W,star,0.0016805290006232099,,,,,1,0,,,3,256.232722924,257.73427420700045,,,,,,,253.85530696899968,255.36568148400056,255.36568148400056,255.36568148400056,k,0.8344912279999335,,,,,,,,,,,,,,,,,,,,,,,,,,,,,,,,,,,,,,,,,,,,,,,,39022,2022-10-25_10h28.10.269,vts_reward_expectancy_bt_OFFLINE,2022.2.4,59.975928421216494,
,,,,,,,,,,,,1,0,1,0,8,0,8,0,,,,,,,,,,,,,,,,,,,,,,,,174,Y,star,0.0018631350003488478,,,,,1,0,,,3,261.3874809030003,262.89042142500057,,,,,,,258.711476165,260.22038649299975,260.22038649299975,260.22038649299975,k,1.1471144520000962,,,,,,,,,,,,,,,,,,,,,,,,,,,,,,,,,,,,,,,,,,,,,,,,39022,2022-10-25_10h28.10.269,vts_reward_expectancy_bt_OFFLINE,2022.2.4,59.975928421216494,
,,,,,,,,,,,,1,0,1,0,9,0,9,0,,,,,,,,,,,,,,,,,,,,,,,,132,D,hexagon,0.0010654429997885018,,,,,1,0,,,3,266.3939087810004,267.8954904930006,,,,,,,263.8676624440004,265.37642868200055,265.37642868200055,265.37642868200055,j,1.0008380709996345,,,,,,,,,,,,,,,,,,,,,,,,,,,,,,,,,,,,,,,,,,,,,,,,39022,2022-10-25_10h28.10.269,vts_reward_expectancy_bt_OFFLINE,2022.2.4,59.975928421216494,
,,,,,,,,,,,,,,,,,,,,0,0,0,0,0,0,0,0,,,,,,,,,,,,,,,,174,S,circle,0.001524642999356729,,,,,1,0,,,4,,305.9543473700005,,,,,,,,,,,,,,,,,301.01303363700026,301.01303363700026,301.01303363700026,301.01303363700026,302.51713664,302.51713664,302.51713664,302.51713664,302.51713664,302.51713664,302.51713664,302.51713664,-1,number,NA,f,1.9074984550006775,vtsPrac,0,0,304.4524916150003,,,,,,,,,,,,,,,,,,,,,,,39022,2022-10-25_10h28.10.269,vts_reward_expectancy_bt_OFFLINE,2022.2.4,59.975928421216494,
,,,,,,,,,,,,,,,,,,,,0,0,0,0,1,0,1,0,,,,,,,,,,,,,,,,132,Y,triangle,0.0015566120000585215,,,,,1,0,,,4,,312.1781160319997,,,,,,,,,,,,,,,,,306.93450678299996,306.93450678299996,306.93450678299996,306.93450678299996,308.44036575300015,308.44036575300015,308.44036575300015,308.44036575300015,308.44036575300015,308.44036575300015,308.44036575300015,308.44036575300015,switch,letter,lettSwt,k,2.2156943930003763,vtsPrac,0,0,310.67623276999984,,,,,,,,,,,,,,,,,,,,,,,39022,2022-10-25_10h28.10.269,vts_reward_expectancy_bt_OFFLINE,2022.2.4,59.975928421216494,
,,,,,,,,,,,,,,,,,,,,0,0,0,0,2,0,2,0,,,,,,,,,,,,,,,,125,F,triangle,0.0013442310000755242,,,,,1,0,,,4,,316.9330404980001,,,,,,,,,,,,,,,,,313.1569115500006,313.1569115500006,313.1569115500006,313.1569115500006,314.6638184499998,314.6638184499998,314.6638184499998,314.6638184499998,314.6638184499998,314.6638184499998,314.6638184499998,314.6638184499998,repeat,letter,lettRpt,j,0.74349854600041,vtsPrac,0,0,315.4312023379998,,,,,,,,,,,,,,,,,,,,,,,39022,2022-10-25_10h28.10.269,vts_reward_expectancy_bt_OFFLINE,2022.2.4,59.975928421216494,
,,,,,,,,,,,,,,,,,,,,0,0,0,0,3,0,3,0,,,,,,,,,,,,,,,,160,B,hexagon,0.001605383000423899,,,,,1,0,,,4,,321.6383989349997,,,,,,,,,,,,,,,,,317.9132497370001,317.9132497370001,317.9132497370001,317.9132497370001,319.4192815289998,319.4192815289998,319.4192815289998,319.4192815289998,319.4192815289998,319.4192815289998,319.4192815289998,319.4192815289998,repeat,letter,lettRpt,j,0.6923655109994797,vtsPrac,0,0,320.13665727199987,,,,,,,,,,,,,,,,,,,,,,,39022,2022-10-25_10h28.10.269,vts_reward_expectancy_bt_OFFLINE,2022.2.4,59.975928421216494,
,,,,,,,,,,,,,,,,,,,,0,0,0,0,4,0,4,0,,,,,,,,,,,,,,,,174,S,star,0.001555523000206449,,,,,1,0,,,4,,326.17643947299985,,,,,,,,,,,,,,,,,322.6151121720004,322.6151121720004,322.6151121720004,322.6151121720004,324.12409003799985,324.12409003799985,324.12409003799985,324.12409003799985,324.12409003799985,324.12409003799985,324.12409003799985,324.12409003799985,switch,number,numSwt,f,0.5317686580001464,vtsPrac,0,0,324.6749250040002,,,,,,,,,,,,,,,,,,,,,,,39022,2022-10-25_10h28.10.269,vts_reward_expectancy_bt_OFFLINE,2022.2.4,59.975928421216494,
,,,,,,,,,,,,,,,,,,,,0,0,0,0,5,0,5,0,,,,,,,,,,,,,,,,132,Y,circle,0.001115180999477161,,,,,1,0,,,4,,331.2655494820001,,,,,,,,,,,,,,,,,327.1549806789999,327.1549806789999,327.1549806789999,327.1549806789999,328.6626409420005,328.6626409420005,328.6626409420005,328.6626409420005,328.6626409420005,328.6626409420005,328.6626409420005,328.6626409420005,repeat,number,numRpt,d,1.0815115880004669,vtsPrac,0,0,329.76379642400025,,,,,,,,,,,,,,,,,,,,,,,39022,2022-10-25_10h28.10.269,vts_reward_expectancy_bt_OFFLINE,2022.2.4,59.975928421216494,
,,,,,,,,,,,,,,,,,,,,0,0,0,0,6,0,6,0,,,,,,,,,,,,,,,,125,F,hexagon,0.0014614709998568287,,,,,1,0,,,4,,335.9706103010003,,,,,,,,,,,,,,,,,332.2431297989997,332.2431297989997,332.2431297989997,332.2431297989997,333.75172415900033,333.75172415900033,333.75172415900033,333.75172415900033,333.75172415900033,333.75172415900033,333.75172415900033,333.75172415900033,repeat,number,numRpt,d,0.6961549620000369,vtsPrac,0,0,334.46916825100016,,,,,,,,,,,,,,,,,,,,,,,39022,2022-10-25_10h28.10.269,vts_reward_expectancy_bt_OFFLINE,2022.2.4,59.975928421216494,
,,,,,,,,,,,,,,,,,,,,0,0,0,0,7,0,7,0,,,,,,,,,,,,,,,,160,B,star,0.00175750899961713,,,,,1,0,,,4,,340.7091161520002,,,,,,,,,,,,,,,,,336.94799161799983,336.94799161799983,336.94799161799983,336.94799161799983,338.4566792249998,338.4566792249998,338.4566792249998,338.4566792249998,338.4566792249998,338.4566792249998,338.4566792249998,338.4566792249998,repeat,number,numRpt,f,0.726756443999875,vtsPrac,0,0,339.2075977220002,,,,,,,,,,,,,,,,,,,,,,,39022,2022-10-25_10h28.10.269,vts_reward_expectancy_bt_OFFLINE,2022.2.4,59.975928421216494,
,,,,,,,,,,,,,,,,,,,,0,0,0,0,8,0,8,0,,,,,,,,,,,,,,,,125,D,triangle,0.0016141890000653802,,,,,1,0,,,4,,345.3310375830006,,,,,,,,,,,,,,,,,341.68698424600007,341.68698424600007,341.68698424600007,341.68698424600007,343.19521631299995,343.19521631299995,343.19521631299995,343.19521631299995,343.19521631299995,343.19521631299995,343.19521631299995,343.19521631299995,switch,letter,lettSwt,j,0.6052263169995058,vtsPrac,0,0,343.82945613599986,,,,,,,,,,,,,,,,,,,,,,,39022,2022-10-25_10h28.10.269,vts_reward_expectancy_bt_OFFLINE,2022.2.4,59.975928421216494,
,,,,,,,,,,,,,,,,,,,,0,0,0,0,9,0,9,0,,,,,,,,,,,,,,,,139,U,circle,0.0016446190002170624,,,,,1,0,,,4,,350.1529158399999,,,,,,,,,,,,,,,,,346.3100575079998,346.3100575079998,346.3100575079998,346.3100575079998,347.8172146659999,347.8172146659999,347.8172146659999,347.8172146659999,347.8172146659999,347.8172146659999,347.8172146659999,347.8172146659999,repeat,letter,lettRpt,k,0.8147886659999131,vtsPrac,0,0,348.6513726539997,,,,,,,,,,,,,,,,,,,,,,,39022,2022-10-25_10h28.10.269,vts_reward_expectancy_bt_OFFLINE,2022.2.4,59.975928421216494,
,,,,,,,,,,,,,,,,,,,,0,0,0,0,10,0,10,0,,,,,,,,,,,,,,,,167,S,circle,0.0014711399999214336,,,,,1,0,,,4,,355.02511974499976,,,,,,,,,,,,,,,,,351.1306932240004,351.1306932240004,351.1306932240004,351.1306932240004,352.6394472990005,352.6394472990005,352.6394472990005,352.6394472990005,352.6394472990005,352.6394472990005,352.6394472990005,352.6394472990005,repeat,letter,lettRpt,k,0.8648983220000446,vtsPrac,0,0,353.52353245300037,,,,,,,,,,,,,,,,,,,,,,,39022,2022-10-25_10h28.10.269,vts_reward_expectancy_bt_OFFLINE,2022.2.4,59.975928421216494,
,,,,,,,,,,,,,,,,,,,,0,0,0,0,11,0,11,0,,,,,,,,,,,,,,,,174,W,star,0.0014789469996685511,,,,,1,0,,,4,,359.6969678880005,,,,,,,,,,,,,,,,,356.00346334000005,356.00346334000005,356.00346334000005,356.00346334000005,357.51119114500034,357.51119114500034,357.51119114500034,357.51119114500034,357.51119114500034,357.51119114500034,357.51119114500034,357.51119114500034,switch,number,numSwt,f,0.6648624669996934,vtsPrac,0,0,358.1952431469999,,,,,,,,,,,,,,,,,,,,,,,39022,2022-10-25_10h28.10.269,vts_reward_expectancy_bt_OFFLINE,2022.2.4,59.975928421216494,
,,,,,,,,,,,,,,,,,,,,0,0,0,0,12,0,12,0,,,,,,,,,,,,,,,,125,W,triangle,0.001253818999430223,,,,,1,0,,,4,,364.3523397250001,,,,,,,,,,,,,,,,,360.6736528299998,360.6736528299998,360.6736528299998,360.6736528299998,362.18311642699973,362.18311642699973,362.18311642699973,362.18311642699973,362.18311642699973,362.18311642699973,362.18311642699973,362.18311642699973,repeat,number,numRpt,d,0.6484879199997522,vtsPrac,0,0,362.84946282500005,,,,,,,,,,,,,,,,,,,,,,,39022,2022-10-25_10h28.10.269,vts_reward_expectancy_bt_OFFLINE,2022.2.4,59.975928421216494,
,,,,,,,,,,,,,,,,,,,,0,0,0,0,13,0,13,0,,,,,,,,,,,,,,,,139,U,hexagon,0.002580849999503698,,,,,1,0,,,4,,369.3908976009998,,,,,,,,,,,,,,,,,365.329750893,365.329750893,365.329750893,365.329750893,366.8381176470002,366.8381176470002,366.8381176470002,366.8381176470002,366.8381176470002,366.8381176470002,366.8381176470002,366.8381176470002,repeat,number,numRpt,d,1.024981057000332,vtsPrac,0,0,367.88907005300007,,,,,,,,,,,,,,,,,,,,,,,39022,2022-10-25_10h28.10.269,vts_reward_expectancy_bt_OFFLINE,2022.2.4,59.975928421216494,
,,,,,,,,,,,,,,,,,,,,0,0,0,0,14,0,14,0,,,,,,,,,,,,,,,,167,F,triangle,0.0016545939997740788,,,,,1,0,,,4,,374.1961690139997,,,,,,,,,,,,,,,,,370.36865526099973,370.36865526099973,370.36865526099973,370.36865526099973,371.8768410170005,371.8768410170005,371.8768410170005,371.8768410170005,371.8768410170005,371.8768410170005,371.8768410170005,371.8768410170005,switch,letter,lettSwt,j,0.7951834780005811,vtsPrac,0,0,372.6946787120005,,,,,,,,,,,,,,,,,,,,,,,39022,2022-10-25_10h28.10.269,vts_reward_expectancy_bt_OFFLINE,2022.2.4,59.975928421216494,
,,,,,,,,,,,,,,,,,,,,0,0,0,0,15,0,15,0,,,,,,,,,,,,,,,,146,S,hexagon,0.0015000949997556745,,,,,0,0,,,4,,379.66881198900046,,,,,,,,,,,,,,,,,375.1727872440006,375.1727872440006,375.1727872440006,375.1727872440006,376.6822707800002,376.6822707800002,376.6822707800002,376.6822707800002,376.6822707800002,376.6822707800002,376.6822707800002,376.6822707800002,switch,number,NA,f,1.4615627130006033,vtsPrac,0,0,378.16730672999984,,,,,,,,,,,,,,,,,,,,,,,39022,2022-10-25_10h28.10.269,vts_reward_expectancy_bt_OFFLINE,2022.2.4,59.975928421216494,
,,,,,,,,,,,,,,,,,,,,,,,,,,,,0,0,0,0,,,,,,,,,,,,132,U,triangle,0.0022722710000380175,,,,,1,1,,,,,404.0624274230004,,,,,,,,,,,,,,,,,399.7845237399997,399.7845237399997,399.7845237399997,399.7845237399997,401.2928636030001,401.2928636030001,401.2928636030001,401.2928636030001,401.2928636030001,401.2928636030001,401.2928636030001,401.2928636030001,repeat,number,numRpt,d,1.2356580850000682,noRew,0,0,,0,402.56082884199986,,,,,,,,,,,,,,,,,,,,,39022,2022-10-25_10h28.10.269,vts_reward_expectancy_bt_OFFLINE,2022.2.4,59.975928421216494,
,,,,,,,,,,,,,,,,,,,,,,,,,,,,1,0,1,0,,,,,,,,,,,,174,W,circle,0.0011895609995917766,,,,,1,0,,,,,409.5854942579999,,,,,,,,,,,,,,,,,405.03945239899986,405.03945239899986,405.03945239899986,405.03945239899986,406.5484758319999,406.5484758319999,406.5484758319999,406.5484758319999,406.5484758319999,406.5484758319999,406.5484758319999,406.5484758319999,switch,letter,lettSwt,k,1.5072150910000346,noRew,0,0,,0,408.08401536900055,,,,,,,,,,,,,,,,,,,,,39022,2022-10-25_10h28.10.269,vts_reward_expectancy_bt_OFFLINE,2022.2.4,59.975928421216494,
,,,,,,,,,,,,,,,,,,,,,,,,,,,,2,0,2,0,,,,,,,,,,,,146,B,star,0.0015606400002070586,,,,,1,0,,,,,414.14026383500004,,,,,,,,,,,,,,,,,410.56339402899994,410.56339402899994,410.56339402899994,410.56339402899994,412.07154930700017,412.07154930700017,412.07154930700017,412.07154930700017,412.07154930700017,412.07154930700017,412.07154930700017,412.07154930700017,repeat,letter,lettRpt,j,0.5361634169994431,noRew,0,0,,0,412.6388300489998,,,,,,,,,,,,,,,,,,,,,39022,2022-10-25_10h28.10.269,vts_reward_expectancy_bt_OFFLINE,2022.2.4,59.975928421216494,
,,,,,,,,,,,,,,,,,,,,,,,,,,,,3,0,3,0,,,,,,,,,,,,160,F,triangle,0.001703005999843299,,,,,1,0,,,,,418.69526139000027,,,,,,,,,,,,,,,,,415.11751909099985,415.11751909099985,415.11751909099985,415.11751909099985,416.62632749099976,416.62632749099976,416.62632749099976,416.62632749099976,416.62632749099976,416.62632749099976,416.62632749099976,416.62632749099976,repeat,letter,lettRpt,j,0.5505059689994596,noRew,0,0,,0,417.1937161189999,,,,,,,,,,,,,,,,,,,,,39022,2022-10-25_10h28.10.269,vts_reward_expectancy_bt_OFFLINE,2022.2.4,59.975928421216494,
,,,,,,,,,,,,,,,,,,,,,,,,,,,,4,0,4,0,,,,,,,,,,,,132,U,circle,0.0010163699998884113,,,,,1,0,,,,,423.5173249870004,,,,,,,,,,,,,,,,,419.6733401399997,419.6733401399997,419.6733401399997,419.6733401399997,421.18142689399974,421.18142689399974,421.18142689399974,421.18142689399974,421.18142689399974,421.18142689399974,421.18142689399974,421.18142689399974,switch,number,numSwt,d,0.809816927000611,noRew,0,0,,0,422.01570780400016,,,,,,,,,,,,,,,,,,,,,39022,2022-10-25_10h28.10.269,vts_reward_expectancy_bt_OFFLINE,2022.2.4,59.975928421216494,
,,,,,,,,,,,,,,,,,,,,,,,,,,,,5,0,5,0,,,,,,,,,,,,174,W,hexagon,0.001518915999440651,,,,,1,0,,,,,428.3223315080004,,,,,,,,,,,,,,,,,424.4950175619997,424.4950175619997,424.4950175619997,424.4950175619997,426.003364874,426.003364874,426.003364874,426.003364874,426.003364874,426.003364874,426.003364874,426.003364874,switch,letter,lettSwt,k,0.7889615599997342,noRew,0,0,,0,426.8208820959999,,,,,,,,,,,,,,,,,,,,,39022,2022-10-25_10h28.10.269,vts_reward_expectancy_bt_OFFLINE,2022.2.4,59.975928421216494,
,,,,,,,,,,,,,,,,,,,,,,,,,,,,6,0,6,0,,,,,,,,,,,,146,B,hexagon,0.0012351939994914574,,,,,0,0,,,,,433.5282229350005,,,,,,,,,,,,,,,,,429.29992015900007,429.29992015900007,429.29992015900007,429.29992015900007,430.80861659899983,430.80861659899983,430.80861659899983,430.80861659899983,430.80861659899983,430.80861659899983,430.80861659899983,430.80861659899983,switch,number,NA,f,1.1912861010005145,noRew,0,0,,0,432.02656252900033,,,,,,,,,,,,,,,,,,,,,39022,2022-10-25_10h28.10.269,vts_reward_expectancy_bt_OFFLINE,2022.2.4,59.975928421216494,
,,,,,,,,,,,,,,,,,,,,,,,,,,,,7,0,7,0,,,,,,,,,,,,160,F,star,0.001503270999819506,,,,,1,1,,,,,438.7840480290006,,,,,,,,,,,,,,,,,434.505375705,434.505375705,434.505375705,434.505375705,436.0145655260003,436.0145655260003,436.0145655260003,436.0145655260003,436.0145655260003,436.0145655260003,436.0145655260003,436.0145655260003,repeat,number,numRpt,f,1.2496815530003005,noRew,0,0,,0,437.2824229610005,,,,,,,,,,,,,,,,,,,,,39022,2022-10-25_10h28.10.269,vts_reward_expectancy_bt_OFFLINE,2022.2.4,59.975928421216494,
,,,,,,,,,,,,,,,,,,,,,,,,,,,,8,0,8,0,,,,,,,,,,,,146,U,hexagon,0.0011652480006887345,,,,,1,0,,,,,444.47359339000013,,,,,,,,,,,,,,,,,439.7612639079998,439.7612639079998,439.7612639079998,439.7612639079998,441.2702322690002,441.2702322690002,441.2702322690002,441.2702322690002,441.2702322690002,441.2702322690002,441.2702322690002,441.2702322690002,repeat,number,numRpt,d,1.6738595290007652,noRew,0,0,,0,442.97196784600055,,,,,,,,,,,,,,,,,,,,,39022,2022-10-25_10h28.10.269,vts_reward_expectancy_bt_OFFLINE,2022.2.4,59.975928421216494,
,,,,,,,,,,,,,,,,,,,,,,,,,,,,9,0,9,0,,,,,,,,,,,,160,B,circle,0.0014425250001295353,,,,,1,0,,,,,449.3123085340003,,,,,,,,,,,,,,,,,445.4515867509999,445.4515867509999,445.4515867509999,445.4515867509999,446.9596622680001,446.9596622680001,446.9596622680001,446.9596622680001,446.9596622680001,446.9596622680001,446.9596622680001,446.9596622680001,switch,letter,lettSwt,j,0.8239997299997412,noRew,0,0,,0,447.81085292900025,,,,,,,,,,,,,,,,,,,,,39022,2022-10-25_10h28.10.269,vts_reward_expectancy_bt_OFFLINE,2022.2.4,59.975928421216494,
,,,,,,,,,,,,,,,,,,,,,,,,,,,,10,0,10,0,,,,,,,,,,,,132,Y,circle,0.0017138630000772537,,,,,1,0,,,,,454.1509565570004,,,,,,,,,,,,,,,,,450.2914176840004,450.2914176840004,450.2914176840004,450.2914176840004,451.79861096200057,451.79861096200057,451.79861096200057,451.79861096200057,451.79861096200057,451.79861096200057,451.79861096200057,451.79861096200057,repeat,letter,lettRpt,k,0.8345283930002552,noRew,0,0,,0,452.6496092890002,454.1509565570004,,,,,,,,,,,,,,,,,,,,39022,2022-10-25_10h28.10.269,vts_reward_expectancy_bt_OFFLINE,2022.2.4,59.975928421216494,
,,,,,,,,,,,,,,,,,,,,,,,,,,,,11,0,11,0,,,,,,,,,,,,125,D,star,0.0005998200003887177,,,,,1,0,,,,,458.80623554700014,,,,,,,,,,,,,,,,,455.1355703240006,455.1355703240006,455.1355703240006,455.1355703240006,456.63725062699996,456.63725062699996,456.63725062699996,456.63725062699996,456.63725062699996,456.63725062699996,456.63725062699996,456.63725062699996,repeat,letter,lettRpt,j,0.6347480070007805,noRew,0,0,,0,457.30463221100035,,,,,,,,,,,,,,,,,,,,,39022,2022-10-25_10h28.10.269,vts_reward_expectancy_bt_OFFLINE,2022.2.4,59.975928421216494,
,,,,,,,,,,,,,,,,,,,,,,,,,,,,12,0,12,0,,,,,,,,,,,,160,B,hexagon,0.0016892459998416598,,,,,1,0,,,,,463.54476995500045,,,,,,,,,,,,,,,,,459.7853139360004,459.7853139360004,459.7853139360004,459.7853139360004,461.2921686919999,461.2921686919999,461.2921686919999,461.2921686919999,461.2921686919999,461.2921686919999,461.2921686919999,461.2921686919999,switch,number,numSwt,f,0.7229072449999876,noRew,0,0,,0,462.04322956299984,,,,,,,,,,,,,,,,,,,,,39022,2022-10-25_10h28.10.269,vts_reward_expectancy_bt_OFFLINE,2022.2.4,59.975928421216494,
,,,,,,,,,,,,,,,,,,,,,,,,,,,,13,0,13,0,,,,,,,,,,,,167,U,star,0.0017139539995696396,,,,,1,0,,,,,468.56700774599994,,,,,,,,,,,,,,,,,464.52206487500007,464.52206487500007,464.52206487500007,464.52206487500007,466.03094453500034,466.03094453500034,466.03094453500034,466.03094453500034,466.03094453500034,466.03094453500034,466.03094453500034,466.03094453500034,repeat,number,numRpt,f,1.0017555639997227,noRew,0,0,,0,467.06541560200003,,,,,,,,,,,,,,,,,,,,,39022,2022-10-25_10h28.10.269,vts_reward_expectancy_bt_OFFLINE,2022.2.4,59.975928421216494,
,,,,,,,,,,,,,,,,,,,,,,,,,,,,14,0,14,0,,,,,,,,,,,,139,S,hexagon,0.0019527349995769328,,,,,1,0,,,,,473.9728584459999,,,,,,,,,,,,,,,,,469.54493531000026,469.54493531000026,469.54493531000026,469.54493531000026,471.0532180380005,471.0532180380005,471.0532180380005,471.0532180380005,471.0532180380005,471.0532180380005,471.0532180380005,471.0532180380005,repeat,number,numRpt,d,1.3940972190002867,noRew,0,0,,0,472.4713824390001,,,,,,,,,,,,,,,,,,,,,39022,2022-10-25_10h28.10.269,vts_reward_expectancy_bt_OFFLINE,2022.2.4,59.975928421216494,
,,,,,,,,,,,,,,,,,,,,,,,,,,,,15,0,15,0,,,,,,,,,,,,181,D,triangle,0.0014154880000205594,,,,,1,0,,,,,479.3125203230002,,,,,,,,,,,,,,,,,474.95133042700036,474.95133042700036,474.95133042700036,474.95133042700036,476.45893360599985,476.45893360599985,476.45893360599985,476.45893360599985,476.45893360599985,476.45893360599985,476.45893360599985,476.45893360599985,repeat,number,numRpt,f,1.325129449999622,noRew,0,0,,0,477.8109396580003,,,,,,,,,,,,,,,,,,,,,39022,2022-10-25_10h28.10.269,vts_reward_expectancy_bt_OFFLINE,2022.2.4,59.975928421216494,
,,,,,,,,,,,,,,,,,,,,,,,,,,,,16,0,16,0,,,,,,,,,,,,139,D,triangle,0.0018363540002610534,,,,,1,0,,,,,484.2341096099999,,,,,,,,,,,,,,,,,480.28949412600014,480.28949412600014,480.28949412600014,480.28949412600014,481.79854718299976,481.79854718299976,481.79854718299976,481.79854718299976,481.79854718299976,481.79854718299976,481.79854718299976,481.79854718299976,switch,letter,lettSwt,j,0.9054865780008186,noRew,0,0,,0,482.73243016000015,,,,,,,,,,,,,,,,,,,,,39022,2022-10-25_10h28.10.269,vts_reward_expectancy_bt_OFFLINE,2022.2.4,59.975928421216494,
,,,,,,,,,,,,,,,,,,,,,,,,,,,,17,0,17,0,,,,,,,,,,,,132,U,star,0.0015024200001789723,,,,,1,0,,,,,489.1232949189998,,,,,,,,,,,,,,,,,485.21198305100006,485.21198305100006,485.21198305100006,485.21198305100006,486.72038171500026,486.72038171500026,486.72038171500026,486.72038171500026,486.72038171500026,486.72038171500026,486.72038171500026,486.72038171500026,repeat,letter,lettRpt,k,0.8724165160001576,noRew,0,0,,0,487.62133864600037,,,,,,,,,,,,,,,,,,,,,39022,2022-10-25_10h28.10.269,vts_reward_expectancy_bt_OFFLINE,2022.2.4,59.975928421216494,
,,,,,,,,,,,,,,,,,,,,,,,,,,,,18,0,18,0,,,,,,,,,,,,167,Y,circle,0.001283218000025954,,,,,1,0,,,,,494.16187635000006,,,,,,,,,,,,,,,,,490.1007509930005,490.1007509930005,490.1007509930005,490.1007509930005,491.60892804800005,491.60892804800005,491.60892804800005,491.60892804800005,491.60892804800005,491.60892804800005,491.60892804800005,491.60892804800005,repeat,letter,lettRpt,k,1.030653801999506,noRew,0,0,,0,492.6602893320005,,,,,,,,,,,,,,,,,,,,,39022,2022-10-25_10h28.10.269,vts_reward_expectancy_bt_OFFLINE,2022.2.4,59.975928421216494,
,,,,,,,,,,,,,,,,,,,,,,,,,,,,19,0,19,0,,,,,,,,,,,,146,S,hexagon,0.0016833610006870003,,,,,1,0,,,,,499.16731764500037,,,,,,,,,,,,,,,,,495.13946132900037,495.13946132900037,495.13946132900037,495.13946132900037,496.6479147549999,496.6479147549999,496.6479147549999,496.6479147549999,496.6479147549999,496.6479147549999,496.6479147549999,496.6479147549999,repeat,letter,lettRpt,k,0.985490733000006,noRew,0,0,,0,497.6656672660001,,,,,,,,,,,,,,,,,,,,,39022,2022-10-25_10h28.10.269,vts_reward_expectancy_bt_OFFLINE,2022.2.4,59.975928421216494,
,,,,,,,,,,,,,,,,,,,,,,,,,,,,20,0,20,0,,,,,,,,,,,,174,S,circle,0.001603683000212186,,,,,1,0,,,,,503.82239525299974,,,,,,,,,,,,,,,,,500.1441740370001,500.1441740370001,500.1441740370001,500.1441740370001,501.65344873699996,501.65344873699996,501.65344873699996,501.65344873699996,501.65344873699996,501.65344873699996,501.65344873699996,501.65344873699996,switch,number,numSwt,f,0.6347952870000881,noRew,0,0,,0,502.32114098200054,,,,,,,,,,,,,,,,,,,,,39022,2022-10-25_10h28.10.269,vts_reward_expectancy_bt_OFFLINE,2022.2.4,59.975928421216494,
,,,,,,,,,,,,,,,,,,,,,,,,,,,,21,0,21,0,,,,,,,,,,,,181,W,hexagon,0.0015301599996746518,,,,,1,0,,,,,508.6277494289998,,,,,,,,,,,,,,,,,504.79941924000013,504.79941924000013,504.79941924000013,504.79941924000013,506.30851749700014,506.30851749700014,506.30851749700014,506.30851749700014,506.30851749700014,506.30851749700014,506.30851749700014,506.30851749700014,switch,letter,lettSwt,k,0.7948973129996375,noRew,0,0,,0,507.1260667510005,,,,,,,,,,,,,,,,,,,,,39022,2022-10-25_10h28.10.269,vts_reward_expectancy_bt_OFFLINE,2022.2.4,59.975928421216494,
,,,,,,,,,,,,,,,,,,,,,,,,,,,,22,0,22,0,,,,,,,,,,,,139,Y,circle,0.0017262229994230438,,,,,1,0,,,,,515.5186405679997,,,,,,,,,,,,,,,,,509.6061083169998,509.6061083169998,509.6061083169998,509.6061083169998,511.11388362599973,511.11388362599973,511.11388362599973,511.11388362599973,511.11388362599973,511.11388362599973,511.11388362599973,511.11388362599973,switch,number,numSwt,d,2.8707273750005697,noRew,0,0,,0,514.0170934810003,,,,,,,,,,,,,,,,,,,,,39022,2022-10-25_10h28.10.269,vts_reward_expectancy_bt_OFFLINE,2022.2.4,59.975928421216494,
,,,,,,,,,,,,,,,,,,,,,,,,,,,,23,0,23,0,,,,,,,,,,,,132,F,hexagon,0.0016586750007263618,,,,,1,0,,,,,520.2573303159998,,,,,,,,,,,,,,,,,516.4964290600001,516.4964290600001,516.4964290600001,516.4964290600001,518.0047521610004,518.0047521610004,518.0047521610004,518.0047521610004,518.0047521610004,518.0047521610004,518.0047521610004,518.0047521610004,switch,letter,lettSwt,j,0.7229597450004803,noRew,0,0,,0,518.7557841059997,,,,,,,,,,,,,,,,,,,,,39022,2022-10-25_10h28.10.269,vts_reward_expectancy_bt_OFFLINE,2022.2.4,59.975928421216494,
,,,,,,,,,,,,,,,,,,,,,,,,,,,,24,0,24,0,,,,,,,,,,,,181,F,star,0.0010741080004663672,,,,,1,0,,,,,525.029224889,,,,,,,,,,,,,,,,,521.234469215,521.234469215,521.234469215,521.234469215,522.7433329040005,522.7433329040005,522.7433329040005,522.7433329040005,522.7433329040005,522.7433329040005,522.7433329040005,522.7433329040005,repeat,letter,lettRpt,j,0.7607966880004824,noRew,0,0,,0,523.527584208,,,,,,,,,,,,,,,,,,,,,39022,2022-10-25_10h28.10.269,vts_reward_expectancy_bt_OFFLINE,2022.2.4,59.975928421216494,
,,,,,,,,,,,,,,,,,,,,,,,,,,,,25,0,25,0,,,,,,,,,,,,139,D,hexagon,0.0014726670005984488,,,,,1,0,,,,,530.2015719270003,,,,,,,,,,,,,,,,,526.0071754440005,526.0071754440005,526.0071754440005,526.0071754440005,527.5155664290005,527.5155664290005,527.5155664290005,527.5155664290005,527.5155664290005,527.5155664290005,527.5155664290005,527.5155664290005,repeat,letter,lettRpt,j,1.1566988459999266,noRew,0,0,,0,528.7002260700001,,,,,,,,,,,,,,,,,,,,,39022,2022-10-25_10h28.10.269,vts_reward_expectancy_bt_OFFLINE,2022.2.4,59.975928421216494,
,,,,,,,,,,,,,,,,,,,,,,,,,,,,26,0,26,0,,,,,,,,,,,,167,B,hexagon,0.0015126560001590406,,,,,1,0,,,,,534.856808984,,,,,,,,,,,,,,,,,531.1788723050004,531.1788723050004,531.1788723050004,531.1788723050004,532.6877948040001,532.6877948040001,532.6877948040001,532.6877948040001,532.6877948040001,532.6877948040001,532.6877948040001,532.6877948040001,repeat,letter,lettRpt,j,0.6480851939995773,noRew,0,0,,0,533.3551774460002,,,,,,,,,,,,,,,,,,,,,39022,2022-10-25_10h28.10.269,vts_reward_expectancy_bt_OFFLINE,2022.2.4,59.975928421216494,
,,,,,,,,,,,,,,,,,,,,,,,,,,,,27,0,27,0,,,,,,,,,,,,174,U,circle,0.0012484119997679954,,,,,1,0,,,,,539.6620438279997,,,,,,,,,,,,,,,,,535.8345883439997,535.8345883439997,535.8345883439997,535.8345883439997,537.3429702640005,537.3429702640005,537.3429702640005,537.3429702640005,537.3429702640005,537.3429702640005,537.3429702640005,537.3429702640005,repeat,letter,lettRpt,k,0.7931229619998703,noRew,0,0,,0,538.1591567510004,,,,,,,,,,,,,,,,,,,,,39022,2022-10-25_10h28.10.269,vts_reward_expectancy_bt_OFFLINE,2022.2.4,59.975928421216494,
,,,,,,,,,,,,,,,,,,,,,,,,,,,,28,0,28,0,,,,,,,,,,,,160,D,circle,0.0034160870000050636,,,,,1,0,,,,,544.7179676240003,,,,,,,,,,,,,,,,,540.6406011290001,540.6406011290001,540.6406011290001,540.6406011290001,542.1481181260006,542.1481181260006,542.1481181260006,542.1481181260006,542.1481181260006,542.1481181260006,542.1481181260006,542.1481181260006,repeat,letter,lettRpt,j,1.0439772729996548,noRew,0,0,,0,543.2159327870004,,,,,,,,,,,,,,,,,,,,,39022,2022-10-25_10h28.10.269,vts_reward_expectancy_bt_OFFLINE,2022.2.4,59.975928421216494,
,,,,,,,,,,,,,,,,,,,,,,,,,,,,29,0,29,0,,,,,,,,,,,,146,H,hexagon,0.0013990059997013304,,,,,1,0,,,,,549.5062064180001,,,,,,,,,,,,,,,,,545.6970554680001,545.6970554680001,545.6970554680001,545.6970554680001,547.203699785,547.203699785,547.203699785,547.203699785,547.203699785,547.203699785,547.203699785,547.203699785,repeat,letter,lettRpt,j,0.7800081670002328,noRew,0,0,,0,548.0046497000003,,,,,,,,,,,,,,,,,,,,,39022,2022-10-25_10h28.10.269,vts_reward_expectancy_bt_OFFLINE,2022.2.4,59.975928421216494,
,,,,,,,,,,,,,,,,,,,,,,,,,,,,30,0,30,0,,,,,,,,,,,,125,U,triangle,0.0014466920001723338,,,,,1,0,,,,,554.4783935539999,,,,,,,,,,,,,,,,,550.484425568,550.484425568,550.484425568,550.484425568,551.992335248,551.992335248,551.992335248,551.992335248,551.992335248,551.992335248,551.992335248,551.992335248,switch,number,numSwt,d,0.9592938929999946,noRew,0,0,,0,552.9766736669999,,,,,,,,,,,,,,,,,,,,,39022,2022-10-25_10h28.10.269,vts_reward_expectancy_bt_OFFLINE,2022.2.4,59.975928421216494,
,,,,,,,,,,,,,,,,,,,,,,,,,,,,31,0,31,0,,,,,,,,,,,,174,S,hexagon,0.0016801170004328014,,,,,1,0,,,,,559.8676627490004,,,,,,,,,,,,,,,,,555.4549858239998,555.4549858239998,555.4549858239998,555.4549858239998,556.9644858190004,556.9644858190004,556.9644858190004,556.9644858190004,556.9644858190004,556.9644858190004,556.9644858190004,556.9644858190004,repeat,number,numRpt,f,1.3708569110003737,noRew,0,0,,0,558.3659912720004,,,,,,,,,,,,,,,,,,,,,39022,2022-10-25_10h28.10.269,vts_reward_expectancy_bt_OFFLINE,2022.2.4,59.975928421216494,
,,,,,,,,,,,,,,,,,,,,,,,,,,,,32,0,32,0,,,,,,,,,,,,146,F,star,0.0014996589998190757,,,,,1,0,,,,,564.6062732170003,,,,,,,,,,,,,,,,,560.8447627470005,560.8447627470005,560.8447627470005,560.8447627470005,562.3537565140005,562.3537565140005,562.3537565140005,562.3537565140005,562.3537565140005,562.3537565140005,562.3537565140005,562.3537565140005,switch,letter,lettSwt,j,0.7346410640002432,noRew,0,0,,0,563.104664251,564.6062732170003,,,,,,,,,,,,,,,,,,,,39022,2022-10-25_10h28.10.269,vts_reward_expectancy_bt_OFFLINE,2022.2.4,59.975928421216494,
,,,,,,,,,,,,,,,,,,,,,,,,,,,,33,0,33,0,,,,,,,,,,,,125,U,triangle,0.0008116019998851698,,,,,1,0,,,,,569.7784714669997,,,,,,,,,,,,,,,,,565.5903497710005,565.5903497710005,565.5903497710005,565.5903497710005,567.0924910129997,567.0924910129997,567.0924910129997,567.0924910129997,567.0924910129997,567.0924910129997,567.0924910129997,567.0924910129997,switch,number,numSwt,d,1.1557495500001096,noRew,0,0,,0,568.2771424080001,,,,,,,,,,,,,,,,,,,,,39022,2022-10-25_10h28.10.269,vts_reward_expectancy_bt_OFFLINE,2022.2.4,59.975928421216494,
,,,,,,,,,,,,,,,,,,,,,,,,,,,,34,0,34,0,,,,,,,,,,,,139,D,circle,0.0016827359995659208,,,,,1,0,,,,,574.8006407860003,,,,,,,,,,,,,,,,,570.7559497419998,570.7559497419998,570.7559497419998,570.7559497419998,572.2647273920002,572.2647273920002,572.2647273920002,572.2647273920002,572.2647273920002,572.2647273920002,572.2647273920002,572.2647273920002,repeat,number,numRpt,d,1.0064271740002368,noRew,0,0,,0,573.2991320900001,,,,,,,,,,,,,,,,,,,,,39022,2022-10-25_10h28.10.269,vts_reward_expectancy_bt_OFFLINE,2022.2.4,59.975928421216494,
,,,,,,,,,,,,,,,,,,,,,,,,,,,,35,0,35,0,,,,,,,,,,,,174,H,triangle,0.0015963590003593708,,,,,1,0,,,,,579.8397970870001,,,,,,,,,,,,,,,,,575.7786381830001,575.7786381830001,575.7786381830001,575.7786381830001,577.2866977470003,577.2866977470003,577.2866977470003,577.2866977470003,577.2866977470003,577.2866977470003,577.2866977470003,577.2866977470003,switch,letter,lettSwt,j,1.0346873640000922,noRew,0,0,,0,578.3382268739997,,,,,,,,,,,,,,,,,,,,,39022,2022-10-25_10h28.10.269,vts_reward_expectancy_bt_OFFLINE,2022.2.4,59.975928421216494,
,,,,,,,,,,,,,,,,,,,,,,,,,,,,36,0,36,0,,,,,,,,,,,,146,D,triangle,0.0012347659994702553,,,,,1,0,,,,,584.6116664620004,,,,,,,,,,,,,,,,,580.818470268,580.818470268,580.818470268,580.818470268,582.3257964260001,582.3257964260001,582.3257964260001,582.3257964260001,582.3257964260001,582.3257964260001,582.3257964260001,582.3257964260001,repeat,letter,lettRpt,j,0.762167486999715,noRew,0,0,,0,583.1098368210005,,,,,,,,,,,,,,,,,,,,,39022,2022-10-25_10h28.10.269,vts_reward_expectancy_bt_OFFLINE,2022.2.4,59.975928421216494,
,,,,,,,,,,,,,,,,,,,,,,,,,,,,37,0,37,0,,,,,,,,,,,,139,U,star,0.0017594270002518897,,,,,1,0,,,,,590.2679811739999,,,,,,,,,,,,,,,,,585.5895645979999,585.5895645979999,585.5895645979999,585.5895645979999,587.0977105640004,587.0977105640004,587.0977105640004,587.0977105640004,587.0977105640004,587.0977105640004,587.0977105640004,587.0977105640004,repeat,letter,lettRpt,k,1.6463017429996398,noRew,0,0,,0,588.7662246649998,,,,,,,,,,,,,,,,,,,,,39022,2022-10-25_10h28.10.269,vts_reward_expectancy_bt_OFFLINE,2022.2.4,59.975928421216494,
,,,,,,,,,,,,,,,,,,,,,,,,,,,,38,0,38,0,,,,,,,,,,,,181,F,circle,0.001591684999766585,,,,,1,0,,,,,595.2234494300001,,,,,,,,,,,,,,,,,591.2455679310006,591.2455679310006,591.2455679310006,591.2455679310006,592.7543730540001,592.7543730540001,592.7543730540001,592.7543730540001,592.7543730540001,592.7543730540001,592.7543730540001,592.7543730540001,repeat,letter,lettRpt,j,0.9406189299998005,noRew,0,0,,0,593.7216748219998,,,,,,,,,,,,,,,,,,,,,39022,2022-10-25_10h28.10.269,vts_reward_expectancy_bt_OFFLINE,2022.2.4,59.975928421216494,
,,,,,,,,,,,,,,,,,,,,,,,,,,,,39,0,39,0,,,,,,,,,,,,160,Y,star,0.0016838290002851863,,,,,1,0,,,,,600.1287619559998,,,,,,,,,,,,,,,,,596.2011866789999,596.2011866789999,596.2011866789999,596.2011866789999,597.7095383280002,597.7095383280002,597.7095383280002,597.7095383280002,597.7095383280002,597.7095383280002,597.7095383280002,597.7095383280002,repeat,letter,lettRpt,k,0.8892125100001067,noRew,0,0,,0,598.6273609110003,,,,,,,,,,,,,,,,,,,,,39022,2022-10-25_10h28.10.269,vts_reward_expectancy_bt_OFFLINE,2022.2.4,59.975928421216494,
,,,,,,,,,,,,,,,,,,,,,,,,,,,,40,0,40,0,,,,,,,,,,,,160,S,hexagon,0.0016069259991127183,,,,,1,0,,,,,605.4680041640004,,,,,,,,,,,,,,,,,601.106898219,601.106898219,601.106898219,601.106898219,602.6148485379999,602.6148485379999,602.6148485379999,602.6148485379999,602.6148485379999,602.6148485379999,602.6148485379999,602.6148485379999,switch,number,numSwt,f,1.3203044540005067,noRew,0,0,,0,603.9663084080003,,,,,,,,,,,,,,,,,,,,,39022,2022-10-25_10h28.10.269,vts_reward_expectancy_bt_OFFLINE,2022.2.4,59.975928421216494,
,,,,,,,,,,,,,,,,,,,,,,,,,,,,41,0,41,0,,,,,,,,,,,,174,D,circle,0.0015602679995936342,,,,,1,0,,,,,610.6068518020002,,,,,,,,,,,,,,,,,606.4458854240002,606.4458854240002,606.4458854240002,606.4458854240002,607.9541189060001,607.9541189060001,607.9541189060001,607.9541189060001,607.9541189060001,607.9541189060001,607.9541189060001,607.9541189060001,repeat,number,numRpt,f,1.1260488839998288,noRew,0,0,,0,609.1054461599997,,,,,,,,,,,,,,,,,,,,,39022,2022-10-25_10h28.10.269,vts_reward_expectancy_bt_OFFLINE,2022.2.4,59.975928421216494,
,,,,,,,,,,,,,,,,,,,,,,,,,,,,42,0,42,0,,,,,,,,,,,,146,U,hexagon,0.0016888239997570054,,,,,1,0,,,,,615.8294984020004,,,,,,,,,,,,,,,,,611.5838172220001,611.5838172220001,611.5838172220001,611.5838172220001,613.0932148560005,613.0932148560005,613.0932148560005,613.0932148560005,613.0932148560005,613.0932148560005,613.0932148560005,613.0932148560005,repeat,number,numRpt,d,1.2107998679994125,noRew,0,0,,0,614.3277445579997,,,,,,,,,,,,,,,,,,,,,39022,2022-10-25_10h28.10.269,vts_reward_expectancy_bt_OFFLINE,2022.2.4,59.975928421216494,
,,,,,,,,,,,,,,,,,,,,,,,,,,,,43,0,43,0,,,,,,,,,,,,132,Y,triangle,0.0015391939996334258,,,,,1,0,,,,,620.701446733,,,,,,,,,,,,,,,,,616.8069677419999,616.8069677419999,616.8069677419999,616.8069677419999,618.3157887469997,618.3157887469997,618.3157887469997,618.3157887469997,618.3157887469997,618.3157887469997,618.3157887469997,618.3157887469997,switch,letter,lettSwt,k,0.8515163430001849,noRew,0,0,,0,619.1998413190004,,,,,,,,,,,,,,,,,,,,,39022,2022-10-25_10h28.10.269,vts_reward_expectancy_bt_OFFLINE,2022.2.4,59.975928421216494,
,,,,,,,,,,,,,,,,,,,,,,,,,,,,44,0,44,0,,,,,,,,,,,,181,Y,hexagon,0.0017591719997653854,,,,,1,0,,,,,625.4064221609997,,,,,,,,,,,,,,,,,621.6780506390005,621.6780506390005,621.6780506390005,621.6780506390005,623.1873719630003,623.1873719630003,623.1873719630003,623.1873719630003,623.1873719630003,623.1873719630003,623.1873719630003,623.1873719630003,repeat,letter,lettRpt,k,0.6854587269999683,noRew,0,0,,0,623.9052906060006,,,,,,,,,,,,,,,,,,,,,39022,2022-10-25_10h28.10.269,vts_reward_expectancy_bt_OFFLINE,2022.2.4,59.975928421216494,
,,,,,,,,,,,,,,,,,,,,,,,,,,,,45,0,45,0,,,,,,,,,,,,125,D,triangle,0.0012952979996043723,,,,,1,0,,,,,630.1618776220002,,,,,,,,,,,,,,,,,626.3835772820003,626.3835772820003,626.3835772820003,626.3835772820003,627.8927012220001,627.8927012220001,627.8927012220001,627.8927012220001,627.8927012220001,627.8927012220001,627.8927012220001,627.8927012220001,switch,number,numSwt,d,0.7397359469996445,noRew,0,0,,0,628.660245952,,,,,,,,,,,,,,,,,,,,,39022,2022-10-25_10h28.10.269,vts_reward_expectancy_bt_OFFLINE,2022.2.4,59.975928421216494,
,,,,,,,,,,,,,,,,,,,,,,,,,,,,46,0,46,0,,,,,,,,,,,,160,H,triangle,0.0015970740005286643,,,,,1,0,,,,,634.7503291809999,,,,,,,,,,,,,,,,,631.1398985400001,631.1398985400001,631.1398985400001,631.1398985400001,632.6478803420005,632.6478803420005,632.6478803420005,632.6478803420005,632.6478803420005,632.6478803420005,632.6478803420005,632.6478803420005,repeat,number,numRpt,f,0.5681848720005291,noRew,0,0,,0,633.2488354349998,,,,,,,,,,,,,,,,,,,,,39022,2022-10-25_10h28.10.269,vts_reward_expectancy_bt_OFFLINE,2022.2.4,59.975928421216494,
,,,,,,,,,,,,,,,,,,,,,,,,,,,,47,0,47,0,,,,,,,,,,,,167,F,hexagon,0.0018069289999402827,,,,,1,0,,,,,639.5387896740003,,,,,,,,,,,,,,,,,635.7283357679999,635.7283357679999,635.7283357679999,635.7283357679999,637.2364378660004,637.2364378660004,637.2364378660004,637.2364378660004,637.2364378660004,637.2364378660004,637.2364378660004,637.2364378660004,switch,letter,lettSwt,j,0.7785544149992347,noRew,0,0,,0,638.0374620210005,,,,,,,,,,,,,,,,,,,,,39022,2022-10-25_10h28.10.269,vts_reward_expectancy_bt_OFFLINE,2022.2.4,59.975928421216494,
,,,,,,,,,,,,,,,,,,,,,,,,,,,,48,0,48,0,,,,,,,,,,,,181,B,hexagon,0.0016869940000105998,,,,,1,0,,,,,644.2442318780004,,,,,,,,,,,,,,,,,640.5169820620004,640.5169820620004,640.5169820620004,640.5169820620004,642.0253288530002,642.0253288530002,642.0253288530002,642.0253288530002,642.0253288530002,642.0253288530002,642.0253288530002,642.0253288530002,switch,number,numSwt,f,0.6860677489994487,noRew,0,0,,0,642.7423670630005,644.2442318780004,,,,,,,,,,,,,,,,,,,,39022,2022-10-25_10h28.10.269,vts_reward_expectancy_bt_OFFLINE,2022.2.4,59.975928421216494,
,,,,,,,,,,,,,,,,,,,,,,,,,,,,49,0,49,0,,,,,,,,,,,,174,S,star,0.0009609890003048349,,,,,1,0,,,,,649.0160238589997,,,,,,,,,,,,,,,,,645.2290845690004,645.2290845690004,645.2290845690004,645.2290845690004,646.7301730090003,646.7301730090003,646.7301730090003,646.7301730090003,646.7301730090003,646.7301730090003,646.7301730090003,646.7301730090003,switch,letter,lettSwt,k,0.765617158999703,noRew,0,0,,0,647.5143504120006,649.0160238589997,,,,,,,,,,,,,,,,,,,,39022,2022-10-25_10h28.10.269,vts_reward_expectancy_bt_OFFLINE,2022.2.4,59.975928421216494,
,,,,,,,,,,,,,,,,,,,,,,,,,,,,50,0,50,0,,,,,,,,,,,,160,F,hexagon,0.0009054470001501613,,,,,1,0,,,,,653.6712878039998,,,,,,,,,,,,,,,,,650.000252328,650.000252328,650.000252328,650.000252328,651.5020397349999,651.5020397349999,651.5020397349999,651.5020397349999,651.5020397349999,651.5020397349999,651.5020397349999,651.5020397349999,repeat,letter,lettRpt,j,0.6421944950006946,noRew,0,0,,0,652.1696614379998,,,,,,,,,,,,,,,,,,,,,39022,2022-10-25_10h28.10.269,vts_reward_expectancy_bt_OFFLINE,2022.2.4,59.975928421216494,
,,,,,,,,,,,,,,,,,,,,,,,,,,,,51,0,51,0,,,,,,,,,,,,132,W,triangle,0.0013913540005887626,,,,,1,0,,,,,658.7599240689997,,,,,,,,,,,,,,,,,654.6490240069998,654.6490240069998,654.6490240069998,654.6490240069998,656.1574387259998,656.1574387259998,656.1574387259998,656.1574387259998,656.1574387259998,656.1574387259998,656.1574387259998,656.1574387259998,switch,number,numSwt,d,1.073696917000234,noRew,0,0,,0,657.2587415600001,,,,,,,,,,,,,,,,,,,,,39022,2022-10-25_10h28.10.269,vts_reward_expectancy_bt_OFFLINE,2022.2.4,59.975928421216494,
,,,,,,,,,,,,,,,,,,,,,,,,,,,,52,0,52,0,,,,,,,,,,,,125,H,hexagon,0.0012792719999197288,,,,,1,0,,,,,663.6159041569999,,,,,,,,,,,,,,,,,659.7377138370002,659.7377138370002,659.7377138370002,659.7377138370002,661.2461862780001,661.2461862780001,661.2461862780001,661.2461862780001,661.2461862780001,661.2461862780001,661.2461862780001,661.2461862780001,repeat,number,numRpt,d,0.8409299109998756,noRew,0,0,,0,662.1137053729999,,,,,,,,,,,,,,,,,,,,,39022,2022-10-25_10h28.10.269,vts_reward_expectancy_bt_OFFLINE,2022.2.4,59.975928421216494,
,,,,,,,,,,,,,,,,,,,,,,,,,,,,53,0,53,0,,,,,,,,,,,,181,S,star,0.002110155999616836,,,,,1,0,,,,,669.6390340460002,,,,,,,,,,,,,,,,,664.5938415820001,664.5938415820001,664.5938415820001,664.5938415820001,666.10154031,666.10154031,666.10154031,666.10154031,666.10154031,666.10154031,666.10154031,666.10154031,repeat,number,numRpt,f,2.0191789220007195,noRew,0,0,,0,668.137172449,,,,,,,,,,,,,,,,,,,,,39022,2022-10-25_10h28.10.269,vts_reward_expectancy_bt_OFFLINE,2022.2.4,59.975928421216494,
,,,,,,,,,,,,,,,,,,,,,,,,,,,,54,0,54,0,,,,,,,,,,,,132,D,star,0.0010990680002578301,,,,,1,0,,,,,675.061370157,,,,,,,,,,,,,,,,,670.6233573549998,670.6233573549998,670.6233573549998,670.6233573549998,672.124828647,672.124828647,672.124828647,672.124828647,672.124828647,672.124828647,672.124828647,672.124828647,repeat,number,numRpt,d,1.4109642970006462,noRew,0,0,,0,673.5594787370001,,,,,,,,,,,,,,,,,,,,,39022,2022-10-25_10h28.10.269,vts_reward_expectancy_bt_OFFLINE,2022.2.4,59.975928421216494,
,,,,,,,,,,,,,,,,,,,,,,,,,,,,55,0,55,0,,,,,,,,,,,,146,B,circle,0.001487435999479203,,,,,1,0,,,,,679.6833363750002,,,,,,,,,,,,,,,,,676.0390845110005,676.0390845110005,676.0390845110005,676.0390845110005,677.5474670169997,677.5474670169997,677.5474670169997,677.5474670169997,677.5474670169997,677.5474670169997,677.5474670169997,677.5474670169997,switch,letter,lettSwt,j,0.6038501940001879,noRew,0,0,,0,678.1817371859997,,,,,,,,,,,,,,,,,,,,,39022,2022-10-25_10h28.10.269,vts_reward_expectancy_bt_OFFLINE,2022.2.4,59.975928421216494,
,,,,,,,,,,,,,,,,,,,,,,,,,,,,56,0,56,0,,,,,,,,,,,,174,H,hexagon,0.0016218800001297495,,,,,1,0,,,,,684.5551406040004,,,,,,,,,,,,,,,,,680.6601135870005,680.6601135870005,680.6601135870005,680.6601135870005,682.1692684740001,682.1692684740001,682.1692684740001,682.1692684740001,682.1692684740001,682.1692684740001,682.1692684740001,682.1692684740001,switch,number,numSwt,f,0.854282547999901,noRew,0,0,,0,683.0536685400002,,,,,,,,,,,,,,,,,,,,,39022,2022-10-25_10h28.10.269,vts_reward_expectancy_bt_OFFLINE,2022.2.4,59.975928421216494,
,,,,,,,,,,,,,,,,,,,,,,,,,,,,57,0,57,0,,,,,,,,,,,,160,W,star,0.0012551870004244847,,,,,1,0,,,,,689.3437675900004,,,,,,,,,,,,,,,,,685.5329281120003,685.5329281120003,685.5329281120003,685.5329281120003,687.0413986660005,687.0413986660005,687.0413986660005,687.0413986660005,687.0413986660005,687.0413986660005,687.0413986660005,687.0413986660005,switch,letter,lettSwt,k,0.7827480219993959,noRew,0,0,,0,687.8421296409997,689.3437675900004,,,,,,,,,,,,,,,,,,,,39022,2022-10-25_10h28.10.269,vts_reward_expectancy_bt_OFFLINE,2022.2.4,59.975928421216494,
,,,,,,,,,,,,,,,,,,,,,,,,,,,,58,0,58,0,,,,,,,,,,,,181,Y,triangle,0.0009459739994781557,,,,,1,0,,,,,694.1658717119999,,,,,,,,,,,,,,,,,690.3219506730002,690.3219506730002,690.3219506730002,690.3219506730002,691.8298975970001,691.8298975970001,691.8298975970001,691.8298975970001,691.8298975970001,691.8298975970001,691.8298975970001,691.8298975970001,repeat,letter,lettRpt,k,0.8021001689994591,noRew,0,0,,0,692.6641679089998,,,,,,,,,,,,,,,,,,,,,39022,2022-10-25_10h28.10.269,vts_reward_expectancy_bt_OFFLINE,2022.2.4,59.975928421216494,
,,,,,,,,,,,,,,,,,,,,,,,,,,,,59,0,59,0,,,,,,,,,,,,167,S,hexagon,0.0018953409999085125,,,,,1,0,,,,,699.1880043040001,,,,,,,,,,,,,,,,,695.1437926460003,695.1437926460003,695.1437926460003,695.1437926460003,696.6521556590005,696.6521556590005,696.6521556590005,696.6521556590005,696.6521556590005,696.6521556590005,696.6521556590005,696.6521556590005,switch,number,numSwt,f,1.010896994000177,noRew,0,0,,0,697.6864149889998,,,,,,,,,,,,,,,,,,,,,39022,2022-10-25_10h28.10.269,vts_reward_expectancy_bt_OFFLINE,2022.2.4,59.975928421216494,
,,,,,,,,,,,,,,,,,,,,,,,,,,,,60,0,60,0,,,,,,,,,,,,125,U,triangle,0.001541304000056698,,,,,1,0,,,,,703.7431241820004,,,,,,,,,,,,,,,,,700.1667947530004,700.1667947530004,700.1667947530004,700.1667947530004,701.6740305590001,701.6740305590001,701.6740305590001,701.6740305590001,701.6740305590001,701.6740305590001,701.6740305590001,701.6740305590001,switch,letter,lettSwt,k,0.5421217549992434,noRew,0,0,,0,702.2413258020006,,,,,,,,,,,,,,,,,,,,,39022,2022-10-25_10h28.10.269,vts_reward_expectancy_bt_OFFLINE,2022.2.4,59.975928421216494,
,,,,,,,,,,,,,,,,,,,,,,,,,,,,61,0,61,0,,,,,,,,,,,,167,B,hexagon,0.0017375150000589201,,,,,1,0,,,,,708.4815682710005,,,,,,,,,,,,,,,,,704.7210790990002,704.7210790990002,704.7210790990002,704.7210790990002,706.2291036309998,706.2291036309998,706.2291036309998,706.2291036309998,706.2291036309998,706.2291036309998,706.2291036309998,706.2291036309998,switch,number,numSwt,f,0.7303299630002584,noRew,0,0,,0,706.9800597570002,,,,,,,,,,,,,,,,,,,,,39022,2022-10-25_10h28.10.269,vts_reward_expectancy_bt_OFFLINE,2022.2.4,59.975928421216494,
,,,,,,,,,,,,,,,,,,,,,,,,,,,,62,0,62,0,,,,,,,,,,,,146,Y,hexagon,0.0014666050001324038,,,,,1,0,,,,,713.3869412060003,,,,,,,,,,,,,,,,,709.4603684849999,709.4603684849999,709.4603684849999,709.4603684849999,710.9676730789997,710.9676730789997,710.9676730789997,710.9676730789997,710.9676730789997,710.9676730789997,710.9676730789997,710.9676730789997,switch,letter,lettSwt,k,0.8888497890002327,noRew,0,0,,0,711.8851562079999,,,,,,,,,,,,,,,,,,,,,39022,2022-10-25_10h28.10.269,vts_reward_expectancy_bt_OFFLINE,2022.2.4,59.975928421216494,
,,,,,,,,,,,,,,,,,,,,,,,,,,,,63,0,63,0,,,,,,,,,,,,181,F,triangle,0.0016724819997762097,,,,,1,0,,,,,718.8430014639998,,,,,,,,,,,,,,,,,714.3638982270004,714.3638982270004,714.3638982270004,714.3638982270004,715.8729794769997,715.8729794769997,715.8729794769997,715.8729794769997,715.8729794769997,715.8729794769997,715.8729794769997,715.8729794769997,repeat,letter,lettRpt,j,1.4469237070006784,noRew,0,0,,0,717.341355564,,,,,,,,,,,,,,,,,,,,,39022,2022-10-25_10h28.10.269,vts_reward_expectancy_bt_OFFLINE,2022.2.4,59.975928421216494,
,,,,,,,,,,,,,,,,,,,,,,,,,,,,,,,,0,0,0,0,0,0,0,0,,,,160,F,hexagon,0.000849084000037692,,,,,1,0,,,,,747.0740122340003,,,,,,,,,,,,,,,,,743.1678181220004,743.1678181220004,743.1678181220004,743.1678181220004,744.6715571570003,744.6715571570003,744.6715571570003,744.6715571570003,744.6715571570003,744.6715571570003,744.6715571570003,744.6715571570003,switch,number,numSwt,f,0.8798339400000259,Hi,0,0,,0,,,space,5.996199012000034,low,745.5744029890002,,,,,,,,,,,,,,,,39022,2022-10-25_10h28.10.269,vts_reward_expectancy_bt_OFFLINE,2022.2.4,59.975928421216494,
,,,,,,,,,,,,,,,,,,,,,,,,,,,,,,,,0,0,0,0,1,0,1,0,,,,167,S,circle,0.0014822540006207419,,,,,1,0,,,,,752.2801051910001,,,,,,,,,,,,,,,,,748.0516075570004,748.0516075570004,748.0516075570004,748.0516075570004,749.5602742390001,749.5602742390001,749.5602742390001,749.5602742390001,749.5602742390001,749.5602742390001,749.5602742390001,749.5602742390001,repeat,number,numRpt,f,1.20095586700063,Hi,0,0,,0,,,,,low,750.7780795240005,,,,,,,,,,,,,,,,39022,2022-10-25_10h28.10.269,vts_reward_expectancy_bt_OFFLINE,2022.2.4,59.975928421216494,
,,,,,,,,,,,,,,,,,,,,,,,,,,,,,,,,0,0,0,0,2,0,2,0,,,,125,D,triangle,0.001388142999530828,,,,,1,0,,,,,756.9684457180001,,,,,,,,,,,,,,,,,753.2580192380001,753.2580192380001,753.2580192380001,753.2580192380001,754.7659471730003,754.7659471730003,754.7659471730003,754.7659471730003,754.7659471730003,754.7659471730003,754.7659471730003,754.7659471730003,repeat,number,numRpt,d,0.6817496650000976,Lo,1,1,,0,,,,,low,755.4668399729999,,,,,,,,,,,,,,,,39022,2022-10-25_10h28.10.269,vts_reward_expectancy_bt_OFFLINE,2022.2.4,59.975928421216494,
,,,,,,,,,,,,,,,,,,,,,,,,,,,,,,,,0,0,0,0,3,0,3,0,,,,132,U,star,0.0011324919996695826,,,,,1,0,,,,,761.6402455690004,,,,,,,,,,,,,,,,,757.9538205670005,757.9538205670005,757.9538205670005,757.9538205670005,759.4543837319998,759.4543837319998,759.4543837319998,759.4543837319998,759.4543837319998,759.4543837319998,759.4543837319998,759.4543837319998,repeat,number,numRpt,d,0.6568687190001583,Lo,10,11,,0,,,,,low,760.1384248740005,,,,,,,,,,,,,,,,39022,2022-10-25_10h28.10.269,vts_reward_expectancy_bt_OFFLINE,2022.2.4,59.975928421216494,
,,,,,,,,,,,,,,,,,,,,,,,,,,,,,,,,0,0,0,0,4,0,4,0,,,,139,H,circle,0.0014980789992478094,,,,,1,0,,,,,766.5122767109997,,,,,,,,,,,,,,,,,762.6179012310004,762.6179012310004,762.6179012310004,762.6179012310004,764.1266203180003,764.1266203180003,764.1266203180003,764.1266203180003,764.1266203180003,764.1266203180003,764.1266203180003,764.1266203180003,repeat,number,numRpt,d,0.8649790909994408,Hi,10,21,,0,,,,,low,765.0106881680003,,,,,,,,,,,,,,,,39022,2022-10-25_10h28.10.269,vts_reward_expectancy_bt_OFFLINE,2022.2.4,59.975928421216494,
,,,,,,,,,,,,,,,,,,,,,,,,,,,,,,,,0,0,0,0,5,0,5,0,,,,146,B,hexagon,0.0011216540005989373,,,,,1,0,,,,,771.0003956010005,,,,,,,,,,,,,,,,,767.4907026410001,767.4907026410001,767.4907026410001,767.4907026410001,768.9982103430002,768.9982103430002,768.9982103430002,768.9982103430002,768.9982103430002,768.9982103430002,768.9982103430002,768.9982103430002,switch,letter,lettSwt,j,0.4812466459998177,Hi,10,31,,0,,,,,low,769.498735739,,,,,,,,,,,,,,,,39022,2022-10-25_10h28.10.269,vts_reward_expectancy_bt_OFFLINE,2022.2.4,59.975928421216494,
,,,,,,,,,,,,,,,,,,,,,,,,,,,,,,,,0,0,0,0,6,0,6,0,,,,181,Y,star,0.0012965350006197696,,,,,1,0,,,,,775.739005683,,,,,,,,,,,,,,,,,771.9783704030006,771.9783704030006,771.9783704030006,771.9783704030006,773.4864733690001,773.4864733690001,773.4864733690001,773.4864733690001,773.4864733690001,773.4864733690001,773.4864733690001,773.4864733690001,switch,number,numSwt,f,0.7286410010001418,Lo,1,32,,0,,,,,low,774.2374303739998,,,,,,,,,,,,,,,,39022,2022-10-25_10h28.10.269,vts_reward_expectancy_bt_OFFLINE,2022.2.4,59.975928421216494,
,,,,,,,,,,,,,,,,,,,,,,,,,,,,,,,,0,0,0,0,7,0,7,0,,,,174,W,triangle,0.001578374999553489,,,,,1,0,,,,,780.5777983930002,,,,,,,,,,,,,,,,,776.716805301,776.716805301,776.716805301,776.716805301,778.2253413589997,778.2253413589997,778.2253413589997,778.2253413589997,778.2253413589997,778.2253413589997,778.2253413589997,778.2253413589997,repeat,number,numRpt,f,0.8307778090002103,Lo,1,33,,0,,,,,low,779.0761347389998,,,,,,,,,,,,,,,,39022,2022-10-25_10h28.10.269,vts_reward_expectancy_bt_OFFLINE,2022.2.4,59.975928421216494,
,,,,,,,,,,,,,,,,,,,,,,,,,,,,,,,,0,0,0,0,8,0,8,0,,,,160,F,hexagon,0.001332171000285598,,,,,1,0,,,,,785.199592248,,,,,,,,,,,,,,,,,781.5557863630002,781.5557863630002,781.5557863630002,781.5557863630002,783.0638516730005,783.0638516730005,783.0638516730005,783.0638516730005,783.0638516730005,783.0638516730005,783.0638516730005,783.0638516730005,repeat,number,numRpt,f,0.607325638000475,Hi,1,34,,0,,,,,low,783.6979208800003,,,,,,,,,,,,,,,,39022,2022-10-25_10h28.10.269,vts_reward_expectancy_bt_OFFLINE,2022.2.4,59.975928421216494,
,,,,,,,,,,,,,,,,,,,,,,,,,,,,,,,,0,0,0,0,9,0,9,0,,,,167,S,star,0.0016601290008111391,,,,,1,0,,,,,789.8546111140004,,,,,,,,,,,,,,,,,786.1776612510002,786.1776612510002,786.1776612510002,786.1776612510002,787.6855938690005,787.6855938690005,787.6855938690005,787.6855938690005,787.6855938690005,787.6855938690005,787.6855938690005,787.6855938690005,repeat,number,numRpt,f,0.6418515220002519,Lo,1,35,,0,,,,,low,788.353097526,,,,,,,,,,,,,,,,39022,2022-10-25_10h28.10.269,vts_reward_expectancy_bt_OFFLINE,2022.2.4,59.975928421216494,
,,,,,,,,,,,,,,,,,,,,,,,,,,,,,,,,0,0,0,0,10,0,10,0,,,,125,D,circle,0.0016722099999242346,,,,,1,0,,,,,794.4262886280003,,,,,,,,,,,,,,,,,790.8336813590004,790.8336813590004,790.8336813590004,790.8336813590004,792.3406557999997,792.3406557999997,792.3406557999997,792.3406557999997,792.3406557999997,792.3406557999997,792.3406557999997,792.3406557999997,switch,letter,lettSwt,j,0.5556685719993766,Hi,10,45,,0,,,,,low,792.9246773390005,,,,,,,,,,,,,,,,39022,2022-10-25_10h28.10.269,vts_reward_expectancy_bt_OFFLINE,2022.2.4,59.975928421216494,
,,,,,,,,,,,,,,,,,,,,,,,,,,,,,,,,0,0,0,0,11,0,11,0,,,,132,U,triangle,0.0015125750005609007,,,,,1,0,,,,,799.5487686030001,,,,,,,,,,,,,,,,,795.4040885080003,795.4040885080003,795.4040885080003,795.4040885080003,796.9123145829999,796.9123145829999,796.9123145829999,796.9123145829999,796.9123145829999,796.9123145829999,796.9123145829999,796.9123145829999,switch,number,numSwt,d,1.111599230000138,Lo,1,46,,0,,,,,low,798.0469139590004,,,,,,,,,,,,,,,,39022,2022-10-25_10h28.10.269,vts_reward_expectancy_bt_OFFLINE,2022.2.4,59.975928421216494,
,,,,,,,,,,,,,,,,,,,,,,,,,,,,,,,,0,0,0,0,12,0,12,0,,,,139,H,triangle,0.0016205950005314662,,,,,1,0,,,,,804.5541322489998,,,,,,,,,,,,,,,,,800.5263299150001,800.5263299150001,800.5263299150001,800.5263299150001,802.0346602099999,802.0346602099999,802.0346602099999,802.0346602099999,802.0346602099999,802.0346602099999,802.0346602099999,802.0346602099999,switch,letter,lettSwt,j,0.9894428329998846,Lo,1,47,,0,,,,,low,803.052466399,,,,,,,,,,,,,,,,39022,2022-10-25_10h28.10.269,vts_reward_expectancy_bt_OFFLINE,2022.2.4,59.975928421216494,
,,,,,,,,,,,,,,,,,,,,,,,,,,,,,,,,0,0,0,0,13,0,13,0,,,,146,B,hexagon,0.0015683760002502822,,,,,0,0,,,,,809.3760725299999,,,,,,,,,,,,,,,,,805.5318878030002,805.5318878030002,805.5318878030002,805.5318878030002,807.0403236860002,807.0403236860002,807.0403236860002,807.0403236860002,807.0403236860002,807.0403236860002,807.0403236860002,807.0403236860002,switch,number,NA,f,0.8076225100003285,Lo,0,47,,0,,,,,low,807.874382985,,,,,,,,,,,,,,,,39022,2022-10-25_10h28.10.269,vts_reward_expectancy_bt_OFFLINE,2022.2.4,59.975928421216494,
,,,,,,,,,,,,,,,,,,,,,,,,,,,,,,,,0,0,0,0,14,0,14,0,,,,181,Y,circle,0.001765143999364227,,,,,1,1,,,,,815.0824832039998,,,,,,,,,,,,,,,,,810.3541521409998,810.3541521409998,810.3541521409998,810.3541521409998,811.8622600150002,811.8622600150002,811.8622600150002,811.8622600150002,811.8622600150002,811.8622600150002,811.8622600150002,811.8622600150002,repeat,number,numRpt,f,1.690258812999673,Hi,0,47,,0,,,,,low,813.5808061440002,,,,,,,,,,,,,,,,39022,2022-10-25_10h28.10.269,vts_reward_expectancy_bt_OFFLINE,2022.2.4,59.975928421216494,
,,,,,,,,,,,,,,,,,,,,,,,,,,,,,,,,0,0,0,0,15,0,15,0,,,,174,W,star,0.001755109999976412,,,,,1,0,,,,,819.6042837080004,,,,,,,,,,,,,,,,,816.0602534119998,816.0602534119998,816.0602534119998,816.0602534119998,817.5684249610003,817.5684249610003,817.5684249610003,817.5684249610003,817.5684249610003,817.5684249610003,817.5684249610003,817.5684249610003,repeat,number,numRpt,f,0.5116835079998054,Lo,1,48,,0,,,,,low,818.1026925980004,,,,,,,,,,,,,,,,39022,2022-10-25_10h28.10.269,vts_reward_expectancy_bt_OFFLINE,2022.2.4,59.975928421216494,
,,,,,,,,,,,,,,,,,,,,,,,,,,,,,,,,0,0,0,0,16,0,16,0,,,,167,H,circle,0.0016808749996926053,,,,,1,0,,,,,824.4426910749999,,,,,,,,,,,,,,,,,820.5820682149997,820.5820682149997,820.5820682149997,820.5820682149997,822.0903758000004,822.0903758000004,822.0903758000004,822.0903758000004,822.0903758000004,822.0903758000004,822.0903758000004,822.0903758000004,switch,letter,lettSwt,j,0.8229086850005842,Hi,0,48,,0,,,,,low,822.9412500560002,,,,,,,,,,,,,,,,39022,2022-10-25_10h28.10.269,vts_reward_expectancy_bt_OFFLINE,2022.2.4,59.975928421216494,
,,,,,,,,,,,,,,,,,,,,,,,,,,,,,,,,0,0,0,0,17,0,17,0,,,,181,B,triangle,0.0017965930001082597,,,,,1,0,,,,,828.9644840339997,,,,,,,,,,,,,,,,,825.421685235,825.421685235,825.421685235,825.421685235,826.9289405250001,826.9289405250001,826.9289405250001,826.9289405250001,826.9289405250001,826.9289405250001,826.9289405250001,826.9289405250001,switch,number,numSwt,f,0.5026017190002676,Lo,10,58,,0,,,,,low,827.4627214950006,,,,,,,,,,,,,,,,39022,2022-10-25_10h28.10.269,vts_reward_expectancy_bt_OFFLINE,2022.2.4,59.975928421216494,
,,,,,,,,,,,,,,,,,,,,,,,,,,,,,,,,0,0,0,0,18,0,18,0,,,,139,F,hexagon,0.0015685629996369244,,,,,1,0,,,,,833.5199234319998,,,,,,,,,,,,,,,,,829.942673435,829.942673435,829.942673435,829.942673435,831.450675215,831.450675215,831.450675215,831.450675215,831.450675215,831.450675215,831.450675215,831.450675215,repeat,number,numRpt,d,0.5407005799997933,Hi,1,59,,0,,,,,low,832.0178666760003,,,,,,,,,,,,,,,,39022,2022-10-25_10h28.10.269,vts_reward_expectancy_bt_OFFLINE,2022.2.4,59.975928421216494,
,,,,,,,,,,,,,,,,,,,,,,,,,,,,,,,,0,0,0,0,19,0,19,0,,,,132,W,star,0.0014644189996033674,,,,,1,0,,,,,838.1246336940003,,,,,,,,,,,,,,,,,834.4986670440003,834.4986670440003,834.4986670440003,834.4986670440003,836.0058736350002,836.0058736350002,836.0058736350002,836.0058736350002,836.0058736350002,836.0058736350002,836.0058736350002,836.0058736350002,switch,letter,lettSwt,k,0.5932460840003841,Lo,10,69,,0,,,,,low,836.6230599070004,,,,,,,,,,,,,,,,39022,2022-10-25_10h28.10.269,vts_reward_expectancy_bt_OFFLINE,2022.2.4,59.975928421216494,
,,,,,,,,,,,,,,,,,,,,,,,,,,,,,,,,0,0,0,0,20,0,20,0,,,,146,Y,triangle,0.0015682980001656688,,,,,1,0,,,,,842.6628673860005,,,,,,,,,,,,,,,,,839.1024489970005,839.1024489970005,839.1024489970005,839.1024489970005,840.611001104,840.611001104,840.611001104,840.611001104,840.611001104,840.611001104,840.611001104,840.611001104,repeat,letter,lettRpt,k,0.5339664599996468,Lo,1,70,,0,,,,,low,841.1612950690005,842.6628673860005,,,,,,,,,,,,,,,39022,2022-10-25_10h28.10.269,vts_reward_expectancy_bt_OFFLINE,2022.2.4,59.975928421216494,
,,,,,,,,,,,,,,,,,,,,,,,,,,,,,,,,0,0,0,0,21,0,21,0,,,,174,D,circle,0.0008618829997431021,,,,,1,0,,,,,847.4850064809998,,,,,,,,,,,,,,,,,843.6482417850002,843.6482417850002,843.6482417850002,843.6482417850002,845.1489833189999,845.1489833189999,845.1489833189999,845.1489833189999,845.1489833189999,845.1489833189999,845.1489833189999,845.1489833189999,switch,number,numSwt,f,0.810702024999955,Hi,0,70,,0,,,,,low,845.9832665230006,,,,,,,,,,,,,,,,39022,2022-10-25_10h28.10.269,vts_reward_expectancy_bt_OFFLINE,2022.2.4,59.975928421216494,
,,,,,,,,,,,,,,,,,,,,,,,,,,,,,,,,0,0,0,0,22,0,22,0,,,,160,U,star,0.002049376000286429,,,,,1,0,,,,,852.1901853079999,,,,,,,,,,,,,,,,,848.4630524029999,848.4630524029999,848.4630524029999,848.4630524029999,849.9710587010004,849.9710587010004,849.9710587010004,849.9710587010004,849.9710587010004,849.9710587010004,849.9710587010004,849.9710587010004,repeat,number,numRpt,f,0.6920244929997352,Lo,10,80,,0,,,,,low,850.6884255180003,,,,,,,,,,,,,,,,39022,2022-10-25_10h28.10.269,vts_reward_expectancy_bt_OFFLINE,2022.2.4,59.975928421216494,
,,,,,,,,,,,,,,,,,,,,,,,,,,,,,,,,0,0,0,0,23,0,23,0,,,,125,S,hexagon,0.0012832649999836576,,,,,1,0,,,,,856.9119661000004,,,,,,,,,,,,,,,,,853.1681357329999,853.1681357329999,853.1681357329999,853.1681357329999,854.6761242760003,854.6761242760003,854.6761242760003,854.6761242760003,854.6761242760003,854.6761242760003,854.6761242760003,854.6761242760003,repeat,number,numRpt,d,0.7073366580007132,Hi,1,81,,0,,,,,low,855.4101476430005,,,,,,,,,,,,,,,,39022,2022-10-25_10h28.10.269,vts_reward_expectancy_bt_OFFLINE,2022.2.4,59.975928421216494,
,,,,,,,,,,,,,,,,,,,,,,,,,,,,,,,,0,0,0,0,24,0,24,0,,,,132,D,triangle,0.0016169939999599592,,,,,1,0,,,,,861.9508572980003,,,,,,,,,,,,,,,,,857.8899524870003,857.8899524870003,857.8899524870003,857.8899524870003,859.3981870739999,859.3981870739999,859.3981870739999,859.3981870739999,859.3981870739999,859.3981870739999,859.3981870739999,859.3981870739999,repeat,number,numRpt,d,1.0187282509996294,Lo,1,82,,0,,,,,low,860.4494372429999,,,,,,,,,,,,,,,,39022,2022-10-25_10h28.10.269,vts_reward_expectancy_bt_OFFLINE,2022.2.4,59.975928421216494,
,,,,,,,,,,,,,,,,,,,,,,,,,,,,,,,,0,0,0,0,25,0,25,0,,,,146,Y,star,0.0017301050002060947,,,,,1,0,,,,,867.4733916969999,,,,,,,,,,,,,,,,,862.9290309529997,862.9290309529997,862.9290309529997,862.9290309529997,864.4367856420004,864.4367856420004,864.4367856420004,864.4367856420004,864.4367856420004,864.4367856420004,864.4367856420004,864.4367856420004,repeat,number,numRpt,d,1.514878938000038,Lo,1,83,,0,,,,,low,865.9717322180004,,,,,,,,,,,,,,,,39022,2022-10-25_10h28.10.269,vts_reward_expectancy_bt_OFFLINE,2022.2.4,59.975928421216494,
,,,,,,,,,,,,,,,,,,,,,,,,,,,,,,,,0,0,0,0,26,0,26,0,,,,125,W,circle,0.0016867550002643839,,,,,1,0,,,,,872.1286743680002,,,,,,,,,,,,,,,,,868.4516904540005,868.4516904540005,868.4516904540005,868.4516904540005,869.9596981129998,869.9596981129998,869.9596981129998,869.9596981129998,869.9596981129998,869.9596981129998,869.9596981129998,869.9596981129998,repeat,number,numRpt,d,0.6482489640002314,Hi,1,84,,0,,,,,low,870.6271006160005,,,,,,,,,,,,,,,,39022,2022-10-25_10h28.10.269,vts_reward_expectancy_bt_OFFLINE,2022.2.4,59.975928421216494,
,,,,,,,,,,,,,,,,,,,,,,,,,,,,,,,,0,0,0,0,27,0,27,0,,,,174,H,hexagon,0.0010233550001430558,,,,,1,0,,,,,877.0173686099997,,,,,,,,,,,,,,,,,873.1069202620001,873.1069202620001,873.1069202620001,873.1069202620001,874.614888352,874.614888352,874.614888352,874.614888352,874.614888352,874.614888352,874.614888352,874.614888352,repeat,number,numRpt,f,0.8725029910001467,Hi,10,94,,0,,,,,low,875.5157673929998,,,,,,,,,,,,,,,,39022,2022-10-25_10h28.10.269,vts_reward_expectancy_bt_OFFLINE,2022.2.4,59.975928421216494,
,,,,,,,,,,,,,,,,,,,,,,,,,,,,,,,,0,0,0,0,28,0,28,0,,,,181,B,star,0.0013494700006049243,,,,,1,0,,,,,881.6893089169998,,,,,,,,,,,,,,,,,877.9953068340001,877.9953068340001,877.9953068340001,877.9953068340001,879.5034660190004,879.5034660190004,879.5034660190004,879.5034660190004,879.5034660190004,879.5034660190004,879.5034660190004,879.5034660190004,repeat,number,numRpt,f,0.6563961150004616,Lo,1,95,,0,,,,,low,880.1876485130006,,,,,,,,,,,,,,,,39022,2022-10-25_10h28.10.269,vts_reward_expectancy_bt_OFFLINE,2022.2.4,59.975928421216494,
,,,,,,,,,,,,,,,,,,,,,,,,,,,,,,,,0,0,0,0,29,0,29,0,,,,139,S,triangle,0.0015157299994825735,,,,,1,0,,,,,886.6447727610002,,,,,,,,,,,,,,,,,882.668217468,882.668217468,882.668217468,882.668217468,884.1756846879998,884.1756846879998,884.1756846879998,884.1756846879998,884.1756846879998,884.1756846879998,884.1756846879998,884.1756846879998,switch,letter,lettSwt,k,0.9434907069999099,Lo,1,96,,0,,,,,low,885.1432257450006,,,,,,,,,,,,,,,,39022,2022-10-25_10h28.10.269,vts_reward_expectancy_bt_OFFLINE,2022.2.4,59.975928421216494,
,,,,,,,,,,,,,,,,,,,,,,,,,,,,,,,,0,0,0,0,30,0,30,0,,,,167,U,hexagon,0.0014060060002520913,,,,,1,0,,,,,891.3335313770003,,,,,,,,,,,,,,,,,887.6221942909997,887.6221942909997,887.6221942909997,887.6221942909997,889.1309712370003,889.1309712370003,889.1309712370003,889.1309712370003,889.1309712370003,889.1309712370003,889.1309712370003,889.1309712370003,switch,number,numSwt,f,0.6767384490003678,Hi,1,97,,0,,,,,low,889.8316339430003,,,,,,,,,,,,,,,,39022,2022-10-25_10h28.10.269,vts_reward_expectancy_bt_OFFLINE,2022.2.4,59.975928421216494,
,,,,,,,,,,,,,,,,,,,,,,,,,,,,,,,,0,0,0,0,31,0,31,0,,,,160,F,circle,0.0013679499998033862,,,,,1,0,,,,,895.9552428940005,,,,,,,,,,,,,,,,,892.3109478209999,892.3109478209999,892.3109478209999,892.3109478209999,893.8192901560005,893.8192901560005,893.8192901560005,893.8192901560005,893.8192901560005,893.8192901560005,893.8192901560005,893.8192901560005,repeat,number,numRpt,f,0.6047436769995329,Hi,10,107,,0,,,,,low,894.4534981750003,,,,,,,,,,,,,,,,39022,2022-10-25_10h28.10.269,vts_reward_expectancy_bt_OFFLINE,2022.2.4,59.975928421216494,
,,,,,,,,,,,,,,,,,,,,,,,,,,,,,,,,1,0,1,0,0,0,0,0,,,,167,D,star,0.0016379679991587182,,,,,1,0,,,,,919.5645419210005,,,,,,,,,,,,,,,,,915.0854088400001,915.0854088400001,915.0854088400001,915.0854088400001,916.5944437489998,916.5944437489998,916.5944437489998,916.5944437489998,916.5944437489998,916.5944437489998,916.5944437489998,916.5944437489998,switch,letter,lettSwt,j,1.4369745519998105,Lo,1,108,,1,,,space,11.05604094499995,low,918.0628496310001,,,,,,,,,,,,,,,,39022,2022-10-25_10h28.10.269,vts_reward_expectancy_bt_OFFLINE,2022.2.4,59.975928421216494,
,,,,,,,,,,,,,,,,,,,,,,,,,,,,,,,,1,0,1,0,1,0,1,0,,,,132,W,triangle,0.0014127979993645567,,,,,1,0,,,,,924.4032052170005,,,,,,,,,,,,,,,,,920.5420473680006,920.5420473680006,920.5420473680006,920.5420473680006,922.0507200350003,922.0507200350003,922.0507200350003,922.0507200350003,922.0507200350003,922.0507200350003,922.0507200350003,922.0507200350003,repeat,letter,lettRpt,k,0.8212752130002627,Lo,1,109,,1,,,,,low,922.9014710430001,,,,,,,,,,,,,,,,39022,2022-10-25_10h28.10.269,vts_reward_expectancy_bt_OFFLINE,2022.2.4,59.975928421216494,
,,,,,,,,,,,,,,,,,,,,,,,,,,,,,,,,1,0,1,0,2,0,2,0,,,,160,U,hexagon,0.0018133359999410459,,,,,1,0,,,,,929.2584769410005,,,,,,,,,,,,,,,,,925.3797339379998,925.3797339379998,925.3797339379998,925.3797339379998,926.8893561690002,926.8893561690002,926.8893561690002,926.8893561690002,926.8893561690002,926.8893561690002,926.8893561690002,926.8893561690002,repeat,letter,lettRpt,k,0.8468957459999729,Hi,0,109,,1,,,,,low,927.756848262,,,,,,,,,,,,,,,,39022,2022-10-25_10h28.10.269,vts_reward_expectancy_bt_OFFLINE,2022.2.4,59.975928421216494,
,,,,,,,,,,,,,,,,,,,,,,,,,,,,,,,,1,0,1,0,3,0,3,0,,,,174,H,circle,0.0016553369996472611,,,,,1,0,,,,,934.0970550950005,,,,,,,,,,,,,,,,,930.2372652250006,930.2372652250006,930.2372652250006,930.2372652250006,931.7445053430001,931.7445053430001,931.7445053430001,931.7445053430001,931.7445053430001,931.7445053430001,931.7445053430001,931.7445053430001,repeat,letter,lettRpt,j,0.8306311389997063,Hi,0,109,,1,,,,,low,932.5955541800004,,,,,,,,,,,,,,,,39022,2022-10-25_10h28.10.269,vts_reward_expectancy_bt_OFFLINE,2022.2.4,59.975928421216494,
,,,,,,,,,,,,,,,,,,,,,,,,,,,,,,,,1,0,1,0,4,0,4,0,,,,181,B,triangle,0.0012766850004481967,,,,,1,0,,,,,938.7022011110002,,,,,,,,,,,,,,,,,935.0746742230003,935.0746742230003,935.0746742230003,935.0746742230003,936.583311931,936.583311931,936.583311931,936.583311931,936.583311931,936.583311931,936.583311931,936.583311931,switch,number,numSwt,f,0.5847448220001752,Lo,10,119,,1,,,,,low,937.2004447549998,,,,,,,,,,,,,,,,39022,2022-10-25_10h28.10.269,vts_reward_expectancy_bt_OFFLINE,2022.2.4,59.975928421216494,
,,,,,,,,,,,,,,,,,,,,,,,,,,,,,,,,1,0,1,0,5,0,5,0,,,,146,S,star,0.0016222630001720972,,,,,1,0,,,,,943.3407952240004,,,,,,,,,,,,,,,,,939.680057431,939.680057431,939.680057431,939.680057431,941.1882348030003,941.1882348030003,941.1882348030003,941.1882348030003,941.1882348030003,941.1882348030003,941.1882348030003,941.1882348030003,repeat,number,numRpt,d,0.6271850069997527,Lo,1,120,,1,,,,,low,941.838991871,,,,,,,,,,,,,,,,39022,2022-10-25_10h28.10.269,vts_reward_expectancy_bt_OFFLINE,2022.2.4,59.975928421216494,
,,,,,,,,,,,,,,,,,,,,,,,,,,,,,,,,1,0,1,0,6,0,6,0,,,,139,Y,hexagon,0.001536777000183065,,,,,1,0,,,,,947.9794906309999,,,,,,,,,,,,,,,,,944.3186284630001,944.3186284630001,944.3186284630001,944.3186284630001,945.8267657590004,945.8267657590004,945.8267657590004,945.8267657590004,945.8267657590004,945.8267657590004,945.8267657590004,945.8267657590004,repeat,number,numRpt,d,0.6213675849994615,Hi,10,130,,1,,,,,low,946.4776029940003,,,,,,,,,,,,,,,,39022,2022-10-25_10h28.10.269,vts_reward_expectancy_bt_OFFLINE,2022.2.4,59.975928421216494,
,,,,,,,,,,,,,,,,,,,,,,,,,,,,,,,,1,0,1,0,7,0,7,0,,,,125,F,circle,0.0012816049993489287,,,,,1,0,,,,,952.6842133649998,,,,,,,,,,,,,,,,,948.9567118940004,948.9567118940004,948.9567118940004,948.9567118940004,950.4651423229998,950.4651423229998,950.4651423229998,950.4651423229998,950.4651423229998,950.4651423229998,950.4651423229998,950.4651423229998,repeat,number,numRpt,d,0.6861030760001086,Hi,0,130,,1,,,,,low,951.182755713,,,,,,,,,,,,,,,,39022,2022-10-25_10h28.10.269,vts_reward_expectancy_bt_OFFLINE,2022.2.4,59.975928421216494,
,,,,,,,,,,,,,,,,,,,,,,,,,,,,,,,,1,0,1,0,8,0,8,0,,,,167,D,hexagon,0.001657798999985971,,,,,1,0,,,,,957.4398221239999,,,,,,,,,,,,,,,,,953.6607958060004,953.6607958060004,953.6607958060004,953.6607958060004,955.1704047359999,955.1704047359999,955.1704047359999,955.1704047359999,955.1704047359999,955.1704047359999,955.1704047359999,955.1704047359999,repeat,number,numRpt,f,0.7409787700007655,Hi,0,130,,1,,,,,low,955.9378098220004,,,,,,,,,,,,,,,,39022,2022-10-25_10h28.10.269,vts_reward_expectancy_bt_OFFLINE,2022.2.4,59.975928421216494,
,,,,,,,,,,,,,,,,,,,,,,,,,,,,,,,,1,0,1,0,9,0,9,0,,,,132,W,circle,0.0015948799991747364,,,,,0,0,,,,,962.0949111939999,,,,,,,,,,,,,,,,,958.4167757860005,958.4167757860005,958.4167757860005,958.4167757860005,959.9256718369998,959.9256718369998,959.9256718369998,959.9256718369998,959.9256718369998,959.9256718369998,959.9256718369998,959.9256718369998,repeat,number,NA,f,0.6425542570004836,Hi,0,130,,1,,,,,low,960.5930770610003,,,,,,,,,,,,,,,,39022,2022-10-25_10h28.10.269,vts_reward_expectancy_bt_OFFLINE,2022.2.4,59.975928421216494,
,,,,,,,,,,,,,,,,,,,,,,,,,,,,,,,,1,0,1,0,10,0,10,0,,,,160,U,star,0.0016256869994322187,,,,,1,1,,,,,966.8164167229997,,,,,,,,,,,,,,,,,963.073200279,963.073200279,963.073200279,963.073200279,964.5807057900001,964.5807057900001,964.5807057900001,964.5807057900001,964.5807057900001,964.5807057900001,964.5807057900001,964.5807057900001,repeat,number,numRpt,f,0.7062006300002395,Lo,1,131,,1,,,,,low,965.3149037510002,,,,,,,,,,,,,,,,39022,2022-10-25_10h28.10.269,vts_reward_expectancy_bt_OFFLINE,2022.2.4,59.975928421216494,
,,,,,,,,,,,,,,,,,,,,,,,,,,,,,,,,1,0,1,0,11,0,11,0,,,,174,H,triangle,0.0014848880000499776,,,,,1,0,,,,,972.1223987250005,,,,,,,,,,,,,,,,,967.7928675630001,967.7928675630001,967.7928675630001,967.7928675630001,969.3026752759997,969.3026752759997,969.3026752759997,969.3026752759997,969.3026752759997,969.3026752759997,969.3026752759997,969.3026752759997,repeat,number,numRpt,f,1.2895385250003528,Lo,1,132,,1,,,,,low,970.6206223850004,,,,,,,,,,,,,,,,39022,2022-10-25_10h28.10.269,vts_reward_expectancy_bt_OFFLINE,2022.2.4,59.975928421216494,
,,,,,,,,,,,,,,,,,,,,,,,,,,,,,,,,1,0,1,0,12,0,12,0,,,,181,B,star,0.0015197559996522614,,,,,1,0,,,,,977.3614032169999,,,,,,,,,,,,,,,,,973.0990991480003,973.0990991480003,973.0990991480003,973.0990991480003,974.608423576,974.608423576,974.608423576,974.608423576,974.608423576,974.608423576,974.608423576,974.608423576,repeat,number,numRpt,f,1.223514067999531,Lo,1,133,,1,,,,,low,975.8597414550004,,,,,,,,,,,,,,,,39022,2022-10-25_10h28.10.269,vts_reward_expectancy_bt_OFFLINE,2022.2.4,59.975928421216494,
,,,,,,,,,,,,,,,,,,,,,,,,,,,,,,,,1,0,1,0,13,0,13,0,,,,146,S,hexagon,0.0015478810000786325,,,,,1,0,,,,,981.9835001150004,,,,,,,,,,,,,,,,,978.3387870810002,978.3387870810002,978.3387870810002,978.3387870810002,979.8476400290001,979.8476400290001,979.8476400290001,979.8476400290001,979.8476400290001,979.8476400290001,979.8476400290001,979.8476400290001,repeat,number,numRpt,d,0.617569044999982,Hi,10,143,,1,,,,,low,980.4818571360001,981.9835001150004,,,,,,,,,,,,,,,39022,2022-10-25_10h28.10.269,vts_reward_expectancy_bt_OFFLINE,2022.2.4,59.975928421216494,
,,,,,,,,,,,,,,,,,,,,,,,,,,,,,,,,1,0,1,0,14,0,14,0,,,,139,Y,triangle,0.0008005600002434221,,,,,1,0,,,,,986.5548765620006,,,,,,,,,,,,,,,,,982.9688084280006,982.9688084280006,982.9688084280006,982.9688084280006,984.469371792,984.469371792,984.469371792,984.469371792,984.469371792,984.469371792,984.469371792,984.469371792,repeat,number,numRpt,d,0.5533899370002473,Lo,1,144,,1,,,,,low,985.0534509890003,,,,,,,,,,,,,,,,39022,2022-10-25_10h28.10.269,vts_reward_expectancy_bt_OFFLINE,2022.2.4,59.975928421216494,
,,,,,,,,,,,,,,,,,,,,,,,,,,,,,,,,1,0,1,0,15,0,15,0,,,,125,F,circle,0.001515236000159348,,,,,1,0,,,,,991.8942244730006,,,,,,,,,,,,,,,,,987.5328926049997,987.5328926049997,987.5328926049997,987.5328926049997,989.0410466789999,989.0410466789999,989.0410466789999,989.0410466789999,989.0410466789999,989.0410466789999,989.0410466789999,989.0410466789999,switch,letter,lettSwt,j,1.327232195999386,Hi,0,144,,1,,,,,low,990.3926115940003,,,,,,,,,,,,,,,,39022,2022-10-25_10h28.10.269,vts_reward_expectancy_bt_OFFLINE,2022.2.4,59.975928421216494,
,,,,,,,,,,,,,,,,,,,,,,,,,,,,,,,,1,0,1,0,16,0,16,0,,,,160,B,hexagon,0.0013759160001427517,,,,,1,0,,,,,996.5326149359998,,,,,,,,,,,,,,,,,992.8717778420005,992.8717778420005,992.8717778420005,992.8717778420005,994.3803394249999,994.3803394249999,994.3803394249999,994.3803394249999,994.3803394249999,994.3803394249999,994.3803394249999,994.3803394249999,repeat,letter,lettRpt,j,0.6277272139996057,Hi,0,144,,1,,,,,low,995.0310678810001,,,,,,,,,,,,,,,,39022,2022-10-25_10h28.10.269,vts_reward_expectancy_bt_OFFLINE,2022.2.4,59.975928421216494,
,,,,,,,,,,,,,,,,,,,,,,,,,,,,,,,,1,0,1,0,17,0,17,0,,,,174,U,circle,0.001496457999564882,,,,,1,0,,,,,1001.4381141149997,,,,,,,,,,,,,,,,,997.5112026690003,997.5112026690003,997.5112026690003,997.5112026690003,999.0187623620004,999.0187623620004,999.0187623620004,999.0187623620004,999.0187623620004,999.0187623620004,999.0187623620004,999.0187623620004,repeat,letter,lettRpt,k,0.8934832149998329,Hi,0,144,,1,,,,,low,999.9362853570001,,,,,,,,,,,,,,,,39022,2022-10-25_10h28.10.269,vts_reward_expectancy_bt_OFFLINE,2022.2.4,59.975928421216494,
,,,,,,,,,,,,,,,,,,,,,,,,,,,,,,,,1,0,1,0,18,0,18,0,,,,146,W,star,0.00148005099981674,,,,,1,0,,,,,1006.7104240630006,,,,,,,,,,,,,,,,,1002.4166585109997,1002.4166585109997,1002.4166585109997,1002.4166585109997,1003.9240954960005,1003.9240954960005,1003.9240954960005,1003.9240954960005,1003.9240954960005,1003.9240954960005,1003.9240954960005,1003.9240954960005,switch,number,numSwt,d,1.2590401730003578,Lo,10,154,,1,,,,,low,1005.2088801340005,,,,,,,,,,,,,,,,39022,2022-10-25_10h28.10.269,vts_reward_expectancy_bt_OFFLINE,2022.2.4,59.975928421216494,
,,,,,,,,,,,,,,,,,,,,,,,,,,,,,,,,1,0,1,0,19,0,19,0,,,,181,S,triangle,0.0015168380004979554,,,,,1,0,,,,,1011.3823608940002,,,,,,,,,,,,,,,,,1007.6892965320003,1007.6892965320003,1007.6892965320003,1007.6892965320003,1009.1965317410004,1009.1965317410004,1009.1965317410004,1009.1965317410004,1009.1965317410004,1009.1965317410004,1009.1965317410004,1009.1965317410004,repeat,number,numRpt,f,0.651526742999522,Lo,1,155,,1,,,,,low,1009.8808260920005,,,,,,,,,,,,,,,,39022,2022-10-25_10h28.10.269,vts_reward_expectancy_bt_OFFLINE,2022.2.4,59.975928421216494,
,,,,,,,,,,,,,,,,,,,,,,,,,,,,,,,,1,0,1,0,20,0,20,0,,,,132,Y,triangle,0.001635635000639013,,,,,1,0,,,,,1016.4544212070005,,,,,,,,,,,,,,,,,1012.3603219300003,1012.3603219300003,1012.3603219300003,1012.3603219300003,1013.8683543260004,1013.8683543260004,1013.8683543260004,1013.8683543260004,1013.8683543260004,1013.8683543260004,1013.8683543260004,1013.8683543260004,repeat,number,numRpt,d,1.0525220310000805,Lo,1,156,,1,,,,,low,1014.9529446369997,,,,,,,,,,,,,,,,39022,2022-10-25_10h28.10.269,vts_reward_expectancy_bt_OFFLINE,2022.2.4,59.975928421216494,
,,,,,,,,,,,,,,,,,,,,,,,,,,,,,,,,1,0,1,0,21,0,21,0,,,,167,F,circle,0.0016388920003009844,,,,,1,0,,,,,1021.2267941589998,,,,,,,,,,,,,,,,,1017.432055368,1017.432055368,1017.432055368,1017.432055368,1018.9406772640004,1018.9406772640004,1018.9406772640004,1018.9406772640004,1018.9406772640004,1018.9406772640004,1018.9406772640004,1018.9406772640004,repeat,number,numRpt,f,0.763298814999871,Hi,0,156,,1,,,,,low,1019.7249226140002,,,,,,,,,,,,,,,,39022,2022-10-25_10h28.10.269,vts_reward_expectancy_bt_OFFLINE,2022.2.4,59.975928421216494,
,,,,,,,,,,,,,,,,,,,,,,,,,,,,,,,,1,0,1,0,22,0,22,0,,,,139,D,star,0.0015544320003755274,,,,,1,0,,,,,1025.9482526950005,,,,,,,,,,,,,,,,,1022.2046059630002,1022.2046059630002,1022.2046059630002,1022.2046059630002,1023.7126095530002,1023.7126095530002,1023.7126095530002,1023.7126095530002,1023.7126095530002,1023.7126095530002,1023.7126095530002,1023.7126095530002,repeat,number,numRpt,d,0.7108389029999671,Lo,1,157,,1,,,,,low,1024.4467037570003,,,,,,,,,,,,,,,,39022,2022-10-25_10h28.10.269,vts_reward_expectancy_bt_OFFLINE,2022.2.4,59.975928421216494,
,,,,,,,,,,,,,,,,,,,,,,,,,,,,,,,,1,0,1,0,23,0,23,0,,,,125,H,hexagon,0.0016701619997547823,,,,,1,0,,,,,1030.6702624159998,,,,,,,,,,,,,,,,,1026.9264472670002,1026.9264472670002,1026.9264472670002,1026.9264472670002,1028.4343124859997,1028.4343124859997,1028.4343124859997,1028.4343124859997,1028.4343124859997,1028.4343124859997,1028.4343124859997,1028.4343124859997,repeat,number,numRpt,d,0.7091804649999176,Hi,0,157,,1,,,,,low,1029.168659807,,,,,,,,,,,,,,,,39022,2022-10-25_10h28.10.269,vts_reward_expectancy_bt_OFFLINE,2022.2.4,59.975928421216494,
,,,,,,,,,,,,,,,,,,,,,,,,,,,,,,,,1,0,1,0,24,0,24,0,,,,181,Y,triangle,0.001621726999474049,,,,,0,0,,,,,1035.4255451569998,,,,,,,,,,,,,,,,,1031.647792414,1031.647792414,1031.647792414,1031.647792414,1033.1563302679997,1033.1563302679997,1033.1563302679997,1033.1563302679997,1033.1563302679997,1033.1563302679997,1033.1563302679997,1033.1563302679997,repeat,number,NA,d,0.7399841290007316,Hi,0,157,,1,,,,,low,1033.9238295000005,,,,,,,,,,,,,,,,39022,2022-10-25_10h28.10.269,vts_reward_expectancy_bt_OFFLINE,2022.2.4,59.975928421216494,
,,,,,,,,,,,,,,,,,,,,,,,,,,,,,,,,1,0,1,0,25,0,25,0,,,,167,W,star,0.0015197580005406053,,,,,1,1,,,,,1040.5478358950004,,,,,,,,,,,,,,,,,1036.4034368809998,1036.4034368809998,1036.4034368809998,1036.4034368809998,1037.911606087,1037.911606087,1037.911606087,1037.911606087,1037.911606087,1037.911606087,1037.911606087,1037.911606087,repeat,number,numRpt,f,1.1031584339998517,Lo,1,158,,1,,,,,low,1039.0462522950002,,,,,,,,,,,,,,,,39022,2022-10-25_10h28.10.269,vts_reward_expectancy_bt_OFFLINE,2022.2.4,59.975928421216494,
,,,,,,,,,,,,,,,,,,,,,,,,,,,,,,,,1,0,1,0,26,0,26,0,,,,132,U,hexagon,0.0013877979999961099,,,,,1,0,,,,,1045.6536049550004,,,,,,,,,,,,,,,,,1041.524831144,1041.524831144,1041.524831144,1041.524831144,1043.0338210680002,1043.0338210680002,1043.0338210680002,1043.0338210680002,1043.0338210680002,1043.0338210680002,1043.0338210680002,1043.0338210680002,repeat,number,numRpt,d,1.0934984740006257,Hi,0,158,,1,,,,,low,1044.1518974520004,,,,,,,,,,,,,,,,39022,2022-10-25_10h28.10.269,vts_reward_expectancy_bt_OFFLINE,2022.2.4,59.975928421216494,
,,,,,,,,,,,,,,,,,,,,,,,,,,,,,,,,1,0,1,0,27,0,27,0,,,,160,S,circle,0.0014023490002728067,,,,,1,0,,,,,1050.3753118700006,,,,,,,,,,,,,,,,,1046.6309548890003,1046.6309548890003,1046.6309548890003,1046.6309548890003,1048.1396631850002,1048.1396631850002,1048.1396631850002,1048.1396631850002,1048.1396631850002,1048.1396631850002,1048.1396631850002,1048.1396631850002,repeat,number,numRpt,f,0.7174232249999477,Hi,0,158,,1,,,,,low,1048.8736730950004,,,,,,,,,,,,,,,,39022,2022-10-25_10h28.10.269,vts_reward_expectancy_bt_OFFLINE,2022.2.4,59.975928421216494,
,,,,,,,,,,,,,,,,,,,,,,,,,,,,,,,,1,0,1,0,28,0,28,0,,,,174,D,star,0.001309702000071411,,,,,1,0,,,,,1055.2309445760002,,,,,,,,,,,,,,,,,1051.3598348300002,1051.3598348300002,1051.3598348300002,1051.3598348300002,1052.861496177,1052.861496177,1052.861496177,1052.861496177,1052.861496177,1052.861496177,1052.861496177,1052.861496177,repeat,number,numRpt,f,0.8416017090003152,Lo,1,159,,1,,,,,low,1053.7292886149999,,,,,,,,,,,,,,,,39022,2022-10-25_10h28.10.269,vts_reward_expectancy_bt_OFFLINE,2022.2.4,59.975928421216494,
,,,,,,,,,,,,,,,,,,,,,,,,,,,,,,,,1,0,1,0,29,0,29,0,,,,125,F,hexagon,0.001713180000479042,,,,,1,0,,,,,1060.1363476900005,,,,,,,,,,,,,,,,,1056.208601104,1056.208601104,1056.208601104,1056.208601104,1057.716953948,1057.716953948,1057.716953948,1057.716953948,1057.716953948,1057.716953948,1057.716953948,1057.716953948,repeat,number,numRpt,d,0.8904283709998708,Hi,0,159,,1,,,,,low,1058.634843762,,,,,,,,,,,,,,,,39022,2022-10-25_10h28.10.269,vts_reward_expectancy_bt_OFFLINE,2022.2.4,59.975928421216494,
,,,,,,,,,,,,,,,,,,,,,,,,,,,,,,,,1,0,1,0,30,0,30,0,,,,139,B,triangle,0.001870541999778652,,,,,1,0,,,,,1065.2251325480001,,,,,,,,,,,,,,,,,1061.1139296010006,1061.1139296010006,1061.1139296010006,1061.1139296010006,1062.6223905160005,1062.6223905160005,1062.6223905160005,1062.6223905160005,1062.6223905160005,1062.6223905160005,1062.6223905160005,1062.6223905160005,repeat,number,numRpt,d,1.0814929119997032,Lo,10,169,,1,,,,,low,1063.7238934870002,,,,,,,,,,,,,,,,39022,2022-10-25_10h28.10.269,vts_reward_expectancy_bt_OFFLINE,2022.2.4,59.975928421216494,
,,,,,,,,,,,,,,,,,,,,,,,,,,,,,,,,1,0,1,0,31,0,31,0,,,,146,H,circle,0.0014147880001473823,,,,,1,0,,,,,1070.2973718499998,,,,,,,,,,,,,,,,,1066.202858484,1066.202858484,1066.202858484,1066.202858484,1067.7115268059997,1067.7115268059997,1067.7115268059997,1067.7115268059997,1067.7115268059997,1067.7115268059997,1067.7115268059997,1067.7115268059997,repeat,number,numRpt,d,1.0644502439999997,Hi,0,169,,1,,,,,low,1068.795681181,,,,,,,,,,,,,,,,39022,2022-10-25_10h28.10.269,vts_reward_expectancy_bt_OFFLINE,2022.2.4,59.975928421216494,
,,,,,,,,,,,,,,,,,,,,,,,,,,,,,,,,2,0,2,0,0,0,0,0,,,,160,F,star,0.002343928000300366,,,,,1,0,,,,,1082.143770666,,,,,,,,,,,,,,,,,1078.349156485,1078.349156485,1078.349156485,1078.349156485,1079.8578551440005,1079.8578551440005,1079.8578551440005,1079.8578551440005,1079.8578551440005,1079.8578551440005,1079.8578551440005,1079.8578551440005,repeat,number,numRpt,f,0.7575627619999068,Lo,10,179,,2,,,space,0.8540452429997458,low,1080.6419079779998,,,,,,,,,,,,,,,,39022,2022-10-25_10h28.10.269,vts_reward_expectancy_bt_OFFLINE,2022.2.4,59.975928421216494,
,,,,,,,,,,,,,,,,,,,,,,,,,,,,,,,,2,0,2,0,1,0,1,0,,,,167,Y,hexagon,0.0014294390002760338,,,,,1,0,,,,,1087.149321334,,,,,,,,,,,,,,,,,1083.121007142,1083.121007142,1083.121007142,1083.121007142,1084.630010283,1084.630010283,1084.630010283,1084.630010283,1084.630010283,1084.630010283,1084.630010283,1084.630010283,repeat,number,numRpt,f,0.9859964640008911,Hi,0,179,,2,,,,,low,1085.6475718709999,,,,,,,,,,,,,,,,39022,2022-10-25_10h28.10.269,vts_reward_expectancy_bt_OFFLINE,2022.2.4,59.975928421216494,
,,,,,,,,,,,,,,,,,,,,,,,,,,,,,,,,2,0,2,0,2,0,2,0,,,,174,D,triangle,0.0013110620002407813,,,,,1,0,,,,,1091.7710549410003,,,,,,,,,,,,,,,,,1088.1264983500005,1088.1264983500005,1088.1264983500005,1088.1264983500005,1089.635548284,1089.635548284,1089.635548284,1089.635548284,1089.635548284,1089.635548284,1089.635548284,1089.635548284,repeat,number,numRpt,f,0.6049992620000921,Lo,1,180,,2,,,,,low,1090.2694417510002,,,,,,,,,,,,,,,,39022,2022-10-25_10h28.10.269,vts_reward_expectancy_bt_OFFLINE,2022.2.4,59.975928421216494,
,,,,,,,,,,,,,,,,,,,,,,,,,,,,,,,,2,0,2,0,3,0,3,0,,,,125,U,circle,0.0017636959992159973,,,,,1,0,,,,,1096.45941322,,,,,,,,,,,,,,,,,1092.7488958660006,1092.7488958660006,1092.7488958660006,1092.7488958660006,1094.2570505040003,1094.2570505040003,1094.2570505040003,1094.2570505040003,1094.2570505040003,1094.2570505040003,1094.2570505040003,1094.2570505040003,repeat,number,numRpt,d,0.6786731619995408,Hi,10,190,,2,,,,,low,1094.9578244060003,,,,,,,,,,,,,,,,39022,2022-10-25_10h28.10.269,vts_reward_expectancy_bt_OFFLINE,2022.2.4,59.975928421216494,
,,,,,,,,,,,,,,,,,,,,,,,,,,,,,,,,2,0,2,0,4,0,4,0,,,,132,W,circle,0.0017917400000442285,,,,,1,0,,,,,1101.3482843709999,,,,,,,,,,,,,,,,,1097.4382917379999,1097.4382917379999,1097.4382917379999,1097.4382917379999,1098.9456342479998,1098.9456342479998,1098.9456342479998,1098.9456342479998,1098.9456342479998,1098.9456342479998,1098.9456342479998,1098.9456342479998,repeat,number,numRpt,d,0.8700301900007616,Hi,0,190,,2,,,,,low,1099.84654942,,,,,,,,,,,,,,,,39022,2022-10-25_10h28.10.269,vts_reward_expectancy_bt_OFFLINE,2022.2.4,59.975928421216494,
,,,,,,,,,,,,,,,,,,,,,,,,,,,,,,,,2,0,2,0,5,0,5,0,,,,139,H,star,0.0016650770003252546,,,,,1,0,,,,,1105.81998991,,,,,,,,,,,,,,,,,1102.3256634360005,1102.3256634360005,1102.3256634360005,1102.3256634360005,1103.834385307,1103.834385307,1103.834385307,1103.834385307,1103.834385307,1103.834385307,1103.834385307,1103.834385307,repeat,number,numRpt,d,0.46163321700078086,Lo,1,191,,2,,,,,low,1104.318319682,,,,,,,,,,,,,,,,39022,2022-10-25_10h28.10.269,vts_reward_expectancy_bt_OFFLINE,2022.2.4,59.975928421216494,
,,,,,,,,,,,,,,,,,,,,,,,,,,,,,,,,2,0,2,0,6,0,6,0,,,,146,S,hexagon,0.001979945000130101,,,,,1,0,,,,,1110.80881597,,,,,,,,,,,,,,,,,1106.797779181,1106.797779181,1106.797779181,1106.797779181,1108.3058495269997,1108.3058495269997,1108.3058495269997,1108.3058495269997,1108.3058495269997,1108.3058495269997,1108.3058495269997,1108.3058495269997,repeat,number,numRpt,d,0.9729849249997642,Hi,0,191,,2,,,,,low,1109.3072525810003,,,,,,,,,,,,,,,,39022,2022-10-25_10h28.10.269,vts_reward_expectancy_bt_OFFLINE,2022.2.4,59.975928421216494,
,,,,,,,,,,,,,,,,,,,,,,,,,,,,,,,,2,0,2,0,7,0,7,0,,,,181,B,triangle,0.0014255730002332712,,,,,1,0,,,,,1115.4637995869998,,,,,,,,,,,,,,,,,1111.7861523430001,1111.7861523430001,1111.7861523430001,1111.7861523430001,1113.2948895280006,1113.2948895280006,1113.2948895280006,1113.2948895280006,1113.2948895280006,1113.2948895280006,1113.2948895280006,1113.2948895280006,repeat,number,numRpt,f,0.6401823600008356,Lo,10,201,,2,,,,,low,1113.9622697860004,,,,,,,,,,,,,,,,39022,2022-10-25_10h28.10.269,vts_reward_expectancy_bt_OFFLINE,2022.2.4,59.975928421216494,
,,,,,,,,,,,,,,,,,,,,,,,,,,,,,,,,2,0,2,0,8,0,8,0,,,,160,F,circle,0.0014555609996023122,,,,,1,0,,,,,1120.135753527,,,,,,,,,,,,,,,,,1116.4425361820004,1116.4425361820004,1116.4425361820004,1116.4425361820004,1117.9499319300003,1117.9499319300003,1117.9499319300003,1117.9499319300003,1117.9499319300003,1117.9499319300003,1117.9499319300003,1117.9499319300003,repeat,number,numRpt,f,0.6673954509997202,Hi,1,202,,2,,,,,low,1118.634280923,,,,,,,,,,,,,,,,39022,2022-10-25_10h28.10.269,vts_reward_expectancy_bt_OFFLINE,2022.2.4,59.975928421216494,
,,,,,,,,,,,,,,,,,,,,,,,,,,,,,,,,2,0,2,0,9,0,9,0,,,,167,Y,star,0.0009722419999889098,,,,,1,0,,,,,1124.6572758749999,,,,,,,,,,,,,,,,,1121.1135264080003,1121.1135264080003,1121.1135264080003,1121.1135264080003,1122.6219777100005,1122.6219777100005,1122.6219777100005,1122.6219777100005,1122.6219777100005,1122.6219777100005,1122.6219777100005,1122.6219777100005,repeat,number,numRpt,f,0.5052326980003272,Lo,10,212,,2,,,,,low,1123.155982624,,,,,,,,,,,,,,,,39022,2022-10-25_10h28.10.269,vts_reward_expectancy_bt_OFFLINE,2022.2.4,59.975928421216494,
