LTriangleOpac,LCircleOpac,LHexagonOpac,LStarOpac,RTriangleOpac,RCircleOpac,RHexagonOpac,RStarOpac,LShape_ID,RShape_ID,training_blocks.thisRepN,training_blocks.thisTrialN,training_blocks.thisN,training_blocks.thisIndex,training.thisRepN,training.thisTrialN,training.thisN,training.thisIndex,task1_prac_redo.thisRepN,task1_prac_redo.thisTrialN,task1_prac_redo.thisN,task1_prac_redo.thisIndex,key_resp.started,key_resp.keys,key_resp.rt,left_circle.started,right_circle.started,left_triangle.started,right_triangle.started,left_star.started,right_star.started,left_hexagon.started,right_hexagon.started,training_fix.started,training_resp.started,training_resp.keys,training_resp.rt,points_trial,points_cumul,trainBlock,training_feedback_txt.started,fix.started,training_feedback_txt.stopped,fix.stopped,participant,date,expName,psychopyVersion,frameRate,
,,,,,,,,,,,,,,,,,,,,,,20.97248731700074,space,21.301816642999256,,,,,,,,,,,,,,,,,,,,39022,2022-10-25_10h16.01.156,vts_reward_expectancy_bt_OFFLINE,2022.2.4,59.84379787286431,
1,0,0,0,0,0,0,1,triangle,star,0,0,0,0,0,0,0,2,,,,,,,,59.49714409100034,59.49714409100034,59.49714409100034,59.49714409100034,59.49714409100034,59.49714409100034,59.49714409100034,59.49714409100034,59.49714409100034,59.49714409100034,l,1.5147278569993432,1,1,0,61.039932800000315,62.54149612600031,,,39022,2022-10-25_10h16.01.156,vts_reward_expectancy_bt_OFFLINE,2022.2.4,59.84379787286431,
0,0,1,0,0,1,0,0,hexagon,circle,0,0,0,0,0,1,1,7,,,,,,,,63.04208623700015,63.04208623700015,63.04208623700015,63.04208623700015,63.04208623700015,63.04208623700015,63.04208623700015,63.04208623700015,63.04208623700015,63.04208623700015,a,0.43442762199902063,1,2,0,63.50920487300027,65.01097937000031,,,39022,2022-10-25_10h16.01.156,vts_reward_expectancy_bt_OFFLINE,2022.2.4,59.84379787286431,
0,0,0,1,1,0,0,0,star,triangle,0,0,0,0,0,2,2,9,,,,,,,,65.5116572400002,65.5116572400002,65.5116572400002,65.5116572400002,65.5116572400002,65.5116572400002,65.5116572400002,65.5116572400002,65.5116572400002,65.5116572400002,a,0.2513746179993177,10,12,0,65.7952753590007,67.29687882500002,,,39022,2022-10-25_10h16.01.156,vts_reward_expectancy_bt_OFFLINE,2022.2.4,59.84379787286431,
0,1,0,0,1,0,0,0,circle,triangle,0,0,0,0,0,3,3,3,,,,,,,,67.79768172500007,67.79768172500007,67.79768172500007,67.79768172500007,67.79768172500007,67.79768172500007,67.79768172500007,67.79768172500007,67.79768172500007,67.79768172500007,a,0.33415524900010496,1,13,0,68.16438625299998,69.6663314540001,,,39022,2022-10-25_10h16.01.156,vts_reward_expectancy_bt_OFFLINE,2022.2.4,59.84379787286431,
0,0,0,1,0,0,1,0,star,hexagon,0,0,0,0,0,4,4,11,,,,,,,,70.16669343300055,70.16669343300055,70.16669343300055,70.16669343300055,70.16669343300055,70.16669343300055,70.16669343300055,70.16669343300055,70.16669343300055,70.16669343300055,a,0.5959201169989683,1,14,0,70.78404315100033,72.28586178500063,,,39022,2022-10-25_10h16.01.156,vts_reward_expectancy_bt_OFFLINE,2022.2.4,59.84379787286431,
1,0,0,0,0,0,1,0,triangle,hexagon,0,0,0,0,0,5,5,1,,,,,,,,72.78647111100054,72.78647111100054,72.78647111100054,72.78647111100054,72.78647111100054,72.78647111100054,72.78647111100054,72.78647111100054,72.78647111100054,72.78647111100054,a,1.1917910510001093,1,15,0,74.00442156100053,75.50592477700047,,,39022,2022-10-25_10h16.01.156,vts_reward_expectancy_bt_OFFLINE,2022.2.4,59.84379787286431,
0,0,1,0,1,0,0,0,hexagon,triangle,0,0,0,0,0,6,6,6,,,,,,,,76.00649129900012,76.00649129900012,76.00649129900012,76.00649129900012,76.00649129900012,76.00649129900012,76.00649129900012,76.00649129900012,76.00649129900012,76.00649129900012,a,0.5819879219998256,1,16,0,76.60716817000048,78.10869531300068,,,39022,2022-10-25_10h16.01.156,vts_reward_expectancy_bt_OFFLINE,2022.2.4,59.84379787286431,
0,1,0,0,0,0,0,1,circle,star,0,0,0,0,0,7,7,5,,,,,,,,78.60929664000014,78.60929664000014,78.60929664000014,78.60929664000014,78.60929664000014,78.60929664000014,78.60929664000014,78.60929664000014,78.60929664000014,78.60929664000014,l,0.3225660529997185,1,17,0,78.9597037630001,80.46127903100023,,,39022,2022-10-25_10h16.01.156,vts_reward_expectancy_bt_OFFLINE,2022.2.4,59.84379787286431,
0,0,1,0,0,0,0,1,hexagon,star,0,0,0,0,0,8,8,8,,,,,,,,80.96189946400045,80.96189946400045,80.96189946400045,80.96189946400045,80.96189946400045,80.96189946400045,80.96189946400045,80.96189946400045,80.96189946400045,80.96189946400045,a,0.29753123599948594,10,27,0,81.27907431900076,82.78109053800017,,,39022,2022-10-25_10h16.01.156,vts_reward_expectancy_bt_OFFLINE,2022.2.4,59.84379787286431,
0,0,0,1,0,1,0,0,star ,circle,0,0,0,0,0,9,9,10,,,,,,,,83.28105186599987,83.28105186599987,83.28105186599987,83.28105186599987,83.28105186599987,83.28105186599987,83.28105186599987,83.28105186599987,83.28105186599987,83.28105186599987,l,1.0264346809990457,1,28,0,84.33224643300036,85.83395594900048,,,39022,2022-10-25_10h16.01.156,vts_reward_expectancy_bt_OFFLINE,2022.2.4,59.84379787286431,
1,0,0,0,0,1,0,0,triangle,circle,0,0,0,0,0,10,10,0,,,,,,,,86.33439075800015,86.33439075800015,86.33439075800015,86.33439075800015,86.33439075800015,86.33439075800015,86.33439075800015,86.33439075800015,86.33439075800015,86.33439075800015,l,0.940545435999411,1,29,0,87.30224022400034,88.80394778100072,,,39022,2022-10-25_10h16.01.156,vts_reward_expectancy_bt_OFFLINE,2022.2.4,59.84379787286431,
0,1,0,0,0,0,1,0,circle,hexagon,0,0,0,0,0,11,11,4,,,,,,,,89.30433820800044,89.30433820800044,89.30433820800044,89.30433820800044,89.30433820800044,89.30433820800044,89.30433820800044,89.30433820800044,89.30433820800044,89.30433820800044,a,0.5233408429994597,1,30,0,89.85502241199993,91.35670643400044,,,39022,2022-10-25_10h16.01.156,vts_reward_expectancy_bt_OFFLINE,2022.2.4,59.84379787286431,
0,1,0,0,1,0,0,0,circle,triangle,0,0,0,0,1,0,12,3,,,,,,,,91.85727643700011,91.85727643700011,91.85727643700011,91.85727643700011,91.85727643700011,91.85727643700011,91.85727643700011,91.85727643700011,91.85727643700011,91.85727643700011,l,0.2671849699991071,1,31,0,92.14080423900032,93.6425131370006,,,39022,2022-10-25_10h16.01.156,vts_reward_expectancy_bt_OFFLINE,2022.2.4,59.84379787286431,
0,0,1,0,0,1,0,0,hexagon,circle,0,0,0,0,1,1,13,7,,,,,,,,94.14304943300067,94.14304943300067,94.14304943300067,94.14304943300067,94.14304943300067,94.14304943300067,94.14304943300067,94.14304943300067,94.14304943300067,94.14304943300067,a,0.28444177599885734,1,32,0,94.46005293400049,95.96170845300003,,,39022,2022-10-25_10h16.01.156,vts_reward_expectancy_bt_OFFLINE,2022.2.4,59.84379787286431,
0,0,1,0,1,0,0,0,hexagon,triangle,0,0,0,0,1,2,14,6,,,,,,,,96.46219678700072,96.46219678700072,96.46219678700072,96.46219678700072,96.46219678700072,96.46219678700072,96.46219678700072,96.46219678700072,96.46219678700072,96.46219678700072,a,0.24460048299897608,1,33,0,96.72923825900034,98.23094060600033,,,39022,2022-10-25_10h16.01.156,vts_reward_expectancy_bt_OFFLINE,2022.2.4,59.84379787286431,
1,0,0,0,0,0,0,1,triangle,star,0,0,0,0,1,3,15,2,,,,,,,,98.73135945100057,98.73135945100057,98.73135945100057,98.73135945100057,98.73135945100057,98.73135945100057,98.73135945100057,98.73135945100057,98.73135945100057,98.73135945100057,a,0.35170919299980596,10,43,0,99.11524814299992,100.6171879500007,,,39022,2022-10-25_10h16.01.156,vts_reward_expectancy_bt_OFFLINE,2022.2.4,59.84379787286431,
0,1,0,0,0,0,1,0,circle,hexagon,0,0,0,0,1,4,16,4,,,,,,,,101.11761059900073,101.11761059900073,101.11761059900073,101.11761059900073,101.11761059900073,101.11761059900073,101.11761059900073,101.11761059900073,101.11761059900073,101.11761059900073,l,0.6686697639997874,1,44,0,101.8184027670004,103.32003726499988,,,39022,2022-10-25_10h16.01.156,vts_reward_expectancy_bt_OFFLINE,2022.2.4,59.84379787286431,
0,1,0,0,0,0,0,1,circle,star,0,0,0,0,1,5,17,5,,,,,,,,103.8205097300006,103.8205097300006,103.8205097300006,103.8205097300006,103.8205097300006,103.8205097300006,103.8205097300006,103.8205097300006,103.8205097300006,103.8205097300006,a,0.48657616499986034,1,45,0,104.337910104,105.83929810500013,,,39022,2022-10-25_10h16.01.156,vts_reward_expectancy_bt_OFFLINE,2022.2.4,59.84379787286431,
0,0,0,1,0,0,1,0,star,hexagon,0,0,0,0,1,6,18,11,,,,,,,,106.33978736400059,106.33978736400059,106.33978736400059,106.33978736400059,106.33978736400059,106.33978736400059,106.33978736400059,106.33978736400059,106.33978736400059,106.33978736400059,a,0.3194938219994583,10,55,0,106.69008471500001,108.19182641600037,,,39022,2022-10-25_10h16.01.156,vts_reward_expectancy_bt_OFFLINE,2022.2.4,59.84379787286431,
0,0,0,1,0,1,0,0,star ,circle,0,0,0,0,1,7,19,10,,,,,,,,108.69240768100008,108.69240768100008,108.69240768100008,108.69240768100008,108.69240768100008,108.69240768100008,108.69240768100008,108.69240768100008,108.69240768100008,108.69240768100008,a,0.31089204599993536,10,65,0,109.02614155800075,110.52778845800003,,,39022,2022-10-25_10h16.01.156,vts_reward_expectancy_bt_OFFLINE,2022.2.4,59.84379787286431,
0,0,1,0,0,0,0,1,hexagon,star,0,0,0,0,1,8,20,8,,,,,,,,111.02835132400014,111.02835132400014,111.02835132400014,111.02835132400014,111.02835132400014,111.02835132400014,111.02835132400014,111.02835132400014,111.02835132400014,111.02835132400014,l,0.5584021569993638,1,66,0,111.6122933480001,113.11397083800057,,,39022,2022-10-25_10h16.01.156,vts_reward_expectancy_bt_OFFLINE,2022.2.4,59.84379787286431,
1,0,0,0,0,1,0,0,triangle,circle,0,0,0,0,1,9,21,0,,,,,,,,113.61445287300012,113.61445287300012,113.61445287300012,113.61445287300012,113.61445287300012,113.61445287300012,113.61445287300012,113.61445287300012,113.61445287300012,113.61445287300012,a,0.29301571999985754,10,76,0,113.93157072800022,115.43328078300055,,,39022,2022-10-25_10h16.01.156,vts_reward_expectancy_bt_OFFLINE,2022.2.4,59.84379787286431,
0,0,0,1,1,0,0,0,star,triangle,0,0,0,0,1,10,22,9,,,,,,,,115.93391548100044,115.93391548100044,115.93391548100044,115.93391548100044,115.93391548100044,115.93391548100044,115.93391548100044,115.93391548100044,115.93391548100044,115.93391548100044,a,0.3093895109996083,10,86,0,116.26814844900036,117.7691984310004,,,39022,2022-10-25_10h16.01.156,vts_reward_expectancy_bt_OFFLINE,2022.2.4,59.84379787286431,
1,0,0,0,0,0,1,0,triangle,hexagon,0,0,0,0,1,11,23,1,,,,,,,,118.26976963900051,118.26976963900051,118.26976963900051,118.26976963900051,118.26976963900051,118.26976963900051,118.26976963900051,118.26976963900051,118.26976963900051,118.26976963900051,a,0.3012809339998057,10,96,0,118.60346351000044,120.10520284599988,,,39022,2022-10-25_10h16.01.156,vts_reward_expectancy_bt_OFFLINE,2022.2.4,59.84379787286431,
0,0,1,0,0,0,0,1,hexagon,star,0,0,0,0,2,0,24,8,,,,,,,,120.6057080440005,120.6057080440005,120.6057080440005,120.6057080440005,120.6057080440005,120.6057080440005,120.6057080440005,120.6057080440005,120.6057080440005,120.6057080440005,l,0.28458514099929744,1,97,0,120.92262984199988,122.42444318000071,,,39022,2022-10-25_10h16.01.156,vts_reward_expectancy_bt_OFFLINE,2022.2.4,59.84379787286431,
1,0,0,0,0,0,0,1,triangle,star,0,0,0,0,2,1,25,2,,,,,,,,122.92492476200005,122.92492476200005,122.92492476200005,122.92492476200005,122.92492476200005,122.92492476200005,122.92492476200005,122.92492476200005,122.92492476200005,122.92492476200005,l,0.29479413899935025,1,98,0,123.24229614500018,124.74357898700055,,,39022,2022-10-25_10h16.01.156,vts_reward_expectancy_bt_OFFLINE,2022.2.4,59.84379787286431,
0,0,1,0,1,0,0,0,hexagon,triangle,0,0,0,0,2,2,26,6,,,,,,,,125.24399641299988,125.24399641299988,125.24399641299988,125.24399641299988,125.24399641299988,125.24399641299988,125.24399641299988,125.24399641299988,125.24399641299988,125.24399641299988,a,0.27944612099963706,10,108,0,125.5444447810005,127.04623422900022,,,39022,2022-10-25_10h16.01.156,vts_reward_expectancy_bt_OFFLINE,2022.2.4,59.84379787286431,
0,0,0,1,0,1,0,0,star ,circle,0,0,0,0,2,3,27,10,,,,,,,,127.54649881000023,127.54649881000023,127.54649881000023,127.54649881000023,127.54649881000023,127.54649881000023,127.54649881000023,127.54649881000023,127.54649881000023,127.54649881000023,a,0.31188102699888987,10,118,0,127.88019341200015,129.38205767100044,,,39022,2022-10-25_10h16.01.156,vts_reward_expectancy_bt_OFFLINE,2022.2.4,59.84379787286431,
0,0,0,1,1,0,0,0,star,triangle,0,0,0,0,2,4,28,9,,,,,,,,129.88255992300037,129.88255992300037,129.88255992300037,129.88255992300037,129.88255992300037,129.88255992300037,129.88255992300037,129.88255992300037,129.88255992300037,129.88255992300037,a,0.4650153249995128,10,128,0,130.3663436480001,131.86807020000015,,,39022,2022-10-25_10h16.01.156,vts_reward_expectancy_bt_OFFLINE,2022.2.4,59.84379787286431,
0,0,1,0,0,1,0,0,hexagon,circle,0,0,0,0,2,5,29,7,,,,,,,,132.36852657500003,132.36852657500003,132.36852657500003,132.36852657500003,132.36852657500003,132.36852657500003,132.36852657500003,132.36852657500003,132.36852657500003,132.36852657500003,a,0.3311044149995723,10,138,0,132.7191300909999,134.2206600160007,,,39022,2022-10-25_10h16.01.156,vts_reward_expectancy_bt_OFFLINE,2022.2.4,59.84379787286431,
1,0,0,0,0,0,1,0,triangle,hexagon,0,0,0,0,2,6,30,1,,,,,,,,134.72119116500016,134.72119116500016,134.72119116500016,134.72119116500016,134.72119116500016,134.72119116500016,134.72119116500016,134.72119116500016,134.72119116500016,134.72119116500016,a,0.33844259999932547,1,139,0,135.0882521700005,136.58985997000036,,,39022,2022-10-25_10h16.01.156,vts_reward_expectancy_bt_OFFLINE,2022.2.4,59.84379787286431,
0,1,0,0,0,0,1,0,circle,hexagon,0,0,0,0,2,7,31,4,,,,,,,,137.0905163590005,137.0905163590005,137.0905163590005,137.0905163590005,137.0905163590005,137.0905163590005,137.0905163590005,137.0905163590005,137.0905163590005,137.0905163590005,l,0.2805318789996818,1,140,0,137.3907219620005,138.89253686400025,,,39022,2022-10-25_10h16.01.156,vts_reward_expectancy_bt_OFFLINE,2022.2.4,59.84379787286431,
0,0,0,1,0,0,1,0,star,hexagon,0,0,0,0,2,8,32,11,,,,,,,,139.39288830500027,139.39288830500027,139.39288830500027,139.39288830500027,139.39288830500027,139.39288830500027,139.39288830500027,139.39288830500027,139.39288830500027,139.39288830500027,a,0.3064400259991089,1,141,0,139.72658537700045,141.22825802400075,,,39022,2022-10-25_10h16.01.156,vts_reward_expectancy_bt_OFFLINE,2022.2.4,59.84379787286431,
1,0,0,0,0,1,0,0,triangle,circle,0,0,0,0,2,9,33,0,,,,,,,,141.72900299200046,141.72900299200046,141.72900299200046,141.72900299200046,141.72900299200046,141.72900299200046,141.72900299200046,141.72900299200046,141.72900299200046,141.72900299200046,a,0.31428490499911277,10,151,0,142.06275776500024,143.5644883670002,,,39022,2022-10-25_10h16.01.156,vts_reward_expectancy_bt_OFFLINE,2022.2.4,59.84379787286431,
0,1,0,0,1,0,0,0,circle,triangle,0,0,0,0,2,10,34,3,,,,,,,,144.06490175599993,144.06490175599993,144.06490175599993,144.06490175599993,144.06490175599993,144.06490175599993,144.06490175599993,144.06490175599993,144.06490175599993,144.06490175599993,a,0.330111601999306,10,161,0,144.41521730400018,145.91690438000023,,,39022,2022-10-25_10h16.01.156,vts_reward_expectancy_bt_OFFLINE,2022.2.4,59.84379787286431,
0,1,0,0,0,0,0,1,circle,star,0,0,0,0,2,11,35,5,,,,,,,,146.41743113600023,146.41743113600023,146.41743113600023,146.41743113600023,146.41743113600023,146.41743113600023,146.41743113600023,146.41743113600023,146.41743113600023,146.41743113600023,a,0.5062349459994948,1,162,0,146.95125178200033,148.45302413800073,,,39022,2022-10-25_10h16.01.156,vts_reward_expectancy_bt_OFFLINE,2022.2.4,59.84379787286431,
0,0,1,0,0,0,0,1,hexagon,star,0,0,0,0,3,0,36,8,,,,,,,,148.95364233800046,148.95364233800046,148.95364233800046,148.95364233800046,148.95364233800046,148.95364233800046,148.95364233800046,148.95364233800046,148.95364233800046,148.95364233800046,a,0.28122780899957434,1,163,0,149.25395730400032,150.75578586900065,,,39022,2022-10-25_10h16.01.156,vts_reward_expectancy_bt_OFFLINE,2022.2.4,59.84379787286431,
0,0,0,1,0,0,1,0,star,hexagon,0,0,0,0,3,1,37,11,,,,,,,,151.25614211599986,151.25614211599986,151.25614211599986,151.25614211599986,151.25614211599986,151.25614211599986,151.25614211599986,151.25614211599986,151.25614211599986,151.25614211599986,a,0.290284146999511,10,173,0,151.57323552700018,153.0750504560001,,,39022,2022-10-25_10h16.01.156,vts_reward_expectancy_bt_OFFLINE,2022.2.4,59.84379787286431,
0,0,0,1,0,1,0,0,star ,circle,0,0,0,0,3,2,38,10,,,,,,,,153.57536399700075,153.57536399700075,153.57536399700075,153.57536399700075,153.57536399700075,153.57536399700075,153.57536399700075,153.57536399700075,153.57536399700075,153.57536399700075,a,0.33173815099962667,10,183,0,153.92568714900062,155.42727988600018,155.42727988600018,,39022,2022-10-25_10h16.01.156,vts_reward_expectancy_bt_OFFLINE,2022.2.4,59.84379787286431,
0,0,0,1,1,0,0,0,star,triangle,0,0,0,0,3,3,39,9,,,,,,,,155.92788901699987,155.92788901699987,155.92788901699987,155.92788901699987,155.92788901699987,155.92788901699987,155.92788901699987,155.92788901699987,155.92788901699987,155.92788901699987,l,0.2908595819990296,10,193,0,156.24490485700062,157.74658578600065,,,39022,2022-10-25_10h16.01.156,vts_reward_expectancy_bt_OFFLINE,2022.2.4,59.84379787286431,
0,1,0,0,0,0,1,0,circle,hexagon,0,0,0,0,3,4,40,4,,,,,,,,158.2470412800003,158.2470412800003,158.2470412800003,158.2470412800003,158.2470412800003,158.2470412800003,158.2470412800003,158.2470412800003,158.2470412800003,158.2470412800003,l,0.30117305999920063,1,194,0,158.58090479100065,160.08285588299987,,,39022,2022-10-25_10h16.01.156,vts_reward_expectancy_bt_OFFLINE,2022.2.4,59.84379787286431,
0,0,1,0,1,0,0,0,hexagon,triangle,0,0,0,0,3,5,41,6,,,,,,,,160.5830608260003,160.5830608260003,160.5830608260003,160.5830608260003,160.5830608260003,160.5830608260003,160.5830608260003,160.5830608260003,160.5830608260003,160.5830608260003,a,0.4043466699995406,10,204,0,161.01701785500063,162.51850662200013,,,39022,2022-10-25_10h16.01.156,vts_reward_expectancy_bt_OFFLINE,2022.2.4,59.84379787286431,
0,1,0,0,0,0,0,1,circle,star,0,0,0,0,3,6,42,5,,,,,,,,163.01923163300035,163.01923163300035,163.01923163300035,163.01923163300035,163.01923163300035,163.01923163300035,163.01923163300035,163.01923163300035,163.01923163300035,163.01923163300035,a,0.31214952600021206,1,205,0,163.35297172500032,164.85448301199995,,,39022,2022-10-25_10h16.01.156,vts_reward_expectancy_bt_OFFLINE,2022.2.4,59.84379787286431,
1,0,0,0,0,0,0,1,triangle,star,0,0,0,0,3,7,43,2,,,,,,,,165.35505110100075,165.35505110100075,165.35505110100075,165.35505110100075,165.35505110100075,165.35505110100075,165.35505110100075,165.35505110100075,165.35505110100075,165.35505110100075,a,0.4077395009990141,1,206,0,165.78878792500018,167.290598691,,,39022,2022-10-25_10h16.01.156,vts_reward_expectancy_bt_OFFLINE,2022.2.4,59.84379787286431,
1,0,0,0,0,1,0,0,triangle,circle,0,0,0,0,3,8,44,0,,,,,,,,167.7910882010001,167.7910882010001,167.7910882010001,167.7910882010001,167.7910882010001,167.7910882010001,167.7910882010001,167.7910882010001,167.7910882010001,167.7910882010001,l,0.12323798199940939,1,207,0,167.94134943500012,169.44283615299992,,,39022,2022-10-25_10h16.01.156,vts_reward_expectancy_bt_OFFLINE,2022.2.4,59.84379787286431,
0,1,0,0,1,0,0,0,circle,triangle,0,0,0,0,3,9,45,3,,,,,,,,169.9434169340002,169.9434169340002,169.9434169340002,169.9434169340002,169.9434169340002,169.9434169340002,169.9434169340002,169.9434169340002,169.9434169340002,169.9434169340002,l,0.08429148399955011,10,217,0,170.0603247150002,171.56201468100062,,,39022,2022-10-25_10h16.01.156,vts_reward_expectancy_bt_OFFLINE,2022.2.4,59.84379787286431,
0,0,1,0,0,1,0,0,hexagon,circle,0,0,0,0,3,10,46,7,,,,,,,,172.06256581800062,172.06256581800062,172.06256581800062,172.06256581800062,172.06256581800062,172.06256581800062,172.06256581800062,172.06256581800062,172.06256581800062,172.06256581800062,a,0.30788478099930217,1,218,0,172.3963234290004,173.8979189340007,,,39022,2022-10-25_10h16.01.156,vts_reward_expectancy_bt_OFFLINE,2022.2.4,59.84379787286431,
1,0,0,0,0,0,1,0,triangle,hexagon,0,0,0,0,3,11,47,1,,,,,,,,174.39830925700062,174.39830925700062,174.39830925700062,174.39830925700062,174.39830925700062,174.39830925700062,174.39830925700062,174.39830925700062,174.39830925700062,174.39830925700062,l,0.13395904599929054,1,219,0,174.5483272170004,176.050428861,,,39022,2022-10-25_10h16.01.156,vts_reward_expectancy_bt_OFFLINE,2022.2.4,59.84379787286431,
0,0,1,0,0,1,0,0,hexagon,circle,1,0,1,0,0,0,0,7,,,,,,,,181.79562596400046,181.79562596400046,181.79562596400046,181.79562596400046,181.79562596400046,181.79562596400046,181.79562596400046,181.79562596400046,181.79562596400046,181.79562596400046,l,0.9028375970001434,1,220,1,182.72402212199995,184.22592939700007,,,39022,2022-10-25_10h16.01.156,vts_reward_expectancy_bt_OFFLINE,2022.2.4,59.84379787286431,
1,0,0,0,0,0,1,0,triangle,hexagon,1,0,1,0,0,1,1,1,,,,,,,,184.72654594600044,184.72654594600044,184.72654594600044,184.72654594600044,184.72654594600044,184.72654594600044,184.72654594600044,184.72654594600044,184.72654594600044,184.72654594600044,a,0.38941264299864997,10,230,1,185.14356384300027,186.64512067300075,,,39022,2022-10-25_10h16.01.156,vts_reward_expectancy_bt_OFFLINE,2022.2.4,59.84379787286431,
1,0,0,0,0,1,0,0,triangle,circle,1,0,1,0,0,2,2,0,,,,,,,,187.14585330299997,187.14585330299997,187.14585330299997,187.14585330299997,187.14585330299997,187.14585330299997,187.14585330299997,187.14585330299997,187.14585330299997,187.14585330299997,a,0.29753005699876667,10,240,1,187.4627910980007,188.96454469700075,,,39022,2022-10-25_10h16.01.156,vts_reward_expectancy_bt_OFFLINE,2022.2.4,59.84379787286431,
0,0,1,0,0,0,0,1,hexagon,star,1,0,1,0,0,3,3,8,,,,,,,,189.46508464999988,189.46508464999988,189.46508464999988,189.46508464999988,189.46508464999988,189.46508464999988,189.46508464999988,189.46508464999988,189.46508464999988,189.46508464999988,a,0.28280297899891593,10,250,1,189.76535868600058,191.26679360800063,,,39022,2022-10-25_10h16.01.156,vts_reward_expectancy_bt_OFFLINE,2022.2.4,59.84379787286431,
0,1,0,0,0,0,1,0,circle,hexagon,1,0,1,0,0,4,4,4,,,,,,,,191.76741003999996,191.76741003999996,191.76741003999996,191.76741003999996,191.76741003999996,191.76741003999996,191.76741003999996,191.76741003999996,191.76741003999996,191.76741003999996,a,0.30706384099903516,1,251,1,192.10116075000042,193.60272530700058,,,39022,2022-10-25_10h16.01.156,vts_reward_expectancy_bt_OFFLINE,2022.2.4,59.84379787286431,
0,0,0,1,1,0,0,0,star,triangle,1,0,1,0,0,5,5,9,,,,,,,,194.10340784600066,194.10340784600066,194.10340784600066,194.10340784600066,194.10340784600066,194.10340784600066,194.10340784600066,194.10340784600066,194.10340784600066,194.10340784600066,l,0.33229233299971384,10,261,1,194.45383407600002,195.95532860300045,,,39022,2022-10-25_10h16.01.156,vts_reward_expectancy_bt_OFFLINE,2022.2.4,59.84379787286431,
1,0,0,0,0,0,0,1,triangle,star,1,0,1,0,0,6,6,2,,,,,,,,196.4560067580005,196.4560067580005,196.4560067580005,196.4560067580005,196.4560067580005,196.4560067580005,196.4560067580005,196.4560067580005,196.4560067580005,196.4560067580005,l,0.2914667400000326,1,262,1,196.77297946100043,198.27447223299987,,,39022,2022-10-25_10h16.01.156,vts_reward_expectancy_bt_OFFLINE,2022.2.4,59.84379787286431,
0,0,0,1,0,1,0,0,star ,circle,1,0,1,0,0,7,7,10,,,,,,,,198.7751354360007,198.7751354360007,198.7751354360007,198.7751354360007,198.7751354360007,198.7751354360007,198.7751354360007,198.7751354360007,198.7751354360007,198.7751354360007,l,0.41998650199911935,1,263,1,199.22570670599998,200.72748273100024,,,39022,2022-10-25_10h16.01.156,vts_reward_expectancy_bt_OFFLINE,2022.2.4,59.84379787286431,
0,1,0,0,0,0,0,1,circle,star,1,0,1,0,0,8,8,5,,,,,,,,201.22830952000004,201.22830952000004,201.22830952000004,201.22830952000004,201.22830952000004,201.22830952000004,201.22830952000004,201.22830952000004,201.22830952000004,201.22830952000004,a,0.29523573699952976,1,264,1,201.54511788700074,203.04663010900003,,,39022,2022-10-25_10h16.01.156,vts_reward_expectancy_bt_OFFLINE,2022.2.4,59.84379787286431,
0,1,0,0,1,0,0,0,circle,triangle,1,0,1,0,0,9,9,3,,,,,,,,203.5471384250004,203.5471384250004,203.5471384250004,203.5471384250004,203.5471384250004,203.5471384250004,203.5471384250004,203.5471384250004,203.5471384250004,203.5471384250004,l,0.30432350499904715,10,274,1,203.88096775400027,205.38280151000072,,,39022,2022-10-25_10h16.01.156,vts_reward_expectancy_bt_OFFLINE,2022.2.4,59.84379787286431,
0,0,0,1,0,0,1,0,star,hexagon,1,0,1,0,0,10,10,11,,,,,,,,205.88308607599993,205.88308607599993,205.88308607599993,205.88308607599993,205.88308607599993,205.88308607599993,205.88308607599993,205.88308607599993,205.88308607599993,205.88308607599993,l,0.3436598949992913,10,284,1,206.25010727100016,207.7517508130004,,,39022,2022-10-25_10h16.01.156,vts_reward_expectancy_bt_OFFLINE,2022.2.4,59.84379787286431,
0,0,1,0,1,0,0,0,hexagon,triangle,1,0,1,0,0,11,11,6,,,,,,,,208.25231052400068,208.25231052400068,208.25231052400068,208.25231052400068,208.25231052400068,208.25231052400068,208.25231052400068,208.25231052400068,208.25231052400068,208.25231052400068,l,0.47888578199945186,10,294,1,208.75288240700047,210.25457366400042,,,39022,2022-10-25_10h16.01.156,vts_reward_expectancy_bt_OFFLINE,2022.2.4,59.84379787286431,
0,0,1,0,0,1,0,0,hexagon,circle,1,0,1,0,1,0,12,7,,,,,,,,210.7550707549999,210.7550707549999,210.7550707549999,210.7550707549999,210.7550707549999,210.7550707549999,210.7550707549999,210.7550707549999,210.7550707549999,210.7550707549999,l,0.34437667099973623,10,304,1,211.12238046900075,212.62384806699993,,,39022,2022-10-25_10h16.01.156,vts_reward_expectancy_bt_OFFLINE,2022.2.4,59.84379787286431,
0,0,1,0,1,0,0,0,hexagon,triangle,1,0,1,0,1,1,13,6,,,,,,,,213.12433758299994,213.12433758299994,213.12433758299994,213.12433758299994,213.12433758299994,213.12433758299994,213.12433758299994,213.12433758299994,213.12433758299994,213.12433758299994,a,0.3260594579996905,1,305,1,213.47487045600064,214.9765014960003,,,39022,2022-10-25_10h16.01.156,vts_reward_expectancy_bt_OFFLINE,2022.2.4,59.84379787286431,
0,1,0,0,1,0,0,0,circle,triangle,1,0,1,0,1,2,14,3,,,,,,,,215.47686702100054,215.47686702100054,215.47686702100054,215.47686702100054,215.47686702100054,215.47686702100054,215.47686702100054,215.47686702100054,215.47686702100054,215.47686702100054,l,0.35156636199917557,10,315,1,215.86082183800045,217.36236768400067,,,39022,2022-10-25_10h16.01.156,vts_reward_expectancy_bt_OFFLINE,2022.2.4,59.84379787286431,
0,0,0,1,0,0,1,0,star,hexagon,1,0,1,0,1,3,15,11,,,,,,,,217.86293601200032,217.86293601200032,217.86293601200032,217.86293601200032,217.86293601200032,217.86293601200032,217.86293601200032,217.86293601200032,217.86293601200032,217.86293601200032,l,0.44394458399983705,1,316,1,218.33008894700015,219.83178165500067,,,39022,2022-10-25_10h16.01.156,vts_reward_expectancy_bt_OFFLINE,2022.2.4,59.84379787286431,
0,1,0,0,0,0,0,1,circle,star,1,0,1,0,1,4,16,5,,,,,,,,220.33231305900063,220.33231305900063,220.33231305900063,220.33231305900063,220.33231305900063,220.33231305900063,220.33231305900063,220.33231305900063,220.33231305900063,220.33231305900063,l,0.4066905229992699,10,326,1,220.76613508600076,222.26762715899986,,,39022,2022-10-25_10h16.01.156,vts_reward_expectancy_bt_OFFLINE,2022.2.4,59.84379787286431,
0,0,1,0,0,0,0,1,hexagon,star,1,0,1,0,1,5,17,8,,,,,,,,222.76823207500001,222.76823207500001,222.76823207500001,222.76823207500001,222.76823207500001,222.76823207500001,222.76823207500001,222.76823207500001,222.76823207500001,222.76823207500001,l,0.4104683199993815,10,336,1,223.20202820900067,224.70371016100034,,,39022,2022-10-25_10h16.01.156,vts_reward_expectancy_bt_OFFLINE,2022.2.4,59.84379787286431,
0,0,0,1,0,1,0,0,star ,circle,1,0,1,0,1,6,18,10,,,,,,,,225.20457031800015,225.20457031800015,225.20457031800015,225.20457031800015,225.20457031800015,225.20457031800015,225.20457031800015,225.20457031800015,225.20457031800015,225.20457031800015,l,0.7838593739998032,1,337,1,226.00537192499996,227.50695821099998,,,39022,2022-10-25_10h16.01.156,vts_reward_expectancy_bt_OFFLINE,2022.2.4,59.84379787286431,
1,0,0,0,0,0,1,0,triangle,hexagon,1,0,1,0,1,7,19,1,,,,,,,,228.00750687800064,228.00750687800064,228.00750687800064,228.00750687800064,228.00750687800064,228.00750687800064,228.00750687800064,228.00750687800064,228.00750687800064,228.00750687800064,a,0.3874724150000475,1,338,1,228.42447274200003,229.92632852099996,,,39022,2022-10-25_10h16.01.156,vts_reward_expectancy_bt_OFFLINE,2022.2.4,59.84379787286431,
1,0,0,0,0,0,0,1,triangle,star,1,0,1,0,1,8,20,2,,,,,,,,230.42670896100026,230.42670896100026,230.42670896100026,230.42670896100026,230.42670896100026,230.42670896100026,230.42670896100026,230.42670896100026,230.42670896100026,230.42670896100026,l,0.4490780289997929,10,348,1,230.89396041800046,232.3957547959999,,,39022,2022-10-25_10h16.01.156,vts_reward_expectancy_bt_OFFLINE,2022.2.4,59.84379787286431,
0,1,0,0,0,0,1,0,circle,hexagon,1,0,1,0,1,9,21,4,,,,,,,,232.89624722900044,232.89624722900044,232.89624722900044,232.89624722900044,232.89624722900044,232.89624722900044,232.89624722900044,232.89624722900044,232.89624722900044,232.89624722900044,l,0.40277903099922696,1,349,1,233.33003726900006,234.83160685000075,,,39022,2022-10-25_10h16.01.156,vts_reward_expectancy_bt_OFFLINE,2022.2.4,59.84379787286431,
0,0,0,1,1,0,0,0,star,triangle,1,0,1,0,1,10,22,9,,,,,,,,235.33217196600071,235.33217196600071,235.33217196600071,235.33217196600071,235.33217196600071,235.33217196600071,235.33217196600071,235.33217196600071,235.33217196600071,235.33217196600071,a,0.3113670689999708,1,350,1,235.66593243900024,237.1676035850005,,,39022,2022-10-25_10h16.01.156,vts_reward_expectancy_bt_OFFLINE,2022.2.4,59.84379787286431,
1,0,0,0,0,1,0,0,triangle,circle,1,0,1,0,1,11,23,0,,,,,,,,237.66814080900076,237.66814080900076,237.66814080900076,237.66814080900076,237.66814080900076,237.66814080900076,237.66814080900076,237.66814080900076,237.66814080900076,237.66814080900076,l,0.30206574099975114,10,360,1,238.00176042400017,239.50336651599991,,,39022,2022-10-25_10h16.01.156,vts_reward_expectancy_bt_OFFLINE,2022.2.4,59.84379787286431,
0,1,0,0,0,0,1,0,circle,hexagon,1,0,1,0,2,0,24,4,,,,,,,,240.00400980700033,240.00400980700033,240.00400980700033,240.00400980700033,240.00400980700033,240.00400980700033,240.00400980700033,240.00400980700033,240.00400980700033,240.00400980700033,l,0.35136216999944736,1,361,1,240.38786131899997,241.88947256700067,,,39022,2022-10-25_10h16.01.156,vts_reward_expectancy_bt_OFFLINE,2022.2.4,59.84379787286431,
1,0,0,0,0,0,1,0,triangle,hexagon,1,0,1,0,2,1,25,1,,,,,,,,242.39001708500018,242.39001708500018,242.39001708500018,242.39001708500018,242.39001708500018,242.39001708500018,242.39001708500018,242.39001708500018,242.39001708500018,242.39001708500018,a,0.15041320499949506,10,371,1,242.55714485299995,244.05868529600048,,,39022,2022-10-25_10h16.01.156,vts_reward_expectancy_bt_OFFLINE,2022.2.4,59.84379787286431,
0,0,1,0,1,0,0,0,hexagon,triangle,1,0,1,0,2,2,26,6,,,,,,,,244.55941469500067,244.55941469500067,244.55941469500067,244.55941469500067,244.55941469500067,244.55941469500067,244.55941469500067,244.55941469500067,244.55941469500067,244.55941469500067,l,0.3167192589990009,10,381,1,244.89280105500075,246.39439246600068,,,39022,2022-10-25_10h16.01.156,vts_reward_expectancy_bt_OFFLINE,2022.2.4,59.84379787286431,
1,0,0,0,0,0,0,1,triangle,star,1,0,1,0,2,3,27,2,,,,,,,,246.89503742099987,246.89503742099987,246.89503742099987,246.89503742099987,246.89503742099987,246.89503742099987,246.89503742099987,246.89503742099987,246.89503742099987,246.89503742099987,a,0.3565418829994087,1,382,1,247.27890600000046,248.78033829200012,,,39022,2022-10-25_10h16.01.156,vts_reward_expectancy_bt_OFFLINE,2022.2.4,59.84379787286431,
0,1,0,0,1,0,0,0,circle,triangle,1,0,1,0,2,4,28,3,,,,,,,,249.280981549,249.280981549,249.280981549,249.280981549,249.280981549,249.280981549,249.280981549,249.280981549,249.280981549,249.280981549,l,0.5227309229994717,1,383,1,249.8314965670006,251.3334146090001,,,39022,2022-10-25_10h16.01.156,vts_reward_expectancy_bt_OFFLINE,2022.2.4,59.84379787286431,
1,0,0,0,0,1,0,0,triangle,circle,1,0,1,0,2,5,29,0,,,,,,,,251.83380798500002,251.83380798500002,251.83380798500002,251.83380798500002,251.83380798500002,251.83380798500002,251.83380798500002,251.83380798500002,251.83380798500002,251.83380798500002,a,0.2976883489991451,1,384,1,252.1508808890003,253.65244549100044,,,39022,2022-10-25_10h16.01.156,vts_reward_expectancy_bt_OFFLINE,2022.2.4,59.84379787286431,
0,0,1,0,0,0,0,1,hexagon,star,1,0,1,0,2,6,30,8,,,,,,,,254.15300901499995,254.15300901499995,254.15300901499995,254.15300901499995,254.15300901499995,254.15300901499995,254.15300901499995,254.15300901499995,254.15300901499995,254.15300901499995,l,0.29013018799923884,1,385,1,254.47016335800072,255.97157137900012,,,39022,2022-10-25_10h16.01.156,vts_reward_expectancy_bt_OFFLINE,2022.2.4,59.84379787286431,
0,0,0,1,0,0,1,0,star,hexagon,1,0,1,0,2,7,31,11,,,,,,,,256.4722011070007,256.4722011070007,256.4722011070007,256.4722011070007,256.4722011070007,256.4722011070007,256.4722011070007,256.4722011070007,256.4722011070007,256.4722011070007,a,0.33089651399950526,1,386,1,256.822585637,258.32419709700025,,,39022,2022-10-25_10h16.01.156,vts_reward_expectancy_bt_OFFLINE,2022.2.4,59.84379787286431,
0,1,0,0,0,0,0,1,circle,star,1,0,1,0,2,8,32,5,,,,,,,,258.8248081360007,258.8248081360007,258.8248081360007,258.8248081360007,258.8248081360007,258.8248081360007,258.8248081360007,258.8248081360007,258.8248081360007,258.8248081360007,l,0.5615248419990166,1,387,1,259.40893030200004,260.91038364700034,,,39022,2022-10-25_10h16.01.156,vts_reward_expectancy_bt_OFFLINE,2022.2.4,59.84379787286431,
0,0,1,0,0,1,0,0,hexagon,circle,1,0,1,0,2,9,33,7,,,,,,,,261.41103159400063,261.41103159400063,261.41103159400063,261.41103159400063,261.41103159400063,261.41103159400063,261.41103159400063,261.41103159400063,261.41103159400063,261.41103159400063,l,0.33607496799959335,10,397,1,261.77842387000055,263.27969069200026,,,39022,2022-10-25_10h16.01.156,vts_reward_expectancy_bt_OFFLINE,2022.2.4,59.84379787286431,
0,0,0,1,1,0,0,0,star,triangle,1,0,1,0,2,10,34,9,,,,,,,,263.7802523139999,263.7802523139999,263.7802523139999,263.7802523139999,263.7802523139999,263.7802523139999,263.7802523139999,263.7802523139999,263.7802523139999,263.7802523139999,l,0.44012191699948744,10,407,1,264.24763126000016,265.7491280690001,,,39022,2022-10-25_10h16.01.156,vts_reward_expectancy_bt_OFFLINE,2022.2.4,59.84379787286431,
0,0,0,1,0,1,0,0,star ,circle,1,0,1,0,2,11,35,10,,,,,,,,266.2497540029999,266.2497540029999,266.2497540029999,266.2497540029999,266.2497540029999,266.2497540029999,266.2497540029999,266.2497540029999,266.2497540029999,266.2497540029999,l,0.28922540999883495,1,408,1,266.56673733800017,268.06843661900075,,,39022,2022-10-25_10h16.01.156,vts_reward_expectancy_bt_OFFLINE,2022.2.4,59.84379787286431,
0,0,1,0,0,0,0,1,hexagon,star,1,0,1,0,3,0,36,8,,,,,,,,268.568869148,268.568869148,268.568869148,268.568869148,268.568869148,268.568869148,268.568869148,268.568869148,268.568869148,268.568869148,a,0.49817417499889416,10,418,1,269.0861206260006,270.5877847900001,,,39022,2022-10-25_10h16.01.156,vts_reward_expectancy_bt_OFFLINE,2022.2.4,59.84379787286431,
0,1,0,0,0,0,1,0,circle,hexagon,1,0,1,0,3,1,37,4,,,,,,,,271.0885722440007,271.0885722440007,271.0885722440007,271.0885722440007,271.0885722440007,271.0885722440007,271.0885722440007,271.0885722440007,271.0885722440007,271.0885722440007,a,0.4259266249991924,10,428,1,271.5388368650001,273.0404820849999,,,39022,2022-10-25_10h16.01.156,vts_reward_expectancy_bt_OFFLINE,2022.2.4,59.84379787286431,
0,0,0,1,0,0,1,0,star,hexagon,1,0,1,0,3,2,38,11,,,,,,,,273.5411791760007,273.5411791760007,273.5411791760007,273.5411791760007,273.5411791760007,273.5411791760007,273.5411791760007,273.5411791760007,273.5411791760007,273.5411791760007,a,0.35748752699964825,10,438,1,273.9249756400004,275.4266371290005,,,39022,2022-10-25_10h16.01.156,vts_reward_expectancy_bt_OFFLINE,2022.2.4,59.84379787286431,
0,0,1,0,1,0,0,0,hexagon,triangle,1,0,1,0,3,3,39,6,,,,,,,,275.92702640800053,275.92702640800053,275.92702640800053,275.92702640800053,275.92702640800053,275.92702640800053,275.92702640800053,275.92702640800053,275.92702640800053,275.92702640800053,l,0.3331445129997519,1,439,1,276.277446006,277.7791361240006,,,39022,2022-10-25_10h16.01.156,vts_reward_expectancy_bt_OFFLINE,2022.2.4,59.84379787286431,
0,1,0,0,0,0,0,1,circle,star,1,0,1,0,3,4,40,5,,,,,,,,278.2798253560004,278.2798253560004,278.2798253560004,278.2798253560004,278.2798253560004,278.2798253560004,278.2798253560004,278.2798253560004,278.2798253560004,278.2798253560004,a,0.37181574900023406,10,449,1,278.67887178900037,280.1816878180007,,,39022,2022-10-25_10h16.01.156,vts_reward_expectancy_bt_OFFLINE,2022.2.4,59.84379787286431,
0,0,0,1,1,0,0,0,star,triangle,1,0,1,0,3,5,41,9,,,,,,,,280.68231439900046,280.68231439900046,280.68231439900046,280.68231439900046,280.68231439900046,280.68231439900046,280.68231439900046,280.68231439900046,280.68231439900046,280.68231439900046,a,0.34449273999962315,10,459,1,281.0493429450007,282.5509431549999,,,39022,2022-10-25_10h16.01.156,vts_reward_expectancy_bt_OFFLINE,2022.2.4,59.84379787286431,
1,0,0,0,0,0,0,1,triangle,star,1,0,1,0,3,6,42,2,,,,,,,,283.05147072399996,283.05147072399996,283.05147072399996,283.05147072399996,283.05147072399996,283.05147072399996,283.05147072399996,283.05147072399996,283.05147072399996,283.05147072399996,a,0.28000857299957715,10,469,1,283.3520016900002,284.8534173570006,,,39022,2022-10-25_10h16.01.156,vts_reward_expectancy_bt_OFFLINE,2022.2.4,59.84379787286431,
0,0,0,1,0,1,0,0,star ,circle,1,0,1,0,3,7,43,10,,,,,,,,285.35408898100013,285.35408898100013,285.35408898100013,285.35408898100013,285.35408898100013,285.35408898100013,285.35408898100013,285.35408898100013,285.35408898100013,285.35408898100013,l,0.3205679789998612,1,470,1,285.70446813500075,287.2061064030004,,,39022,2022-10-25_10h16.01.156,vts_reward_expectancy_bt_OFFLINE,2022.2.4,59.84379787286431,
1,0,0,0,0,1,0,0,triangle,circle,1,0,1,0,3,8,44,0,,,,,,,,287.70670277800036,287.70670277800036,287.70670277800036,287.70670277800036,287.70670277800036,287.70670277800036,287.70670277800036,287.70670277800036,287.70670277800036,287.70670277800036,a,0.3605741539986411,10,480,1,288.09052475800036,289.5919271980001,,,39022,2022-10-25_10h16.01.156,vts_reward_expectancy_bt_OFFLINE,2022.2.4,59.84379787286431,
0,0,1,0,0,1,0,0,hexagon,circle,1,0,1,0,3,9,45,7,,,,,,,,290.09280024300006,290.09280024300006,290.09280024300006,290.09280024300006,290.09280024300006,290.09280024300006,290.09280024300006,290.09280024300006,290.09280024300006,290.09280024300006,a,0.32603203799953917,1,481,1,290.44331513199995,291.9447178350001,,,39022,2022-10-25_10h16.01.156,vts_reward_expectancy_bt_OFFLINE,2022.2.4,59.84379787286431,
1,0,0,0,0,0,1,0,triangle,hexagon,1,0,1,0,3,10,46,1,,,,,,,,292.44528587400055,292.44528587400055,292.44528587400055,292.44528587400055,292.44528587400055,292.44528587400055,292.44528587400055,292.44528587400055,292.44528587400055,292.44528587400055,l,0.30924044199946366,1,482,1,292.7789186630007,294.28077442799986,,,39022,2022-10-25_10h16.01.156,vts_reward_expectancy_bt_OFFLINE,2022.2.4,59.84379787286431,
0,1,0,0,1,0,0,0,circle,triangle,1,0,1,0,3,11,47,3,,,,,,,,294.78118389300016,294.78118389300016,294.78118389300016,294.78118389300016,294.78118389300016,294.78118389300016,294.78118389300016,294.78118389300016,294.78118389300016,294.78118389300016,a,0.4384978219995901,1,483,1,295.2484772779999,296.74997839800017,,,39022,2022-10-25_10h16.01.156,vts_reward_expectancy_bt_OFFLINE,2022.2.4,59.84379787286431,
1,0,0,0,0,0,0,1,triangle,star,2,0,2,0,0,0,0,2,,,,,,,,299.43927261800036,299.43927261800036,299.43927261800036,299.43927261800036,299.43927261800036,299.43927261800036,299.43927261800036,299.43927261800036,299.43927261800036,299.43927261800036,l,0.8116484829997717,10,493,2,300.2707037760001,301.77209863400003,,,39022,2022-10-25_10h16.01.156,vts_reward_expectancy_bt_OFFLINE,2022.2.4,59.84379787286431,
1,0,0,0,0,0,1,0,triangle,hexagon,2,0,2,0,0,1,1,1,,,,,,,,302.2727751400007,302.2727751400007,302.2727751400007,302.2727751400007,302.2727751400007,302.2727751400007,302.2727751400007,302.2727751400007,302.2727751400007,302.2727751400007,l,0.7464431859989418,1,494,2,303.04021642800035,304.5419480110004,,,39022,2022-10-25_10h16.01.156,vts_reward_expectancy_bt_OFFLINE,2022.2.4,59.84379787286431,
0,1,0,0,0,0,1,0,circle,hexagon,2,0,2,0,0,2,2,4,,,,,,,,305.0425520080007,305.0425520080007,305.0425520080007,305.0425520080007,305.0425520080007,305.0425520080007,305.0425520080007,305.0425520080007,305.0425520080007,305.0425520080007,a,0.575833311999304,1,495,2,305.64317324900003,307.1446977000005,,,39022,2022-10-25_10h16.01.156,vts_reward_expectancy_bt_OFFLINE,2022.2.4,59.84379787286431,
0,0,0,1,0,1,0,0,star ,circle,2,0,2,0,0,3,3,10,,,,,,,,307.6452915150003,307.6452915150003,307.6452915150003,307.6452915150003,307.6452915150003,307.6452915150003,307.6452915150003,307.6452915150003,307.6452915150003,307.6452915150003,a,0.5260581699994873,1,496,2,308.1959522060006,309.69759830300063,,,39022,2022-10-25_10h16.01.156,vts_reward_expectancy_bt_OFFLINE,2022.2.4,59.84379787286431,
0,0,0,1,1,0,0,0,star,triangle,2,0,2,0,0,4,4,9,,,,,,,,310.1982273100002,310.1982273100002,310.1982273100002,310.1982273100002,310.1982273100002,310.1982273100002,310.1982273100002,310.1982273100002,310.1982273100002,310.1982273100002,a,0.8445324029999028,10,506,2,311.06589006300055,312.5674369340004,,,39022,2022-10-25_10h16.01.156,vts_reward_expectancy_bt_OFFLINE,2022.2.4,59.84379787286431,
0,0,1,0,0,1,0,0,hexagon,circle,2,0,2,0,0,5,5,7,,,,,,,,313.0678254100003,313.0678254100003,313.0678254100003,313.0678254100003,313.0678254100003,313.0678254100003,313.0678254100003,313.0678254100003,313.0678254100003,313.0678254100003,l,0.8867279269989012,10,516,2,313.9856177270003,315.48727683200013,,,39022,2022-10-25_10h16.01.156,vts_reward_expectancy_bt_OFFLINE,2022.2.4,59.84379787286431,
1,0,0,0,0,1,0,0,triangle,circle,2,0,2,0,0,6,6,0,,,,,,,,315.9879964030006,315.9879964030006,315.9879964030006,315.9879964030006,315.9879964030006,315.9879964030006,315.9879964030006,315.9879964030006,315.9879964030006,315.9879964030006,l,0.5842591350001385,10,526,2,316.5886329390005,318.09036078900044,,,39022,2022-10-25_10h16.01.156,vts_reward_expectancy_bt_OFFLINE,2022.2.4,59.84379787286431,
0,0,1,0,0,0,0,1,hexagon,star,2,0,2,0,0,7,7,8,,,,,,,,318.59066917700056,318.59066917700056,318.59066917700056,318.59066917700056,318.59066917700056,318.59066917700056,318.59066917700056,318.59066917700056,318.59066917700056,318.59066917700056,l,1.0852510829990933,10,536,2,319.692327967,321.1937175740004,,,39022,2022-10-25_10h16.01.156,vts_reward_expectancy_bt_OFFLINE,2022.2.4,59.84379787286431,
0,1,0,0,0,0,0,1,circle,star,2,0,2,0,0,8,8,5,,,,,,,,321.6940523890007,321.6940523890007,321.6940523890007,321.6940523890007,321.6940523890007,321.6940523890007,321.6940523890007,321.6940523890007,321.6940523890007,321.6940523890007,a,0.5407110549995195,1,537,2,322.2616542330006,323.7630203859999,,,39022,2022-10-25_10h16.01.156,vts_reward_expectancy_bt_OFFLINE,2022.2.4,59.84379787286431,
0,0,0,1,0,0,1,0,star,hexagon,2,0,2,0,0,9,9,11,,,,,,,,324.26363093300006,324.26363093300006,324.26363093300006,324.26363093300006,324.26363093300006,324.26363093300006,324.26363093300006,324.26363093300006,324.26363093300006,324.26363093300006,a,0.7473005129986632,1,538,2,325.03111964800064,326.53280528899995,,,39022,2022-10-25_10h16.01.156,vts_reward_expectancy_bt_OFFLINE,2022.2.4,59.84379787286431,
0,0,1,0,1,0,0,0,hexagon,triangle,2,0,2,0,0,10,10,6,,,,,,,,327.03319809500044,327.03319809500044,327.03319809500044,327.03319809500044,327.03319809500044,327.03319809500044,327.03319809500044,327.03319809500044,327.03319809500044,327.03319809500044,a,0.8981562839990147,1,539,2,327.95096829200065,329.45264438400045,,,39022,2022-10-25_10h16.01.156,vts_reward_expectancy_bt_OFFLINE,2022.2.4,59.84379787286431,
0,1,0,0,1,0,0,0,circle,triangle,2,0,2,0,0,11,11,3,,,,,,,,329.9531354380006,329.9531354380006,329.9531354380006,329.9531354380006,329.9531354380006,329.9531354380006,329.9531354380006,329.9531354380006,329.9531354380006,329.9531354380006,a,0.9140883519994532,10,549,2,330.88793088500006,332.38927709900054,,,39022,2022-10-25_10h16.01.156,vts_reward_expectancy_bt_OFFLINE,2022.2.4,59.84379787286431,
0,0,1,0,0,0,0,1,hexagon,star,2,0,2,0,1,0,12,8,,,,,,,,332.8898587150006,332.8898587150006,332.8898587150006,332.8898587150006,332.8898587150006,332.8898587150006,332.8898587150006,332.8898587150006,332.8898587150006,332.8898587150006,l,1.2574014329993588,10,559,2,334.1745964290003,335.67646159000014,,,39022,2022-10-25_10h16.01.156,vts_reward_expectancy_bt_OFFLINE,2022.2.4,59.84379787286431,
0,0,1,0,0,1,0,0,hexagon,circle,2,0,2,0,1,1,13,7,,,,,,,,336.1768246800002,336.1768246800002,336.1768246800002,336.1768246800002,336.1768246800002,336.1768246800002,336.1768246800002,336.1768246800002,336.1768246800002,336.1768246800002,l,0.6353065510002125,1,560,2,336.84419378200073,338.3458336800004,,,39022,2022-10-25_10h16.01.156,vts_reward_expectancy_bt_OFFLINE,2022.2.4,59.84379787286431,
0,1,0,0,0,0,0,1,circle,star,2,0,2,0,1,2,14,5,,,,,,,,338.84522360900064,338.84522360900064,338.84522360900064,338.84522360900064,338.84522360900064,338.84522360900064,338.84522360900064,338.84522360900064,338.84522360900064,338.84522360900064,l,0.8702094779991967,10,570,2,339.74735070800034,341.24896670700036,,,39022,2022-10-25_10h16.01.156,vts_reward_expectancy_bt_OFFLINE,2022.2.4,59.84379787286431,
0,0,0,1,1,0,0,0,star,triangle,2,0,2,0,1,3,15,9,,,,,,,,341.74956173600003,341.74956173600003,341.74956173600003,341.74956173600003,341.74956173600003,341.74956173600003,341.74956173600003,341.74956173600003,341.74956173600003,341.74956173600003,a,1.2608136149992788,10,580,2,343.0343398260002,344.53443684600006,344.53443684600006,345.03491236600075,39022,2022-10-25_10h16.01.156,vts_reward_expectancy_bt_OFFLINE,2022.2.4,59.84379787286431,
1,0,0,0,0,1,0,0,triangle,circle,2,0,2,0,1,4,16,0,,,,,,,,345.03491236600075,345.03491236600075,345.03491236600075,345.03491236600075,345.03491236600075,345.03491236600075,345.03491236600075,345.03491236600075,345.03491236600075,345.03491236600075,l,1.1277751819989135,10,590,2,346.18784796399996,347.68943332300023,,,39022,2022-10-25_10h16.01.156,vts_reward_expectancy_bt_OFFLINE,2022.2.4,59.84379787286431,
0,0,0,1,0,1,0,0,star ,circle,2,0,2,0,1,5,17,10,,,,,,,,348.18996868400063,348.18996868400063,348.18996868400063,348.18996868400063,348.18996868400063,348.18996868400063,348.18996868400063,348.18996868400063,348.18996868400063,348.18996868400063,l,0.7412866729991947,10,600,2,348.9576079940007,350.4593895480002,,,39022,2022-10-25_10h16.01.156,vts_reward_expectancy_bt_OFFLINE,2022.2.4,59.84379787286431,
0,1,0,0,1,0,0,0,circle,triangle,2,0,2,0,1,6,18,3,,,,,,,,350.95982481400006,350.95982481400006,350.95982481400006,350.95982481400006,350.95982481400006,350.95982481400006,350.95982481400006,350.95982481400006,350.95982481400006,350.95982481400006,a,0.5952864999999292,10,610,2,351.57714649900026,353.0787762079999,,,39022,2022-10-25_10h16.01.156,vts_reward_expectancy_bt_OFFLINE,2022.2.4,59.84379787286431,
0,0,1,0,1,0,0,0,hexagon,triangle,2,0,2,0,1,7,19,6,,,,,,,,353.57924460400045,353.57924460400045,353.57924460400045,353.57924460400045,353.57924460400045,353.57924460400045,353.57924460400045,353.57924460400045,353.57924460400045,353.57924460400045,a,1.495251384999392,10,620,2,355.09783094200066,356.5992993540003,,,39022,2022-10-25_10h16.01.156,vts_reward_expectancy_bt_OFFLINE,2022.2.4,59.84379787286431,
1,0,0,0,0,0,0,1,triangle,star,2,0,2,0,1,8,20,2,,,,,,,,357.0999338540005,357.0999338540005,357.0999338540005,357.0999338540005,357.0999338540005,357.0999338540005,357.0999338540005,357.0999338540005,357.0999338540005,357.0999338540005,l,0.768178536999585,1,621,2,357.900718975,359.4025443770006,,,39022,2022-10-25_10h16.01.156,vts_reward_expectancy_bt_OFFLINE,2022.2.4,59.84379787286431,
0,0,0,1,0,0,1,0,star,hexagon,2,0,2,0,1,9,21,11,,,,,,,,359.903064178,359.903064178,359.903064178,359.903064178,359.903064178,359.903064178,359.903064178,359.903064178,359.903064178,359.903064178,a,0.8116276069995365,10,631,2,360.73717613700046,362.23886403600045,,,39022,2022-10-25_10h16.01.156,vts_reward_expectancy_bt_OFFLINE,2022.2.4,59.84379787286431,
0,1,0,0,0,0,1,0,circle,hexagon,2,0,2,0,1,10,22,4,,,,,,,,362.73936486799994,362.73936486799994,362.73936486799994,362.73936486799994,362.73936486799994,362.73936486799994,362.73936486799994,362.73936486799994,362.73936486799994,362.73936486799994,a,0.702790928999093,10,641,2,363.4734998110007,364.9751640450004,,,39022,2022-10-25_10h16.01.156,vts_reward_expectancy_bt_OFFLINE,2022.2.4,59.84379787286431,
1,0,0,0,0,0,1,0,triangle,hexagon,2,0,2,0,1,11,23,1,,,,,,,,365.4759874070005,365.4759874070005,365.4759874070005,365.4759874070005,365.4759874070005,365.4759874070005,365.4759874070005,365.4759874070005,365.4759874070005,365.4759874070005,a,1.9688646519998656,10,651,2,367.4612241920004,368.96286140200027,,,39022,2022-10-25_10h16.01.156,vts_reward_expectancy_bt_OFFLINE,2022.2.4,59.84379787286431,
0,0,1,0,0,0,0,1,hexagon,star,2,0,2,0,2,0,24,8,,,,,,,,369.4634748040007,369.4634748040007,369.4634748040007,369.4634748040007,369.4634748040007,369.4634748040007,369.4634748040007,369.4634748040007,369.4634748040007,369.4634748040007,a,1.5479494309993242,10,661,2,371.03192537799987,372.5334653509999,,,39022,2022-10-25_10h16.01.156,vts_reward_expectancy_bt_OFFLINE,2022.2.4,59.84379787286431,
1,0,0,0,0,0,0,1,triangle,star,2,0,2,0,2,1,25,2,,,,,,,,373.0341967459999,373.0341967459999,373.0341967459999,373.0341967459999,373.0341967459999,373.0341967459999,373.0341967459999,373.0341967459999,373.0341967459999,373.0341967459999,l,1.0084503239995684,10,671,2,374.06854867400034,375.5703003859999,,,39022,2022-10-25_10h16.01.156,vts_reward_expectancy_bt_OFFLINE,2022.2.4,59.84379787286431,
0,0,0,1,0,1,0,0,star ,circle,2,0,2,0,2,2,26,10,,,,,,,,376.07080699700055,376.07080699700055,376.07080699700055,376.07080699700055,376.07080699700055,376.07080699700055,376.07080699700055,376.07080699700055,376.07080699700055,376.07080699700055,a,1.0118424569991475,10,681,2,377.1054331260002,378.60699527700035,,,39022,2022-10-25_10h16.01.156,vts_reward_expectancy_bt_OFFLINE,2022.2.4,59.84379787286431,
0,0,1,0,1,0,0,0,hexagon,triangle,2,0,2,0,2,3,27,6,,,,,,,,379.1074777550002,379.1074777550002,379.1074777550002,379.1074777550002,379.1074777550002,379.1074777550002,379.1074777550002,379.1074777550002,379.1074777550002,379.1074777550002,a,1.591642370000045,1,682,2,380.72586407200015,382.22748117800074,,,39022,2022-10-25_10h16.01.156,vts_reward_expectancy_bt_OFFLINE,2022.2.4,59.84379787286431,
0,1,0,0,1,0,0,0,circle,triangle,2,0,2,0,2,4,28,3,,,,,,,,382.72806339,382.72806339,382.72806339,382.72806339,382.72806339,382.72806339,382.72806339,382.72806339,382.72806339,382.72806339,a,0.9150930919995517,1,683,2,383.66236165100054,385.16420321200076,,,39022,2022-10-25_10h16.01.156,vts_reward_expectancy_bt_OFFLINE,2022.2.4,59.84379787286431,
0,0,0,1,1,0,0,0,star,triangle,2,0,2,0,2,5,29,9,,,,,,,,385.6649054110003,385.6649054110003,385.6649054110003,385.6649054110003,385.6649054110003,385.6649054110003,385.6649054110003,385.6649054110003,385.6649054110003,385.6649054110003,a,1.2350778949994492,10,693,2,386.91629028600073,388.417748459,388.417748459,,39022,2022-10-25_10h16.01.156,vts_reward_expectancy_bt_OFFLINE,2022.2.4,59.84379787286431,
0,0,1,0,0,1,0,0,hexagon,circle,2,0,2,0,2,6,30,7,,,,,,,,388.9185008660006,388.9185008660006,388.9185008660006,388.9185008660006,388.9185008660006,388.9185008660006,388.9185008660006,388.9185008660006,388.9185008660006,388.9185008660006,l,0.9733743359993241,1,694,2,389.91936076,391.4210212090002,,,39022,2022-10-25_10h16.01.156,vts_reward_expectancy_bt_OFFLINE,2022.2.4,59.84379787286431,
0,1,0,0,0,0,0,1,circle,star,2,0,2,0,2,7,31,5,,,,,,,,391.9214037920001,391.9214037920001,391.9214037920001,391.9214037920001,391.9214037920001,391.9214037920001,391.9214037920001,391.9214037920001,391.9214037920001,391.9214037920001,a,0.8096078580001631,1,695,2,392.75573080200047,394.2574282270007,,,39022,2022-10-25_10h16.01.156,vts_reward_expectancy_bt_OFFLINE,2022.2.4,59.84379787286431,
1,0,0,0,0,0,1,0,triangle,hexagon,2,0,2,0,2,8,32,1,,,,,,,,394.75804674700066,394.75804674700066,394.75804674700066,394.75804674700066,394.75804674700066,394.75804674700066,394.75804674700066,394.75804674700066,394.75804674700066,394.75804674700066,l,1.2284993799994481,1,696,2,396.00952715699987,397.5111071900001,,,39022,2022-10-25_10h16.01.156,vts_reward_expectancy_bt_OFFLINE,2022.2.4,59.84379787286431,
0,1,0,0,0,0,1,0,circle,hexagon,2,0,2,0,2,9,33,4,,,,,,,,398.01181602199995,398.01181602199995,398.01181602199995,398.01181602199995,398.01181602199995,398.01181602199995,398.01181602199995,398.01181602199995,398.01181602199995,398.01181602199995,a,0.5589338989993848,10,706,2,398.59580896100033,400.0973647990004,,,39022,2022-10-25_10h16.01.156,vts_reward_expectancy_bt_OFFLINE,2022.2.4,59.84379787286431,
1,0,0,0,0,1,0,0,triangle,circle,2,0,2,0,2,10,34,0,,,,,,,,400.5979899210006,400.5979899210006,400.5979899210006,400.5979899210006,400.5979899210006,400.5979899210006,400.5979899210006,400.5979899210006,400.5979899210006,400.5979899210006,l,0.877097921999848,10,716,2,401.49893651300044,403.00049012,,,39022,2022-10-25_10h16.01.156,vts_reward_expectancy_bt_OFFLINE,2022.2.4,59.84379787286431,
0,0,0,1,0,0,1,0,star,hexagon,2,0,2,0,2,11,35,11,,,,,,,,403.501073765,403.501073765,403.501073765,403.501073765,403.501073765,403.501073765,403.501073765,403.501073765,403.501073765,403.501073765,a,1.270253646999663,10,726,2,404.80242813099994,406.3041829670001,,,39022,2022-10-25_10h16.01.156,vts_reward_expectancy_bt_OFFLINE,2022.2.4,59.84379787286431,
0,0,0,1,1,0,0,0,star,triangle,2,0,2,0,3,0,36,9,,,,,,,,406.80493662000026,406.80493662000026,406.80493662000026,406.80493662000026,406.80493662000026,406.80493662000026,406.80493662000026,406.80493662000026,406.80493662000026,406.80493662000026,a,0.49363452099987626,1,727,2,407.3219806269999,408.8236541080005,,,39022,2022-10-25_10h16.01.156,vts_reward_expectancy_bt_OFFLINE,2022.2.4,59.84379787286431,
0,1,0,0,0,0,1,0,circle,hexagon,2,0,2,0,3,1,37,4,,,,,,,,409.32436018299995,409.32436018299995,409.32436018299995,409.32436018299995,409.32436018299995,409.32436018299995,409.32436018299995,409.32436018299995,409.32436018299995,409.32436018299995,a,0.8863078240001414,10,737,2,410.24203690000013,411.743516558,,,39022,2022-10-25_10h16.01.156,vts_reward_expectancy_bt_OFFLINE,2022.2.4,59.84379787286431,
0,0,0,1,0,0,1,0,star,hexagon,2,0,2,0,3,2,38,11,,,,,,,,412.244015065,412.244015065,412.244015065,412.244015065,412.244015065,412.244015065,412.244015065,412.244015065,412.244015065,412.244015065,a,0.6631780449997677,1,738,2,412.9282268980005,414.42979618500067,,,39022,2022-10-25_10h16.01.156,vts_reward_expectancy_bt_OFFLINE,2022.2.4,59.84379787286431,
1,0,0,0,0,1,0,0,triangle,circle,2,0,2,0,3,3,39,0,,,,,,,,414.93047728200054,414.93047728200054,414.93047728200054,414.93047728200054,414.93047728200054,414.93047728200054,414.93047728200054,414.93047728200054,414.93047728200054,414.93047728200054,l,0.5286163979999401,1,739,2,415.48105451599986,416.98274901900004,,,39022,2022-10-25_10h16.01.156,vts_reward_expectancy_bt_OFFLINE,2022.2.4,59.84379787286431,
1,0,0,0,0,0,0,1,triangle,star,2,0,2,0,3,4,40,2,,,,,,,,417.4831895060006,417.4831895060006,417.4831895060006,417.4831895060006,417.4831895060006,417.4831895060006,417.4831895060006,417.4831895060006,417.4831895060006,417.4831895060006,l,0.6952861079998911,10,749,2,418.20097141600036,419.70240212800036,,,39022,2022-10-25_10h16.01.156,vts_reward_expectancy_bt_OFFLINE,2022.2.4,59.84379787286431,
0,0,1,0,0,1,0,0,hexagon,circle,2,0,2,0,3,5,41,7,,,,,,,,420.2028306480006,420.2028306480006,420.2028306480006,420.2028306480006,420.2028306480006,420.2028306480006,420.2028306480006,420.2028306480006,420.2028306480006,420.2028306480006,l,0.6234153519999381,1,750,2,420.8535040030001,422.35515506499996,,,39022,2022-10-25_10h16.01.156,vts_reward_expectancy_bt_OFFLINE,2022.2.4,59.84379787286431,
0,0,1,0,0,0,0,1,hexagon,star,2,0,2,0,3,6,42,8,,,,,,,,422.8556383610003,422.8556383610003,422.8556383610003,422.8556383610003,422.8556383610003,422.8556383610003,422.8556383610003,422.8556383610003,422.8556383610003,422.8556383610003,a,0.5238362299996879,1,751,2,423.40632149200064,424.90798150699993,,,39022,2022-10-25_10h16.01.156,vts_reward_expectancy_bt_OFFLINE,2022.2.4,59.84379787286431,
0,1,0,0,1,0,0,0,circle,triangle,2,0,2,0,3,7,43,3,,,,,,,,425.40848556200035,425.40848556200035,425.40848556200035,425.40848556200035,425.40848556200035,425.40848556200035,425.40848556200035,425.40848556200035,425.40848556200035,425.40848556200035,l,1.178283857999304,10,761,2,426.6099422920006,428.11167094900065,,,39022,2022-10-25_10h16.01.156,vts_reward_expectancy_bt_OFFLINE,2022.2.4,59.84379787286431,
0,0,0,1,0,1,0,0,star ,circle,2,0,2,0,3,8,44,10,,,,,,,,428.61228670499986,428.61228670499986,428.61228670499986,428.61228670499986,428.61228670499986,428.61228670499986,428.61228670499986,428.61228670499986,428.61228670499986,428.61228670499986,l,0.5843332789991109,10,771,2,429.21276353900066,430.71433204500045,430.71433204500045,,39022,2022-10-25_10h16.01.156,vts_reward_expectancy_bt_OFFLINE,2022.2.4,59.84379787286431,
0,1,0,0,0,0,0,1,circle,star,2,0,2,0,3,9,45,5,,,,,,,,431.2150405810007,431.2150405810007,431.2150405810007,431.2150405810007,431.2150405810007,431.2150405810007,431.2150405810007,431.2150405810007,431.2150405810007,431.2150405810007,a,0.48446713799967256,1,772,2,431.73202989200036,433.23379596799987,,,39022,2022-10-25_10h16.01.156,vts_reward_expectancy_bt_OFFLINE,2022.2.4,59.84379787286431,
1,0,0,0,0,0,1,0,triangle,hexagon,2,0,2,0,3,10,46,1,,,,,,,,433.73438033300044,433.73438033300044,433.73438033300044,433.73438033300044,433.73438033300044,433.73438033300044,433.73438033300044,433.73438033300044,433.73438033300044,433.73438033300044,l,0.5249807569989571,10,782,2,434.2849891850001,435.78657515600025,,,39022,2022-10-25_10h16.01.156,vts_reward_expectancy_bt_OFFLINE,2022.2.4,59.84379787286431,
0,0,1,0,1,0,0,0,hexagon,triangle,2,0,2,0,3,11,47,6,,,,,,,,436.28723253000044,436.28723253000044,436.28723253000044,436.28723253000044,436.28723253000044,436.28723253000044,436.28723253000044,436.28723253000044,436.28723253000044,436.28723253000044,l,0.7173067419998915,10,792,2,437.0212191720002,438.5229502940001,,,39022,2022-10-25_10h16.01.156,vts_reward_expectancy_bt_OFFLINE,2022.2.4,59.84379787286431,
