LTriangleOpac,LCircleOpac,LHexagonOpac,LStarOpac,RTriangleOpac,RCircleOpac,RHexagonOpac,RStarOpac,LShape_ID,RShape_ID,training_blocks.thisRepN,training_blocks.thisTrialN,training_blocks.thisN,training_blocks.thisIndex,training.thisRepN,training.thisTrialN,training.thisN,training.thisIndex,task1_prac_redo.thisRepN,task1_prac_redo.thisTrialN,task1_prac_redo.thisN,task1_prac_redo.thisIndex,task1_prac_trials.thisRepN,task1_prac_trials.thisTrialN,task1_prac_trials.thisN,task1_prac_trials.thisIndex,task2_prac_redo.thisRepN,task2_prac_redo.thisTrialN,task2_prac_redo.thisN,task2_prac_redo.thisIndex,task2_praac_trials.thisRepN,task2_praac_trials.thisTrialN,task2_praac_trials.thisN,task2_praac_trials.thisIndex,key_resp.started,key_resp.keys,key_resp.rt,left_circle.started,right_circle.started,left_triangle.started,right_triangle.started,left_star.started,right_star.started,left_hexagon.started,right_hexagon.started,training_fix.started,training_resp.started,training_resp.keys,training_resp.rt,points_trial,points_cumul,trainBlock,training_feedback_txt.started,training_feedback_txt.stopped,fix.started,fix.stopped,curr_topStim,curr_bottStim,curr_shape,ISI.started,tgt_fix_prac1.started,top_target_prac1.started,bott_target_prac1.started,target_resp_prac1.started,acc,E1,target_resp_prac1.keys,target_resp_prac1.rt,pracBlock,prac_fback_text.started,prac_fback_text.stopped,tgt_fix_prac2.started,top_target_prac2.started,bott_target_prac2.started,target_resp_prac2.started,top_target_prac2.stopped,bott_target_prac2.stopped,target_resp_prac2.stopped,target_resp_prac2.keys,target_resp_prac2.rt,participant,date,expName,psychopyVersion,frameRate,
,,,,,,,,,,,,,,,,,,,,,,,,,,,,,,,,,,11.108158469200134,space,43.09704314288683,,,,,,,,,,,,,,,,,,,,,,,,,,,,,,,,,,,,,,,,,,,,40408,2022-11-16_10h16.13.931,vts_reward_expectancy_bt_OFFLINE,2022.2.4,60.01775918754871,
1,0,0,0,0,1,0,0,triangle,circle,0,0,0,0,0,0,0,0,,,,,,,,,,,,,,,,,,,,94.33533978508785,94.33533978508785,94.33533978508785,94.33533978508785,94.33533978508785,94.33533978508785,94.33533978508785,94.33533978508785,94.33533978508785,94.33533978508785,l,1.632202603854239,1,1,0,95.99397624400444,97.49368799803779,97.49368799803779,,,,,,,,,,,,,,,,,,,,,,,,,,40408,2022-11-16_10h16.13.931,vts_reward_expectancy_bt_OFFLINE,2022.2.4,60.01775918754871,
1,0,0,0,0,0,0,1,triangle,star,0,0,0,0,0,1,1,2,,,,,,,,,,,,,,,,,,,,97.99376715207472,97.99376715207472,97.99376715207472,97.99376715207472,97.99376715207472,97.99376715207472,97.99376715207472,97.99376715207472,97.99376715207472,97.99376715207472,l,2.564221729990095,10,11,0,100.58087202813476,102.08062038407661,102.08062038407661,102.58061991818249,,,,,,,,,,,,,,,,,,,,,,,,,40408,2022-11-16_10h16.13.931,vts_reward_expectancy_bt_OFFLINE,2022.2.4,60.01775918754871,
0,0,1,0,0,0,0,1,hexagon,star,0,0,0,0,0,2,2,8,,,,,,,,,,,,,,,,,,,,102.58061991818249,102.58061991818249,102.58061991818249,102.58061991818249,102.58061991818249,102.58061991818249,102.58061991818249,102.58061991818249,102.58061991818249,102.58061991818249,l,1.015030366834253,1,12,0,103.61475209519267,105.11500965314917,105.11500965314917,,,,,,,,,,,,,,,,,,,,,,,,,,40408,2022-11-16_10h16.13.931,vts_reward_expectancy_bt_OFFLINE,2022.2.4,60.01775918754871,
0,1,0,0,0,0,1,0,circle,hexagon,0,0,0,0,0,3,3,4,,,,,,,,,,,,,,,,,,,,105.6169160171412,105.6169160171412,105.6169160171412,105.6169160171412,105.6169160171412,105.6169160171412,105.6169160171412,105.6169160171412,105.6169160171412,105.6169160171412,l,0.8916288679465652,10,22,0,106.5344598130323,108.03450926113874,108.03450926113874,108.53450659615919,,,,,,,,,,,,,,,,,,,,,,,,,40408,2022-11-16_10h16.13.931,vts_reward_expectancy_bt_OFFLINE,2022.2.4,60.01775918754871,
0,0,1,0,1,0,0,0,hexagon,triangle,0,0,0,0,0,4,4,6,,,,,,,,,,,,,,,,,,,,108.53450659615919,108.53450659615919,108.53450659615919,108.53450659615919,108.53450659615919,108.53450659615919,108.53450659615919,108.53450659615919,108.53450659615919,108.53450659615919,a,0.5851814928464592,1,23,0,109.15151598211378,,110.6539458190091,,,,,,,,,,,,,,,,,,,,,,,,,,40408,2022-11-16_10h16.13.931,vts_reward_expectancy_bt_OFFLINE,2022.2.4,60.01775918754871,
0,0,0,1,1,0,0,0,star,triangle,0,0,0,0,0,5,5,9,,,,,,,,,,,,,,,,,,,,111.15394940902479,111.15394940902479,111.15394940902479,111.15394940902479,111.15394940902479,111.15394940902479,111.15394940902479,111.15394940902479,111.15394940902479,111.15394940902479,a,0.6543452928308398,10,33,0,111.8381214060355,113.33830215316266,113.33830215316266,113.83861738303676,,,,,,,,,,,,,,,,,,,,,,,,,40408,2022-11-16_10h16.13.931,vts_reward_expectancy_bt_OFFLINE,2022.2.4,60.01775918754871,
0,0,1,0,0,1,0,0,hexagon,circle,0,0,0,0,0,6,6,7,,,,,,,,,,,,,,,,,,,,113.83861738303676,113.83861738303676,113.83861738303676,113.83861738303676,113.83861738303676,113.83861738303676,113.83861738303676,113.83861738303676,113.83861738303676,113.83861738303676,a,0.9735002857632935,1,34,0,114.83916584821418,,116.34133386216126,,,,,,,,,,,,,,,,,,,,,,,,,,40408,2022-11-16_10h16.13.931,vts_reward_expectancy_bt_OFFLINE,2022.2.4,60.01775918754871,
0,0,0,1,0,1,0,0,star ,circle,0,0,0,0,0,7,7,10,,,,,,,,,,,,,,,,,,,,116.84139828407206,116.84139828407206,116.84139828407206,116.84139828407206,116.84139828407206,116.84139828407206,116.84139828407206,116.84139828407206,116.84139828407206,116.84139828407206,l,1.0080306120216846,10,44,0,117.87492627114989,119.37560687214136,119.37560687214136,119.87584837013856,,,,,,,,,,,,,,,,,,,,,,,,,40408,2022-11-16_10h16.13.931,vts_reward_expectancy_bt_OFFLINE,2022.2.4,60.01775918754871,
1,0,0,0,0,0,1,0,triangle,hexagon,0,0,0,0,0,8,8,1,,,,,,,,,,,,,,,,,,,,119.87584837013856,119.87584837013856,119.87584837013856,119.87584837013856,119.87584837013856,119.87584837013856,119.87584837013856,119.87584837013856,119.87584837013856,119.87584837013856,l,0.7419803198426962,1,45,0,120.64476957311854,122.14516183221713,122.14516183221713,,,,,,,,,,,,,,,,,,,,,,,,,,40408,2022-11-16_10h16.13.931,vts_reward_expectancy_bt_OFFLINE,2022.2.4,60.01775918754871,
0,1,0,0,0,0,0,1,circle,star,0,0,0,0,0,9,9,5,,,,,,,,,,,,,,,,,,,,122.64539737906307,122.64539737906307,122.64539737906307,122.64539737906307,122.64539737906307,122.64539737906307,122.64539737906307,122.64539737906307,122.64539737906307,122.64539737906307,l,0.6715451278723776,1,46,0,123.34547929512337,,124.846228989074,,,,,,,,,,,,,,,,,,,,,,,,,,40408,2022-11-16_10h16.13.931,vts_reward_expectancy_bt_OFFLINE,2022.2.4,60.01775918754871,
0,0,0,1,0,0,1,0,star,hexagon,0,0,0,0,0,10,10,11,,,,,,,,,,,,,,,,,,,,125.34610974416137,125.34610974416137,125.34610974416137,125.34610974416137,125.34610974416137,125.34610974416137,125.34610974416137,125.34610974416137,125.34610974416137,125.34610974416137,l,0.6483994317241013,1,47,0,126.01488955621608,,127.5156961241737,,,,,,,,,,,,,,,,,,,,,,,,,,40408,2022-11-16_10h16.13.931,vts_reward_expectancy_bt_OFFLINE,2022.2.4,60.01775918754871,
0,1,0,0,1,0,0,0,circle,triangle,0,0,0,0,0,11,11,3,,,,,,,,,,,,,,,,,,,,128.01583474711515,128.01583474711515,128.01583474711515,128.01583474711515,128.01583474711515,128.01583474711515,128.01583474711515,128.01583474711515,128.01583474711515,128.01583474711515,a,0.668176612816751,1,48,0,128.71596659906209,130.21656213421375,130.21656213421375,,,,,,,,,,,,,,,,,,,,,,,,,,40408,2022-11-16_10h16.13.931,vts_reward_expectancy_bt_OFFLINE,2022.2.4,60.01775918754871,
0,0,1,0,0,1,0,0,hexagon,circle,0,0,0,0,1,0,12,7,,,,,,,,,,,,,,,,,,,,130.71843042806722,130.71843042806722,130.71843042806722,130.71843042806722,130.71843042806722,130.71843042806722,130.71843042806722,130.71843042806722,130.71843042806722,130.71843042806722,l,0.7439509718678892,1,49,0,131.48538829712197,132.98597929812968,132.98597929812968,,,,,,,,,,,,,,,,,,,,,,,,,,40408,2022-11-16_10h16.13.931,vts_reward_expectancy_bt_OFFLINE,2022.2.4,60.01775918754871,
0,1,0,0,0,0,0,1,circle,star,0,0,0,0,1,1,13,5,,,,,,,,,,,,,,,,,,,,133.48622776102275,133.48622776102275,133.48622776102275,133.48622776102275,133.48622776102275,133.48622776102275,133.48622776102275,133.48622776102275,133.48622776102275,133.48622776102275,l,0.6203982348088175,1,50,0,134.13645328721032,,135.6387423442211,,,,,,,,,,,,,,,,,,,,,,,,,,40408,2022-11-16_10h16.13.931,vts_reward_expectancy_bt_OFFLINE,2022.2.4,60.01775918754871,
0,0,1,0,1,0,0,0,hexagon,triangle,0,0,0,0,1,2,14,6,,,,,,,,,,,,,,,,,,,,136.13902209419757,136.13902209419757,136.13902209419757,136.13902209419757,136.13902209419757,136.13902209419757,136.13902209419757,136.13902209419757,136.13902209419757,136.13902209419757,l,0.4309493456967175,10,60,0,136.58969255513512,138.08954355400056,138.08954355400056,138.58986534015276,,,,,,,,,,,,,,,,,,,,,,,,,40408,2022-11-16_10h16.13.931,vts_reward_expectancy_bt_OFFLINE,2022.2.4,60.01775918754871,
0,1,0,0,0,0,1,0,circle,hexagon,0,0,0,0,1,3,15,4,,,,,,,,,,,,,,,,,,,,138.58986534015276,138.58986534015276,138.58986534015276,138.58986534015276,138.58986534015276,138.58986534015276,138.58986534015276,138.58986534015276,138.58986534015276,138.58986534015276,l,0.6360693068709224,1,61,0,139.2569872501772,,140.75915320101194,,,,,,,,,,,,,,,,,,,,,,,,,,40408,2022-11-16_10h16.13.931,vts_reward_expectancy_bt_OFFLINE,2022.2.4,60.01775918754871,
0,1,0,0,1,0,0,0,circle,triangle,0,0,0,0,1,4,16,3,,,,,,,,,,,,,,,,,,,,141.25938710500486,141.25938710500486,141.25938710500486,141.25938710500486,141.25938710500486,141.25938710500486,141.25938710500486,141.25938710500486,141.25938710500486,141.25938710500486,l,0.9927304508164525,10,71,0,142.27674892521463,143.77696798206307,143.77696798206307,144.27724912110716,,,,,,,,,,,,,,,,,,,,,,,,,40408,2022-11-16_10h16.13.931,vts_reward_expectancy_bt_OFFLINE,2022.2.4,60.01775918754871,
1,0,0,0,0,1,0,0,triangle,circle,0,0,0,0,1,5,17,0,,,,,,,,,,,,,,,,,,,,144.27724912110716,144.27724912110716,144.27724912110716,144.27724912110716,144.27724912110716,144.27724912110716,144.27724912110716,144.27724912110716,144.27724912110716,144.27724912110716,a,0.9456359900068492,10,81,0,145.2442920540925,,146.74671016121283,,,,,,,,,,,,,,,,,,,,,,,,,,40408,2022-11-16_10h16.13.931,vts_reward_expectancy_bt_OFFLINE,2022.2.4,60.01775918754871,
0,0,0,1,1,0,0,0,star,triangle,0,0,0,0,1,6,18,9,,,,,,,,,,,,,,,,,,,,147.24683875916526,147.24683875916526,147.24683875916526,147.24683875916526,147.24683875916526,147.24683875916526,147.24683875916526,147.24683875916526,147.24683875916526,147.24683875916526,l,0.6412256408948451,1,82,0,147.91396312904544,149.41402440308593,149.41402440308593,149.9143388911616,,,,,,,,,,,,,,,,,,,,,,,,,40408,2022-11-16_10h16.13.931,vts_reward_expectancy_bt_OFFLINE,2022.2.4,60.01775918754871,
0,0,1,0,0,0,0,1,hexagon,star,0,0,0,0,1,7,19,8,,,,,,,,,,,,,,,,,,,,149.9143388911616,149.9143388911616,149.9143388911616,149.9143388911616,149.9143388911616,149.9143388911616,149.9143388911616,149.9143388911616,149.9143388911616,149.9143388911616,l,0.38130507292225957,10,92,0,150.31495292601176,,151.81687502400018,,,,,,,,,,,,,,,,,,,,,,,,,,40408,2022-11-16_10h16.13.931,vts_reward_expectancy_bt_OFFLINE,2022.2.4,60.01775918754871,
0,0,0,1,0,1,0,0,star ,circle,0,0,0,0,1,8,20,10,,,,,,,,,,,,,,,,,,,,152.31697976007126,152.31697976007126,152.31697976007126,152.31697976007126,152.31697976007126,152.31697976007126,152.31697976007126,152.31697976007126,152.31697976007126,152.31697976007126,a,0.8813283019699156,10,102,0,153.21723517403007,154.7178847710602,154.7178847710602,155.21808016113937,,,,,,,,,,,,,,,,,,,,,,,,,40408,2022-11-16_10h16.13.931,vts_reward_expectancy_bt_OFFLINE,2022.2.4,60.01775918754871,
1,0,0,0,0,0,1,0,triangle,hexagon,0,0,0,0,1,9,21,1,,,,,,,,,,,,,,,,,,,,155.21808016113937,155.21808016113937,155.21808016113937,155.21808016113937,155.21808016113937,155.21808016113937,155.21808016113937,155.21808016113937,155.21808016113937,155.21808016113937,a,0.46697442466393113,10,112,0,155.7032575760968,157.2039563062135,157.2039563062135,157.70399676822126,,,,,,,,,,,,,,,,,,,,,,,,,40408,2022-11-16_10h16.13.931,vts_reward_expectancy_bt_OFFLINE,2022.2.4,60.01775918754871,
0,0,0,1,0,0,1,0,star,hexagon,0,0,0,0,1,10,22,11,,,,,,,,,,,,,,,,,,,,157.70399676822126,157.70399676822126,157.70399676822126,157.70399676822126,157.70399676822126,157.70399676822126,157.70399676822126,157.70399676822126,157.70399676822126,157.70399676822126,a,0.44547165487892926,10,122,0,158.17087113205343,159.67139522219077,159.67139522219077,160.17149928817526,,,,,,,,,,,,,,,,,,,,,,,,,40408,2022-11-16_10h16.13.931,vts_reward_expectancy_bt_OFFLINE,2022.2.4,60.01775918754871,
1,0,0,0,0,0,0,1,triangle,star,0,0,0,0,1,11,23,2,,,,,,,,,,,,,,,,,,,,160.17149928817526,160.17149928817526,160.17149928817526,160.17149928817526,160.17149928817526,160.17149928817526,160.17149928817526,160.17149928817526,160.17149928817526,160.17149928817526,a,0.4071918160188943,10,132,0,160.60694874310866,162.1076210262254,162.1076210262254,162.6075618120376,,,,,,,,,,,,,,,,,,,,,,,,,40408,2022-11-16_10h16.13.931,vts_reward_expectancy_bt_OFFLINE,2022.2.4,60.01775918754871,
0,0,0,1,0,1,0,0,star ,circle,0,0,0,0,2,0,24,10,,,,,,,,,,,,,,,,,,,,162.6075618120376,162.6075618120376,162.6075618120376,162.6075618120376,162.6075618120376,162.6075618120376,162.6075618120376,162.6075618120376,162.6075618120376,162.6075618120376,l,0.5812716907821596,10,142,0,163.2076411221642,164.70848153112456,164.70848153112456,,,,,,,,,,,,,,,,,,,,,,,,,,40408,2022-11-16_10h16.13.931,vts_reward_expectancy_bt_OFFLINE,2022.2.4,60.01775918754871,
1,0,0,0,0,1,0,0,triangle,circle,0,0,0,0,2,1,25,0,,,,,,,,,,,,,,,,,,,,165.2083653130103,165.2083653130103,165.2083653130103,165.2083653130103,165.2083653130103,165.2083653130103,165.2083653130103,165.2083653130103,165.2083653130103,165.2083653130103,a,0.6366949987132102,10,152,0,165.87718101521023,167.37789048813283,167.37789048813283,,,,,,,,,,,,,,,,,,,,,,,,,,40408,2022-11-16_10h16.13.931,vts_reward_expectancy_bt_OFFLINE,2022.2.4,60.01775918754871,
0,0,1,0,0,0,0,1,hexagon,star,0,0,0,0,2,2,26,8,,,,,,,,,,,,,,,,,,,,167.8781289490871,167.8781289490871,167.8781289490871,167.8781289490871,167.8781289490871,167.8781289490871,167.8781289490871,167.8781289490871,167.8781289490871,167.8781289490871,a,0.7562194357160479,1,153,0,168.6619693362154,170.16233656718396,170.16233656718396,,,,,,,,,,,,,,,,,,,,,,,,,,40408,2022-11-16_10h16.13.931,vts_reward_expectancy_bt_OFFLINE,2022.2.4,60.01775918754871,
1,0,0,0,0,0,1,0,triangle,hexagon,0,0,0,0,2,3,27,1,,,,,,,,,,,,,,,,,,,,170.66429792600684,170.66429792600684,170.66429792600684,170.66429792600684,170.66429792600684,170.66429792600684,170.66429792600684,170.66429792600684,170.66429792600684,170.66429792600684,l,0.4678578479215503,10,163,0,171.1645185521338,,172.66522616916336,,,,,,,,,,,,,,,,,,,,,,,,,,40408,2022-11-16_10h16.13.931,vts_reward_expectancy_bt_OFFLINE,2022.2.4,60.01775918754871,
0,1,0,0,0,0,1,0,circle,hexagon,0,0,0,0,2,4,28,4,,,,,,,,,,,,,,,,,,,,173.1653282311745,173.1653282311745,173.1653282311745,173.1653282311745,173.1653282311745,173.1653282311745,173.1653282311745,173.1653282311745,173.1653282311745,173.1653282311745,l,0.48745760996825993,10,173,0,173.681858724216,175.18279967899434,175.18279967899434,,,,,,,,,,,,,,,,,,,,,,,,,,40408,2022-11-16_10h16.13.931,vts_reward_expectancy_bt_OFFLINE,2022.2.4,60.01775918754871,
0,0,1,0,1,0,0,0,hexagon,triangle,0,0,0,0,2,5,29,6,,,,,,,,,,,,,,,,,,,,175.68458692613058,175.68458692613058,175.68458692613058,175.68458692613058,175.68458692613058,175.68458692613058,175.68458692613058,175.68458692613058,175.68458692613058,175.68458692613058,l,0.7245774429757148,10,183,0,176.43483351613395,177.93537113512866,177.93537113512866,178.43560233619064,,,,,,,,,,,,,,,,,,,,,,,,,40408,2022-11-16_10h16.13.931,vts_reward_expectancy_bt_OFFLINE,2022.2.4,60.01775918754871,
0,0,1,0,0,1,0,0,hexagon,circle,0,0,0,0,2,6,30,7,,,,,,,,,,,,,,,,,,,,178.43560233619064,178.43560233619064,178.43560233619064,178.43560233619064,178.43560233619064,178.43560233619064,178.43560233619064,178.43560233619064,178.43560233619064,178.43560233619064,a,0.5274391029961407,10,193,0,178.9856947090011,,180.48814637819305,,,,,,,,,,,,,,,,,,,,,,,,,,40408,2022-11-16_10h16.13.931,vts_reward_expectancy_bt_OFFLINE,2022.2.4,60.01775918754871,
0,1,0,0,0,0,0,1,circle,star,0,0,0,0,2,7,31,5,,,,,,,,,,,,,,,,,,,,180.98829404101707,180.98829404101707,180.98829404101707,180.98829404101707,180.98829404101707,180.98829404101707,180.98829404101707,180.98829404101707,180.98829404101707,180.98829404101707,a,1.1918023596517742,1,194,0,182.20618029520847,183.705880836118,183.705880836118,184.2063164471183,,,,,,,,,,,,,,,,,,,,,,,,,40408,2022-11-16_10h16.13.931,vts_reward_expectancy_bt_OFFLINE,2022.2.4,60.01775918754871,
0,0,0,1,1,0,0,0,star,triangle,0,0,0,0,2,8,32,9,,,,,,,,,,,,,,,,,,,,184.2063164471183,184.2063164471183,184.2063164471183,184.2063164471183,184.2063164471183,184.2063164471183,184.2063164471183,184.2063164471183,184.2063164471183,184.2063164471183,a,0.33691657590679824,10,204,0,184.57341668801382,,186.07533230818808,,,,,,,,,,,,,,,,,,,,,,,,,,40408,2022-11-16_10h16.13.931,vts_reward_expectancy_bt_OFFLINE,2022.2.4,60.01775918754871,
0,0,0,1,0,0,1,0,star,hexagon,0,0,0,0,2,9,33,11,,,,,,,,,,,,,,,,,,,,186.5755260041915,186.5755260041915,186.5755260041915,186.5755260041915,186.5755260041915,186.5755260041915,186.5755260041915,186.5755260041915,186.5755260041915,186.5755260041915,l,0.3415090348571539,10,214,0,186.94245227519423,188.44295386807062,188.44295386807062,188.94295904412866,,,,,,,,,,,,,,,,,,,,,,,,,40408,2022-11-16_10h16.13.931,vts_reward_expectancy_bt_OFFLINE,2022.2.4,60.01775918754871,
1,0,0,0,0,0,0,1,triangle,star,0,0,0,0,2,10,34,2,,,,,,,,,,,,,,,,,,,,188.94295904412866,188.94295904412866,188.94295904412866,188.94295904412866,188.94295904412866,188.94295904412866,188.94295904412866,188.94295904412866,188.94295904412866,188.94295904412866,a,0.4495537909679115,1,215,0,189.4105805370491,,190.91200893116184,,,,,,,,,,,,,,,,,,,,,,,,,,40408,2022-11-16_10h16.13.931,vts_reward_expectancy_bt_OFFLINE,2022.2.4,60.01775918754871,
0,1,0,0,1,0,0,0,circle,triangle,0,0,0,0,2,11,35,3,,,,,,,,,,,,,,,,,,,,191.41240714211017,191.41240714211017,191.41240714211017,191.41240714211017,191.41240714211017,191.41240714211017,191.41240714211017,191.41240714211017,191.41240714211017,191.41240714211017,l,0.36442346568219364,10,225,0,191.79662603116594,193.29640625300817,193.29640625300817,193.7965764021501,,,,,,,,,,,,,,,,,,,,,,,,,40408,2022-11-16_10h16.13.931,vts_reward_expectancy_bt_OFFLINE,2022.2.4,60.01775918754871,
1,0,0,0,0,0,1,0,triangle,hexagon,0,0,0,0,3,0,36,1,,,,,,,,,,,,,,,,,,,,193.7965764021501,193.7965764021501,193.7965764021501,193.7965764021501,193.7965764021501,193.7965764021501,193.7965764021501,193.7965764021501,193.7965764021501,193.7965764021501,l,0.4002277017571032,1,226,0,194.21423139004037,,195.71573980618268,,,,,,,,,,,,,,,,,,,,,,,,,,40408,2022-11-16_10h16.13.931,vts_reward_expectancy_bt_OFFLINE,2022.2.4,60.01775918754871,
0,0,1,0,1,0,0,0,hexagon,triangle,0,0,0,0,3,1,37,6,,,,,,,,,,,,,,,,,,,,196.21599070215598,196.21599070215598,196.21599070215598,196.21599070215598,196.21599070215598,196.21599070215598,196.21599070215598,196.21599070215598,196.21599070215598,196.21599070215598,a,0.3758055418729782,10,236,0,196.61656284914352,198.1167292231694,198.1167292231694,198.61660626414232,,,,,,,,,,,,,,,,,,,,,,,,,40408,2022-11-16_10h16.13.931,vts_reward_expectancy_bt_OFFLINE,2022.2.4,60.01775918754871,
1,0,0,0,0,0,0,1,triangle,star,0,0,0,0,3,2,38,2,,,,,,,,,,,,,,,,,,,,198.61660626414232,198.61660626414232,198.61660626414232,198.61660626414232,198.61660626414232,198.61660626414232,198.61660626414232,198.61660626414232,198.61660626414232,198.61660626414232,a,0.5640880838036537,1,237,0,199.2008177631069,,200.70274564507417,,,,,,,,,,,,,,,,,,,,,,,,,,40408,2022-11-16_10h16.13.931,vts_reward_expectancy_bt_OFFLINE,2022.2.4,60.01775918754871,
0,0,1,0,0,0,0,1,hexagon,star,0,0,0,0,3,3,39,8,,,,,,,,,,,,,,,,,,,,201.20295380521566,201.20295380521566,201.20295380521566,201.20295380521566,201.20295380521566,201.20295380521566,201.20295380521566,201.20295380521566,201.20295380521566,201.20295380521566,a,0.39648184180259705,1,238,0,201.61979134613648,203.12032635719515,203.12032635719515,203.62024054606445,,,,,,,,,,,,,,,,,,,,,,,,,40408,2022-11-16_10h16.13.931,vts_reward_expectancy_bt_OFFLINE,2022.2.4,60.01775918754871,
1,0,0,0,0,1,0,0,triangle,circle,0,0,0,0,3,4,40,0,,,,,,,,,,,,,,,,,,,,203.62024054606445,203.62024054606445,203.62024054606445,203.62024054606445,203.62024054606445,203.62024054606445,203.62024054606445,203.62024054606445,203.62024054606445,203.62024054606445,l,0.4990509089548141,1,239,0,204.13746869005263,,205.6397646360565,,,,,,,,,,,,,,,,,,,,,,,,,,40408,2022-11-16_10h16.13.931,vts_reward_expectancy_bt_OFFLINE,2022.2.4,60.01775918754871,
0,1,0,0,1,0,0,0,circle,triangle,0,0,0,0,3,5,41,3,,,,,,,,,,,,,,,,,,,,206.1398430641275,206.1398430641275,206.1398430641275,206.1398430641275,206.1398430641275,206.1398430641275,206.1398430641275,206.1398430641275,206.1398430641275,206.1398430641275,l,0.5108303017914295,10,249,0,206.67413556110114,208.17395226703957,208.17395226703957,208.67401890014298,,,,,,,,,,,,,,,,,,,,,,,,,40408,2022-11-16_10h16.13.931,vts_reward_expectancy_bt_OFFLINE,2022.2.4,60.01775918754871,
0,1,0,0,0,0,1,0,circle,hexagon,0,0,0,0,3,6,42,4,,,,,,,,,,,,,,,,,,,,208.67401890014298,208.67401890014298,208.67401890014298,208.67401890014298,208.67401890014298,208.67401890014298,208.67401890014298,208.67401890014298,208.67401890014298,208.67401890014298,l,0.5079823939595371,10,259,0,209.2076598070562,,210.71014243015088,,,,,,,,,,,,,,,,,,,,,,,,,,40408,2022-11-16_10h16.13.931,vts_reward_expectancy_bt_OFFLINE,2022.2.4,60.01775918754871,
0,0,0,1,0,0,1,0,star,hexagon,0,0,0,0,3,7,43,11,,,,,,,,,,,,,,,,,,,,211.21022949903272,211.21022949903272,211.21022949903272,211.21022949903272,211.21022949903272,211.21022949903272,211.21022949903272,211.21022949903272,211.21022949903272,211.21022949903272,l,0.4350147256627679,10,269,0,211.67706502904184,213.17765764612705,213.17765764612705,213.67772256722674,,,,,,,,,,,,,,,,,,,,,,,,,40408,2022-11-16_10h16.13.931,vts_reward_expectancy_bt_OFFLINE,2022.2.4,60.01775918754871,
0,0,0,1,1,0,0,0,star,triangle,0,0,0,0,3,8,44,9,,,,,,,,,,,,,,,,,,,,213.67772256722674,213.67772256722674,213.67772256722674,213.67772256722674,213.67772256722674,213.67772256722674,213.67772256722674,213.67772256722674,213.67772256722674,213.67772256722674,l,0.39768308377824724,1,270,0,214.0952315630857,,215.59697870211676,,,,,,,,,,,,,,,,,,,,,,,,,,40408,2022-11-16_10h16.13.931,vts_reward_expectancy_bt_OFFLINE,2022.2.4,60.01775918754871,
0,1,0,0,0,0,0,1,circle,star,0,0,0,0,3,9,45,5,,,,,,,,,,,,,,,,,,,,216.09706288203597,216.09706288203597,216.09706288203597,216.09706288203597,216.09706288203597,216.09706288203597,216.09706288203597,216.09706288203597,216.09706288203597,216.09706288203597,a,1.2296692449599504,1,271,0,217.34751933207735,218.8481643050909,218.8481643050909,219.34838354121894,,,,,,,,,,,,,,,,,,,,,,,,,40408,2022-11-16_10h16.13.931,vts_reward_expectancy_bt_OFFLINE,2022.2.4,60.01775918754871,
0,0,1,0,0,1,0,0,hexagon,circle,0,0,0,0,3,10,46,7,,,,,,,,,,,,,,,,,,,,219.34838354121894,219.34838354121894,219.34838354121894,219.34838354121894,219.34838354121894,219.34838354121894,219.34838354121894,219.34838354121894,219.34838354121894,219.34838354121894,l,5.674075546907261,1,272,0,225.05193022522144,,226.55455203400925,,,,,,,,,,,,,,,,,,,,,,,,,,40408,2022-11-16_10h16.13.931,vts_reward_expectancy_bt_OFFLINE,2022.2.4,60.01775918754871,
0,0,0,1,0,1,0,0,star ,circle,0,0,0,0,3,11,47,10,,,,,,,,,,,,,,,,,,,,227.05482727009803,227.05482727009803,227.05482727009803,227.05482727009803,227.05482727009803,227.05482727009803,227.05482727009803,227.05482727009803,227.05482727009803,227.05482727009803,a,0.3527902979403734,1,273,0,227.4383475750219,228.93880191119388,228.93880191119388,229.4455847570207,,,,,,,,,,,,,,,,,,,,,,,,,40408,2022-11-16_10h16.13.931,vts_reward_expectancy_bt_OFFLINE,2022.2.4,60.01775918754871,
0,0,1,0,0,0,0,1,hexagon,star,1,0,1,0,0,0,0,8,,,,,,,,,,,,,,,,,,,,233.83630995219573,233.83630995219573,233.83630995219573,233.83630995219573,233.83630995219573,233.83630995219573,233.83630995219573,233.83630995219573,233.83630995219573,233.83630995219573,l,0.9851352998521179,1,274,1,234.84240181720816,,236.34526558220387,,,,,,,,,,,,,,,,,,,,,,,,,,40408,2022-11-16_10h16.13.931,vts_reward_expectancy_bt_OFFLINE,2022.2.4,60.01775918754871,
0,0,0,1,1,0,0,0,star,triangle,1,0,1,0,0,1,1,9,,,,,,,,,,,,,,,,,,,,236.84534566104412,236.84534566104412,236.84534566104412,236.84534566104412,236.84534566104412,236.84534566104412,236.84534566104412,236.84534566104412,236.84534566104412,236.84534566104412,a,0.4513693838380277,10,284,1,237.32890402409248,238.82944070501253,238.82944070501253,239.32975994003937,,,,,,,,,,,,,,,,,,,,,,,,,40408,2022-11-16_10h16.13.931,vts_reward_expectancy_bt_OFFLINE,2022.2.4,60.01775918754871,
0,0,0,1,0,1,0,0,star ,circle,1,0,1,0,0,2,2,10,,,,,,,,,,,,,,,,,,,,239.32975994003937,239.32975994003937,239.32975994003937,239.32975994003937,239.32975994003937,239.32975994003937,239.32975994003937,239.32975994003937,239.32975994003937,239.32975994003937,a,0.520639520836994,10,294,1,239.8797203951981,,241.38204088504426,,,,,,,,,,,,,,,,,,,,,,,,,,40408,2022-11-16_10h16.13.931,vts_reward_expectancy_bt_OFFLINE,2022.2.4,60.01775918754871,
1,0,0,0,0,1,0,0,triangle,circle,1,0,1,0,0,3,3,0,,,,,,,,,,,,,,,,,,,,241.8823337291833,241.8823337291833,241.8823337291833,241.8823337291833,241.8823337291833,241.8823337291833,241.8823337291833,241.8823337291833,241.8823337291833,241.8823337291833,a,0.39891696674749255,10,304,1,242.29903871100396,243.799754466163,243.799754466163,244.29990777000785,,,,,,,,,,,,,,,,,,,,,,,,,40408,2022-11-16_10h16.13.931,vts_reward_expectancy_bt_OFFLINE,2022.2.4,60.01775918754871,
1,0,0,0,0,0,1,0,triangle,hexagon,1,0,1,0,0,4,4,1,,,,,,,,,,,,,,,,,,,,244.29990777000785,244.29990777000785,244.29990777000785,244.29990777000785,244.29990777000785,244.29990777000785,244.29990777000785,244.29990777000785,244.29990777000785,244.29990777000785,l,0.6028328838292509,10,314,1,244.93308707210235,,246.43580863019451,,,,,,,,,,,,,,,,,,,,,,,,,,40408,2022-11-16_10h16.13.931,vts_reward_expectancy_bt_OFFLINE,2022.2.4,60.01775918754871,
0,0,1,0,0,1,0,0,hexagon,circle,1,0,1,0,0,5,5,7,,,,,,,,,,,,,,,,,,,,246.93596431519836,246.93596431519836,246.93596431519836,246.93596431519836,246.93596431519836,246.93596431519836,246.93596431519836,246.93596431519836,246.93596431519836,246.93596431519836,a,0.33983279298990965,10,324,1,247.30291467811912,248.80320090707392,248.80320090707392,249.3033681421075,,,,,,,,,,,,,,,,,,,,,,,,,40408,2022-11-16_10h16.13.931,vts_reward_expectancy_bt_OFFLINE,2022.2.4,60.01775918754871,
0,1,0,0,1,0,0,0,circle,triangle,1,0,1,0,0,6,6,3,,,,,,,,,,,,,,,,,,,,249.3033681421075,249.3033681421075,249.3033681421075,249.3033681421075,249.3033681421075,249.3033681421075,249.3033681421075,249.3033681421075,249.3033681421075,249.3033681421075,a,0.40297993598505855,1,325,1,249.73796272301115,,251.23928391304798,,,,,,,,,,,,,,,,,,,,,,,,,,40408,2022-11-16_10h16.13.931,vts_reward_expectancy_bt_OFFLINE,2022.2.4,60.01775918754871,
0,1,0,0,0,0,0,1,circle,star,1,0,1,0,0,7,7,5,,,,,,,,,,,,,,,,,,,,251.73948133620434,251.73948133620434,251.73948133620434,251.73948133620434,251.73948133620434,251.73948133620434,251.73948133620434,251.73948133620434,251.73948133620434,251.73948133620434,l,0.3182170856744051,10,335,1,252.08970480412245,253.59016773710027,253.59016773710027,254.09034223714843,,,,,,,,,,,,,,,,,,,,,,,,,40408,2022-11-16_10h16.13.931,vts_reward_expectancy_bt_OFFLINE,2022.2.4,60.01775918754871,
0,0,0,1,0,0,1,0,star,hexagon,1,0,1,0,0,8,8,11,,,,,,,,,,,,,,,,,,,,254.09034223714843,254.09034223714843,254.09034223714843,254.09034223714843,254.09034223714843,254.09034223714843,254.09034223714843,254.09034223714843,254.09034223714843,254.09034223714843,l,0.3069541146978736,10,345,1,254.4234403911978,,255.92617795220576,,,,,,,,,,,,,,,,,,,,,,,,,,40408,2022-11-16_10h16.13.931,vts_reward_expectancy_bt_OFFLINE,2022.2.4,60.01775918754871,
1,0,0,0,0,0,0,1,triangle,star,1,0,1,0,0,9,9,2,,,,,,,,,,,,,,,,,,,,256.4262396930717,256.4262396930717,256.4262396930717,256.4262396930717,256.4262396930717,256.4262396930717,256.4262396930717,256.4262396930717,256.4262396930717,256.4262396930717,a,0.33372886083088815,10,355,1,256.77640248904936,258.27714777807705,258.27714777807705,258.7771412790753,,,,,,,,,,,,,,,,,,,,,,,,,40408,2022-11-16_10h16.13.931,vts_reward_expectancy_bt_OFFLINE,2022.2.4,60.01775918754871,
0,0,1,0,1,0,0,0,hexagon,triangle,1,0,1,0,0,10,10,6,,,,,,,,,,,,,,,,,,,,258.7771412790753,258.7771412790753,258.7771412790753,258.7771412790753,258.7771412790753,258.7771412790753,258.7771412790753,258.7771412790753,258.7771412790753,258.7771412790753,l,0.4362223739735782,10,365,1,259.24409973504953,,260.7466143621132,,,,,,,,,,,,,,,,,,,,,,,,,,40408,2022-11-16_10h16.13.931,vts_reward_expectancy_bt_OFFLINE,2022.2.4,60.01775918754871,
0,1,0,0,0,0,1,0,circle,hexagon,1,0,1,0,0,11,11,4,,,,,,,,,,,,,,,,,,,,261.2464593881741,261.2464593881741,261.2464593881741,261.2464593881741,261.2464593881741,261.2464593881741,261.2464593881741,261.2464593881741,261.2464593881741,261.2464593881741,a,0.4194204069208354,1,366,1,261.6978702771012,263.1973665850237,263.1973665850237,263.69744433206506,,,,,,,,,,,,,,,,,,,,,,,,,40408,2022-11-16_10h16.13.931,vts_reward_expectancy_bt_OFFLINE,2022.2.4,60.01775918754871,
1,0,0,0,0,0,1,0,triangle,hexagon,1,0,1,0,1,0,12,1,,,,,,,,,,,,,,,,,,,,263.69744433206506,263.69744433206506,263.69744433206506,263.69744433206506,263.69744433206506,263.69744433206506,263.69744433206506,263.69744433206506,263.69744433206506,263.69744433206506,a,0.30790741578675807,1,367,1,264.0308906210121,,265.53357346518897,,,,,,,,,,,,,,,,,,,,,,,,,,40408,2022-11-16_10h16.13.931,vts_reward_expectancy_bt_OFFLINE,2022.2.4,60.01775918754871,
0,0,0,1,0,1,0,0,star ,circle,1,0,1,0,1,1,13,10,,,,,,,,,,,,,,,,,,,,266.0334083971102,266.0334083971102,266.0334083971102,266.0334083971102,266.0334083971102,266.0334083971102,266.0334083971102,266.0334083971102,266.0334083971102,266.0334083971102,l,0.3244672487489879,10,377,1,266.38439362705685,267.8841425331775,267.8841425331775,268.3842823621817,,,,,,,,,,,,,,,,,,,,,,,,,40408,2022-11-16_10h16.13.931,vts_reward_expectancy_bt_OFFLINE,2022.2.4,60.01775918754871,
0,0,1,0,0,1,0,0,hexagon,circle,1,0,1,0,1,2,14,7,,,,,,,,,,,,,,,,,,,,268.3842823621817,268.3842823621817,268.3842823621817,268.3842823621817,268.3842823621817,268.3842823621817,268.3842823621817,268.3842823621817,268.3842823621817,268.3842823621817,a,0.45941892289556563,10,387,1,268.8678440360818,270.36833415413275,270.36833415413275,,,,,,,,,,,,,,,,,,,,,,,,,,40408,2022-11-16_10h16.13.931,vts_reward_expectancy_bt_OFFLINE,2022.2.4,60.01775918754871,
0,1,0,0,1,0,0,0,circle,triangle,1,0,1,0,1,3,15,3,,,,,,,,,,,,,,,,,,,,270.87029588920996,270.87029588920996,270.87029588920996,270.87029588920996,270.87029588920996,270.87029588920996,270.87029588920996,270.87029588920996,270.87029588920996,270.87029588920996,l,0.9777373129036278,1,388,1,271.8717781531159,273.37126508005895,273.37126508005895,273.87161386106163,,,,,,,,,,,,,,,,,,,,,,,,,40408,2022-11-16_10h16.13.931,vts_reward_expectancy_bt_OFFLINE,2022.2.4,60.01775918754871,
0,0,0,1,0,0,1,0,star,hexagon,1,0,1,0,1,4,16,11,,,,,,,,,,,,,,,,,,,,273.87161386106163,273.87161386106163,273.87161386106163,273.87161386106163,273.87161386106163,273.87161386106163,273.87161386106163,273.87161386106163,273.87161386106163,273.87161386106163,l,0.6423260679002851,1,389,1,274.53824437316507,,276.04079338000156,,,,,,,,,,,,,,,,,,,,,,,,,,40408,2022-11-16_10h16.13.931,vts_reward_expectancy_bt_OFFLINE,2022.2.4,60.01775918754871,
0,0,1,0,1,0,0,0,hexagon,triangle,1,0,1,0,1,5,17,6,,,,,,,,,,,,,,,,,,,,276.54092504712753,276.54092504712753,276.54092504712753,276.54092504712753,276.54092504712753,276.54092504712753,276.54092504712753,276.54092504712753,276.54092504712753,276.54092504712753,a,0.3350159137044102,1,390,1,276.90799472108483,278.4083314011805,278.4083314011805,278.9085461681243,,,,,,,,,,,,,,,,,,,,,,,,,40408,2022-11-16_10h16.13.931,vts_reward_expectancy_bt_OFFLINE,2022.2.4,60.01775918754871,
1,0,0,0,0,1,0,0,triangle,circle,1,0,1,0,1,6,18,0,,,,,,,,,,,,,,,,,,,,278.9085461681243,278.9085461681243,278.9085461681243,278.9085461681243,278.9085461681243,278.9085461681243,278.9085461681243,278.9085461681243,278.9085461681243,278.9085461681243,l,0.341342810774222,1,391,1,279.2751353960484,,280.7778605960775,,,,,,,,,,,,,,,,,,,,,,,,,,40408,2022-11-16_10h16.13.931,vts_reward_expectancy_bt_OFFLINE,2022.2.4,60.01775918754871,
0,1,0,0,0,0,0,1,circle,star,1,0,1,0,1,7,19,5,,,,,,,,,,,,,,,,,,,,281.27788655506447,281.27788655506447,281.27788655506447,281.27788655506447,281.27788655506447,281.27788655506447,281.27788655506447,281.27788655506447,281.27788655506447,281.27788655506447,a,0.222105658845976,1,392,1,281.52781394915655,283.02860525716096,283.02860525716096,283.52872977009974,,,,,,,,,,,,,,,,,,,,,,,,,40408,2022-11-16_10h16.13.931,vts_reward_expectancy_bt_OFFLINE,2022.2.4,60.01775918754871,
0,1,0,0,0,0,1,0,circle,hexagon,1,0,1,0,1,8,20,4,,,,,,,,,,,,,,,,,,,,283.52872977009974,283.52872977009974,283.52872977009974,283.52872977009974,283.52872977009974,283.52872977009974,283.52872977009974,283.52872977009974,283.52872977009974,283.52872977009974,l,0.2551277137827128,1,393,1,283.81214190111496,285.31250926316716,285.31250926316716,,,,,,,,,,,,,,,,,,,,,,,,,,40408,2022-11-16_10h16.13.931,vts_reward_expectancy_bt_OFFLINE,2022.2.4,60.01775918754871,
0,0,0,1,1,0,0,0,star,triangle,1,0,1,0,1,9,21,9,,,,,,,,,,,,,,,,,,,,285.81472027208656,285.81472027208656,285.81472027208656,285.81472027208656,285.81472027208656,285.81472027208656,285.81472027208656,285.81472027208656,285.81472027208656,285.81472027208656,l,0.275397720746696,10,403,1,286.1155264871195,287.61526742810383,287.61526742810383,,,,,,,,,,,,,,,,,,,,,,,,,,40408,2022-11-16_10h16.13.931,vts_reward_expectancy_bt_OFFLINE,2022.2.4,60.01775918754871,
0,0,1,0,0,0,0,1,hexagon,star,1,0,1,0,1,10,22,8,,,,,,,,,,,,,,,,,,,,288.11563510401174,288.11563510401174,288.11563510401174,288.11563510401174,288.11563510401174,288.11563510401174,288.11563510401174,288.11563510401174,288.11563510401174,288.11563510401174,l,0.43834754591807723,1,404,1,288.5831243030261,290.08279120200314,290.08279120200314,,,,,,,,,,,,,,,,,,,,,,,,,,40408,2022-11-16_10h16.13.931,vts_reward_expectancy_bt_OFFLINE,2022.2.4,60.01775918754871,
1,0,0,0,0,0,0,1,triangle,star,1,0,1,0,1,11,23,2,,,,,,,,,,,,,,,,,,,,290.58484199410304,290.58484199410304,290.58484199410304,290.58484199410304,290.58484199410304,290.58484199410304,290.58484199410304,290.58484199410304,290.58484199410304,290.58484199410304,a,0.29888130887411535,1,405,1,290.9016244811937,,292.4022440582048,,,,,,,,,,,,,,,,,,,,,,,,,,40408,2022-11-16_10h16.13.931,vts_reward_expectancy_bt_OFFLINE,2022.2.4,60.01775918754871,
0,0,0,1,1,0,0,0,star,triangle,1,0,1,0,2,0,24,9,,,,,,,,,,,,,,,,,,,,292.90254344814457,292.90254344814457,292.90254344814457,292.90254344814457,292.90254344814457,292.90254344814457,292.90254344814457,292.90254344814457,292.90254344814457,292.90254344814457,l,0.5795852539595217,10,415,1,293.50370148499496,295.00318429013714,295.00318429013714,295.50108871003613,,,,,,,,,,,,,,,,,,,,,,,,,40408,2022-11-16_10h16.13.931,vts_reward_expectancy_bt_OFFLINE,2022.2.4,60.01775918754871,
1,0,0,0,0,0,1,0,triangle,hexagon,1,0,1,0,2,1,25,1,,,,,,,,,,,,,,,,,,,,295.50108871003613,295.50108871003613,295.50108871003613,295.50108871003613,295.50108871003613,295.50108871003613,295.50108871003613,295.50108871003613,295.50108871003613,295.50108871003613,l,0.34371660090982914,1,416,1,295.87279117805883,297.37257617199793,297.37257617199793,,,,,,,,,,,,,,,,,,,,,,,,,,40408,2022-11-16_10h16.13.931,vts_reward_expectancy_bt_OFFLINE,2022.2.4,60.01775918754871,
0,1,0,0,0,0,0,1,circle,star,1,0,1,0,2,2,26,5,,,,,,,,,,,,,,,,,,,,297.87276645819657,297.87276645819657,297.87276645819657,297.87276645819657,297.87276645819657,297.87276645819657,297.87276645819657,297.87276645819657,297.87276645819657,297.87276645819657,a,0.3345454949885607,10,426,1,298.2394942541141,299.74007371417247,299.74007371417247,300.2402023721952,,,,,,,,,,,,,,,,,,,,,,,,,40408,2022-11-16_10h16.13.931,vts_reward_expectancy_bt_OFFLINE,2022.2.4,60.01775918754871,
0,0,0,1,0,0,1,0,star,hexagon,1,0,1,0,2,3,27,11,,,,,,,,,,,,,,,,,,,,300.2402023721952,300.2402023721952,300.2402023721952,300.2402023721952,300.2402023721952,300.2402023721952,300.2402023721952,300.2402023721952,300.2402023721952,300.2402023721952,l,0.41957205487415195,1,427,1,300.6921725110151,302.19275797507726,302.19275797507726,302.6929539251141,,,,,,,,,,,,,,,,,,,,,,,,,40408,2022-11-16_10h16.13.931,vts_reward_expectancy_bt_OFFLINE,2022.2.4,60.01775918754871,
0,0,1,0,1,0,0,0,hexagon,triangle,1,0,1,0,2,4,28,6,,,,,,,,,,,,,,,,,,,,302.6929539251141,302.6929539251141,302.6929539251141,302.6929539251141,302.6929539251141,302.6929539251141,302.6929539251141,302.6929539251141,302.6929539251141,302.6929539251141,a,0.36310677300207317,1,428,1,303.0765628081281,304.5770699111745,304.5770699111745,305.0773034160957,,,,,,,,,,,,,,,,,,,,,,,,,40408,2022-11-16_10h16.13.931,vts_reward_expectancy_bt_OFFLINE,2022.2.4,60.01775918754871,
1,0,0,0,0,0,0,1,triangle,star,1,0,1,0,2,5,29,2,,,,,,,,,,,,,,,,,,,,305.0773034160957,305.0773034160957,305.0773034160957,305.0773034160957,305.0773034160957,305.0773034160957,305.0773034160957,305.0773034160957,305.0773034160957,305.0773034160957,l,0.3864086086396128,10,438,1,305.49495781119913,,306.99633525009267,,,,,,,,,,,,,,,,,,,,,,,,,,40408,2022-11-16_10h16.13.931,vts_reward_expectancy_bt_OFFLINE,2022.2.4,60.01775918754871,
1,0,0,0,0,1,0,0,triangle,circle,1,0,1,0,2,6,30,0,,,,,,,,,,,,,,,,,,,,307.49648004421033,307.49648004421033,307.49648004421033,307.49648004421033,307.49648004421033,307.49648004421033,307.49648004421033,307.49648004421033,307.49648004421033,307.49648004421033,l,0.5668594457674772,10,448,1,308.0801057461649,309.58073441521265,309.58073441521265,310.08078829501756,,,,,,,,,,,,,,,,,,,,,,,,,40408,2022-11-16_10h16.13.931,vts_reward_expectancy_bt_OFFLINE,2022.2.4,60.01775918754871,
0,0,1,0,0,0,0,1,hexagon,star,1,0,1,0,2,7,31,8,,,,,,,,,,,,,,,,,,,,310.08078829501756,310.08078829501756,310.08078829501756,310.08078829501756,310.08078829501756,310.08078829501756,310.08078829501756,310.08078829501756,310.08078829501756,310.08078829501756,l,0.5582062897738069,10,458,1,310.6660925440956,312.16689374204725,312.16689374204725,,,,,,,,,,,,,,,,,,,,,,,,,,40408,2022-11-16_10h16.13.931,vts_reward_expectancy_bt_OFFLINE,2022.2.4,60.01775918754871,
0,0,1,0,0,1,0,0,hexagon,circle,1,0,1,0,2,8,32,7,,,,,,,,,,,,,,,,,,,,312.6669695950113,312.6669695950113,312.6669695950113,312.6669695950113,312.6669695950113,312.6669695950113,312.6669695950113,312.6669695950113,312.6669695950113,312.6669695950113,l,0.42540051974356174,1,459,1,313.11876849015243,,314.6343846102245,,,,,,,,,,,,,,,,,,,,,,,,,,40408,2022-11-16_10h16.13.931,vts_reward_expectancy_bt_OFFLINE,2022.2.4,60.01775918754871,
0,1,0,0,0,0,1,0,circle,hexagon,1,0,1,0,2,9,33,4,,,,,,,,,,,,,,,,,,,,315.13432657904923,315.13432657904923,315.13432657904923,315.13432657904923,315.13432657904923,315.13432657904923,315.13432657904923,315.13432657904923,315.13432657904923,315.13432657904923,l,0.09491130174137652,1,460,1,315.2509603460785,,316.75353236100636,,,,,,,,,,,,,,,,,,,,,,,,,,40408,2022-11-16_10h16.13.931,vts_reward_expectancy_bt_OFFLINE,2022.2.4,60.01775918754871,
0,1,0,0,1,0,0,0,circle,triangle,1,0,1,0,2,10,34,3,,,,,,,,,,,,,,,,,,,,317.25385001604445,317.25385001604445,317.25385001604445,317.25385001604445,317.25385001604445,317.25385001604445,317.25385001604445,317.25385001604445,317.25385001604445,317.25385001604445,l,0.48478717380203307,10,470,1,317.7705910850782,319.27095247106627,319.27095247106627,319.7711716890335,,,,,,,,,,,,,,,,,,,,,,,,,40408,2022-11-16_10h16.13.931,vts_reward_expectancy_bt_OFFLINE,2022.2.4,60.01775918754871,
0,0,0,1,0,1,0,0,star ,circle,1,0,1,0,2,11,35,10,,,,,,,,,,,,,,,,,,,,319.7711716890335,319.7711716890335,319.7711716890335,319.7711716890335,319.7711716890335,319.7711716890335,319.7711716890335,319.7711716890335,319.7711716890335,319.7711716890335,a,0.3640059446915984,10,480,1,320.1547447661869,,321.6570290911477,,,,,,,,,,,,,,,,,,,,,,,,,,40408,2022-11-16_10h16.13.931,vts_reward_expectancy_bt_OFFLINE,2022.2.4,60.01775918754871,
0,1,0,0,0,0,0,1,circle,star,1,0,1,0,3,0,36,5,,,,,,,,,,,,,,,,,,,,322.1574953380041,322.1574953380041,322.1574953380041,322.1574953380041,322.1574953380041,322.1574953380041,322.1574953380041,322.1574953380041,322.1574953380041,322.1574953380041,a,0.025280741741880774,1,481,1,322.20851249201223,323.7076320121996,323.7076320121996,324.20812995219603,,,,,,,,,,,,,,,,,,,,,,,,,40408,2022-11-16_10h16.13.931,vts_reward_expectancy_bt_OFFLINE,2022.2.4,60.01775918754871,
0,0,0,1,0,1,0,0,star ,circle,1,0,1,0,3,1,37,10,,,,,,,,,,,,,,,,,,,,324.20812995219603,324.20812995219603,324.20812995219603,324.20812995219603,324.20812995219603,324.20812995219603,324.20812995219603,324.20812995219603,324.20812995219603,324.20812995219603,l,0.48256320389918983,1,482,1,324.7081299680285,,326.2105124911759,,,,,,,,,,,,,,,,,,,,,,,,,,40408,2022-11-16_10h16.13.931,vts_reward_expectancy_bt_OFFLINE,2022.2.4,60.01775918754871,
0,1,0,0,0,0,1,0,circle,hexagon,1,0,1,0,3,2,38,4,,,,,,,,,,,,,,,,,,,,326.71082500205375,326.71082500205375,326.71082500205375,326.71082500205375,326.71082500205375,326.71082500205375,326.71082500205375,326.71082500205375,326.71082500205375,326.71082500205375,a,0.028558590915054083,10,492,1,326.76221738313325,328.26124508911744,328.26124508911744,328.7615675961133,,,,,,,,,,,,,,,,,,,,,,,,,40408,2022-11-16_10h16.13.931,vts_reward_expectancy_bt_OFFLINE,2022.2.4,60.01775918754871,
1,0,0,0,0,0,0,1,triangle,star,1,0,1,0,3,3,39,2,,,,,,,,,,,,,,,,,,,,328.7615675961133,328.7615675961133,328.7615675961133,328.7615675961133,328.7615675961133,328.7615675961133,328.7615675961133,328.7615675961133,328.7615675961133,328.7615675961133,a,0.27320106187835336,10,502,1,329.0616264641285,,330.56394531112164,,,,,,,,,,,,,,,,,,,,,,,,,,40408,2022-11-16_10h16.13.931,vts_reward_expectancy_bt_OFFLINE,2022.2.4,60.01775918754871,
0,0,1,0,1,0,0,0,hexagon,triangle,1,0,1,0,3,4,40,6,,,,,,,,,,,,,,,,,,,,331.06417652918026,331.06417652918026,331.06417652918026,331.06417652918026,331.06417652918026,331.06417652918026,331.06417652918026,331.06417652918026,331.06417652918026,331.06417652918026,l,0.3886967918369919,10,512,1,331.48096762713976,332.9815989700146,332.9815989700146,,,,,,,,,,,,,,,,,,,,,,,,,,40408,2022-11-16_10h16.13.931,vts_reward_expectancy_bt_OFFLINE,2022.2.4,60.01775918754871,
0,0,1,0,0,1,0,0,hexagon,circle,1,0,1,0,3,5,41,7,,,,,,,,,,,,,,,,,,,,333.4817358942237,333.4817358942237,333.4817358942237,333.4817358942237,333.4817358942237,333.4817358942237,333.4817358942237,333.4817358942237,333.4817358942237,333.4817358942237,l,0.5246232359204441,1,513,1,334.0328842990566,335.5304562160745,335.5304562160745,,,,,,,,,,,,,,,,,,,,,,,,,,40408,2022-11-16_10h16.13.931,vts_reward_expectancy_bt_OFFLINE,2022.2.4,60.01775918754871,
1,0,0,0,0,1,0,0,triangle,circle,1,0,1,0,3,6,42,0,,,,,,,,,,,,,,,,,,,,336.03455710201524,336.03455710201524,336.03455710201524,336.03455710201524,336.03455710201524,336.03455710201524,336.03455710201524,336.03455710201524,336.03455710201524,336.03455710201524,l,0.8855598580557853,1,514,1,336.95166522520594,338.4519825130701,338.4519825130701,338.95219163922593,,,,,,,,,,,,,,,,,,,,,,,,,40408,2022-11-16_10h16.13.931,vts_reward_expectancy_bt_OFFLINE,2022.2.4,60.01775918754871,
0,0,0,1,1,0,0,0,star,triangle,1,0,1,0,3,7,43,9,,,,,,,,,,,,,,,,,,,,338.95219163922593,338.95219163922593,338.95219163922593,338.95219163922593,338.95219163922593,338.95219163922593,338.95219163922593,338.95219163922593,338.95219163922593,338.95219163922593,a,0.31935621285811067,1,515,1,339.302103736205,,340.80485995602794,,,,,,,,,,,,,,,,,,,,,,,,,,40408,2022-11-16_10h16.13.931,vts_reward_expectancy_bt_OFFLINE,2022.2.4,60.01775918754871,
0,0,1,0,0,0,0,1,hexagon,star,1,0,1,0,3,8,44,8,,,,,,,,,,,,,,,,,,,,341.3048046731856,341.3048046731856,341.3048046731856,341.3048046731856,341.3048046731856,341.3048046731856,341.3048046731856,341.3048046731856,341.3048046731856,341.3048046731856,l,0.33001300296746194,10,525,1,341.6564847182017,343.1555594562087,343.1555594562087,343.6556595591828,,,,,,,,,,,,,,,,,,,,,,,,,40408,2022-11-16_10h16.13.931,vts_reward_expectancy_bt_OFFLINE,2022.2.4,60.01775918754871,
0,1,0,0,1,0,0,0,circle,triangle,1,0,1,0,3,9,45,3,,,,,,,,,,,,,,,,,,,,343.6556595591828,343.6556595591828,343.6556595591828,343.6556595591828,343.6556595591828,343.6556595591828,343.6556595591828,343.6556595591828,343.6556595591828,343.6556595591828,a,0.4207352106459439,1,526,1,344.106982531026,,345.6080684030894,,,,,,,,,,,,,,,,,,,,,,,,,,40408,2022-11-16_10h16.13.931,vts_reward_expectancy_bt_OFFLINE,2022.2.4,60.01775918754871,
0,0,0,1,0,0,1,0,star,hexagon,1,0,1,0,3,10,46,11,,,,,,,,,,,,,,,,,,,,346.1083845652174,346.1083845652174,346.1083845652174,346.1083845652174,346.1083845652174,346.1083845652174,346.1083845652174,346.1083845652174,346.1083845652174,346.1083845652174,l,0.3757368717342615,10,536,1,346.50990177411586,348.0092058070004,348.0092058070004,,,,,,,,,,,,,,,,,,,,,,,,,,40408,2022-11-16_10h16.13.931,vts_reward_expectancy_bt_OFFLINE,2022.2.4,60.01775918754871,
1,0,0,0,0,0,1,0,triangle,hexagon,1,0,1,0,3,11,47,1,,,,,,,,,,,,,,,,,,,,348.5092296882067,348.5092296882067,348.5092296882067,348.5092296882067,348.5092296882067,348.5092296882067,348.5092296882067,348.5092296882067,348.5092296882067,348.5092296882067,a,0.3703747058752924,1,537,1,348.91057976707816,350.4100369941443,350.4100369941443,,,,,,,,,,,,,,,,,,,,,,,,,,40408,2022-11-16_10h16.13.931,vts_reward_expectancy_bt_OFFLINE,2022.2.4,60.01775918754871,
1,0,0,0,0,0,0,1,triangle,star,2,0,2,0,0,0,0,2,,,,,,,,,,,,,,,,,,,,354.0243196170777,354.0243196170777,354.0243196170777,354.0243196170777,354.0243196170777,354.0243196170777,354.0243196170777,354.0243196170777,354.0243196170777,354.0243196170777,l,1.009818485705182,10,547,2,355.06505950400606,,356.56582336407155,,,,,,,,,,,,,,,,,,,,,,,,,,40408,2022-11-16_10h16.13.931,vts_reward_expectancy_bt_OFFLINE,2022.2.4,60.01775918754871,
0,0,0,1,0,0,1,0,star,hexagon,2,0,2,0,0,1,1,11,,,,,,,,,,,,,,,,,,,,357.06609632913023,357.06609632913023,357.06609632913023,357.06609632913023,357.06609632913023,357.06609632913023,357.06609632913023,357.06609632913023,357.06609632913023,357.06609632913023,a,0.5219561860430986,1,548,2,357.61768473219126,359.1167894601822,359.1167894601822,359.6169581671711,,,,,,,,,,,,,,,,,,,,,,,,,40408,2022-11-16_10h16.13.931,vts_reward_expectancy_bt_OFFLINE,2022.2.4,60.01775918754871,
0,1,0,0,0,0,1,0,circle,hexagon,2,0,2,0,0,2,2,4,,,,,,,,,,,,,,,,,,,,359.6169581671711,359.6169581671711,359.6169581671711,359.6169581671711,359.6169581671711,359.6169581671711,359.6169581671711,359.6169581671711,359.6169581671711,359.6169581671711,l,0.40137968491762877,10,558,2,360.0504098890815,,361.5527775180526,,,,,,,,,,,,,,,,,,,,,,,,,,40408,2022-11-16_10h16.13.931,vts_reward_expectancy_bt_OFFLINE,2022.2.4,60.01775918754871,
1,0,0,0,0,0,1,0,triangle,hexagon,2,0,2,0,0,3,3,1,,,,,,,,,,,,,,,,,,,,362.0530897991266,362.0530897991266,362.0530897991266,362.0530897991266,362.0530897991266,362.0530897991266,362.0530897991266,362.0530897991266,362.0530897991266,362.0530897991266,l,0.462489997735247,10,568,2,362.5365114531014,364.0371020550374,364.0371020550374,364.53732413612306,,,,,,,,,,,,,,,,,,,,,,,,,40408,2022-11-16_10h16.13.931,vts_reward_expectancy_bt_OFFLINE,2022.2.4,60.01775918754871,
1,0,0,0,0,1,0,0,triangle,circle,2,0,2,0,0,4,4,0,,,,,,,,,,,,,,,,,,,,364.53732413612306,364.53732413612306,364.53732413612306,364.53732413612306,364.53732413612306,364.53732413612306,364.53732413612306,364.53732413612306,364.53732413612306,364.53732413612306,l,0.47570673772133887,1,569,2,365.03892250405625,,366.53980633220635,,,,,,,,,,,,,,,,,,,,,,,,,,40408,2022-11-16_10h16.13.931,vts_reward_expectancy_bt_OFFLINE,2022.2.4,60.01775918754871,
0,0,1,0,0,1,0,0,hexagon,circle,2,0,2,0,0,5,5,7,,,,,,,,,,,,,,,,,,,,367.0400322980713,367.0400322980713,367.0400322980713,367.0400322980713,367.0400322980713,367.0400322980713,367.0400322980713,367.0400322980713,367.0400322980713,367.0400322980713,a,0.5386858598794788,1,570,2,367.60689181112684,369.1072921641171,369.1072921641171,369.607523038052,,,,,,,,,,,,,,,,,,,,,,,,,40408,2022-11-16_10h16.13.931,vts_reward_expectancy_bt_OFFLINE,2022.2.4,60.01775918754871,
0,1,0,0,0,0,0,1,circle,star,2,0,2,0,0,6,6,5,,,,,,,,,,,,,,,,,,,,369.607523038052,369.607523038052,369.607523038052,369.607523038052,369.607523038052,369.607523038052,369.607523038052,369.607523038052,369.607523038052,369.607523038052,l,0.4582305478397757,10,580,2,370.0926991731394,,371.59335339511745,,,,,,,,,,,,,,,,,,,,,,,,,,40408,2022-11-16_10h16.13.931,vts_reward_expectancy_bt_OFFLINE,2022.2.4,60.01775918754871,
0,0,1,0,0,0,0,1,hexagon,star,2,0,2,0,0,7,7,8,,,,,,,,,,,,,,,,,,,,372.09385023103096,372.09385023103096,372.09385023103096,372.09385023103096,372.09385023103096,372.09385023103096,372.09385023103096,372.09385023103096,372.09385023103096,372.09385023103096,l,0.6146166787948459,1,581,2,372.7291328141,,374.2444498850964,,,,,,,,,,,,,,,,,,,,,,,,,,40408,2022-11-16_10h16.13.931,vts_reward_expectancy_bt_OFFLINE,2022.2.4,60.01775918754871,
0,1,0,0,1,0,0,0,circle,triangle,2,0,2,0,0,8,8,3,,,,,,,,,,,,,,,,,,,,374.74443397508,374.74443397508,374.74443397508,374.74443397508,374.74443397508,374.74443397508,374.74443397508,374.74443397508,374.74443397508,374.74443397508,a,0.4172879939433187,1,582,2,375.1948583822232,,376.6969772831071,,,,,,,,,,,,,,,,,,,,,,,,,,40408,2022-11-16_10h16.13.931,vts_reward_expectancy_bt_OFFLINE,2022.2.4,60.01775918754871,
0,0,0,1,0,1,0,0,star ,circle,2,0,2,0,0,9,9,10,,,,,,,,,,,,,,,,,,,,377.19720543920994,377.19720543920994,377.19720543920994,377.19720543920994,377.19720543920994,377.19720543920994,377.19720543920994,377.19720543920994,377.19720543920994,377.19720543920994,l,0.4390855520032346,10,592,2,377.6657521640882,,379.1813499990385,,,,,,,,,,,,,,,,,,,,,,,,,,40408,2022-11-16_10h16.13.931,vts_reward_expectancy_bt_OFFLINE,2022.2.4,60.01775918754871,
0,0,1,0,1,0,0,0,hexagon,triangle,2,0,2,0,0,10,10,6,,,,,,,,,,,,,,,,,,,,379.68145071621984,379.68145071621984,379.68145071621984,379.68145071621984,379.68145071621984,379.68145071621984,379.68145071621984,379.68145071621984,379.68145071621984,379.68145071621984,l,0.3846986850257963,10,602,2,380.09833633410744,,381.6007691011764,,,,,,,,,,,,,,,,,,,,,,,,,,40408,2022-11-16_10h16.13.931,vts_reward_expectancy_bt_OFFLINE,2022.2.4,60.01775918754871,
0,0,0,1,1,0,0,0,star,triangle,2,0,2,0,0,11,11,9,,,,,,,,,,,,,,,,,,,,382.1008288830053,382.1008288830053,382.1008288830053,382.1008288830053,382.1008288830053,382.1008288830053,382.1008288830053,382.1008288830053,382.1008288830053,382.1008288830053,l,0.4525673957541585,10,612,2,382.58431124221534,384.0848297032062,384.0848297032062,384.58511755405925,,,,,,,,,,,,,,,,,,,,,,,,,40408,2022-11-16_10h16.13.931,vts_reward_expectancy_bt_OFFLINE,2022.2.4,60.01775918754871,
0,0,1,0,1,0,0,0,hexagon,triangle,2,0,2,0,1,0,12,6,,,,,,,,,,,,,,,,,,,,384.58511755405925,384.58511755405925,384.58511755405925,384.58511755405925,384.58511755405925,384.58511755405925,384.58511755405925,384.58511755405925,384.58511755405925,384.58511755405925,l,0.4539579367265105,1,613,2,385.0699427360669,,386.5709009980783,,,,,,,,,,,,,,,,,,,,,,,,,,40408,2022-11-16_10h16.13.931,vts_reward_expectancy_bt_OFFLINE,2022.2.4,60.01775918754871,
0,0,0,1,0,1,0,0,star ,circle,2,0,2,0,1,1,13,10,,,,,,,,,,,,,,,,,,,,387.0712626411114,387.0712626411114,387.0712626411114,387.0712626411114,387.0712626411114,387.0712626411114,387.0712626411114,387.0712626411114,387.0712626411114,387.0712626411114,a,0.48819468170404434,1,614,2,387.5880111420993,389.08859334909357,389.08859334909357,,,,,,,,,,,,,,,,,,,,,,,,,,40408,2022-11-16_10h16.13.931,vts_reward_expectancy_bt_OFFLINE,2022.2.4,60.01775918754871,
0,0,0,1,0,0,1,0,star,hexagon,2,0,2,0,1,2,14,11,,,,,,,,,,,,,,,,,,,,389.5887304840144,389.5887304840144,389.5887304840144,389.5887304840144,389.5887304840144,389.5887304840144,389.5887304840144,389.5887304840144,389.5887304840144,389.5887304840144,a,0.09763749968260527,1,615,2,389.70546875405125,,391.20770165114664,,,,,,,,,,,,,,,,,,,,,,,,,,40408,2022-11-16_10h16.13.931,vts_reward_expectancy_bt_OFFLINE,2022.2.4,60.01775918754871,
1,0,0,0,0,0,0,1,triangle,star,2,0,2,0,1,3,15,2,,,,,,,,,,,,,,,,,,,,391.70811633812264,391.70811633812264,391.70811633812264,391.70811633812264,391.70811633812264,391.70811633812264,391.70811633812264,391.70811633812264,391.70811633812264,391.70811633812264,l,0.11556384176947176,1,616,2,391.84161965711974,393.34196014120243,393.34196014120243,393.84194586309604,,,,,,,,,,,,,,,,,,,,,,,,,40408,2022-11-16_10h16.13.931,vts_reward_expectancy_bt_OFFLINE,2022.2.4,60.01775918754871,
0,0,1,0,0,0,0,1,hexagon,star,2,0,2,0,1,4,16,8,,,,,,,,,,,,,,,,,,,,393.84194586309604,393.84194586309604,393.84194586309604,393.84194586309604,393.84194586309604,393.84194586309604,393.84194586309604,393.84194586309604,393.84194586309604,393.84194586309604,l,0.31091203982941806,1,617,2,394.1757140890695,,395.6780584109947,,,,,,,,,,,,,,,,,,,,,,,,,,40408,2022-11-16_10h16.13.931,vts_reward_expectancy_bt_OFFLINE,2022.2.4,60.01775918754871,
0,0,1,0,0,1,0,0,hexagon,circle,2,0,2,0,1,5,17,7,,,,,,,,,,,,,,,,,,,,396.1778866730165,396.1778866730165,396.1778866730165,396.1778866730165,396.1778866730165,396.1778866730165,396.1778866730165,396.1778866730165,396.1778866730165,396.1778866730165,l,0.4271931149996817,1,618,2,396.628367097117,,398.1289643100463,398.62896150699817,,,,,,,,,,,,,,,,,,,,,,,,,40408,2022-11-16_10h16.13.931,vts_reward_expectancy_bt_OFFLINE,2022.2.4,60.01775918754871,
1,0,0,0,0,0,1,0,triangle,hexagon,2,0,2,0,1,6,18,1,,,,,,,,,,,,,,,,,,,,398.62896150699817,398.62896150699817,398.62896150699817,398.62896150699817,398.62896150699817,398.62896150699817,398.62896150699817,398.62896150699817,398.62896150699817,398.62896150699817,l,0.3719863628502935,1,619,2,399.02915810910054,400.5297841602005,400.5297841602005,,,,,,,,,,,,,,,,,,,,,,,,,,40408,2022-11-16_10h16.13.931,vts_reward_expectancy_bt_OFFLINE,2022.2.4,60.01775918754871,
0,0,0,1,1,0,0,0,star,triangle,2,0,2,0,1,7,19,9,,,,,,,,,,,,,,,,,,,,401.03154662111774,401.03154662111774,401.03154662111774,401.03154662111774,401.03154662111774,401.03154662111774,401.03154662111774,401.03154662111774,401.03154662111774,401.03154662111774,l,0.43329456564970315,10,629,2,401.48392457305454,,402.9993367311545,,,,,,,,,,,,,,,,,,,,,,,,,,40408,2022-11-16_10h16.13.931,vts_reward_expectancy_bt_OFFLINE,2022.2.4,60.01775918754871,
0,1,0,0,1,0,0,0,circle,triangle,2,0,2,0,1,8,20,3,,,,,,,,,,,,,,,,,,,,403.49920065212063,403.49920065212063,403.49920065212063,403.49920065212063,403.49920065212063,403.49920065212063,403.49920065212063,403.49920065212063,403.49920065212063,403.49920065212063,l,0.42961079394444823,1,630,2,403.95093184616417,405.44996828213334,405.44996828213334,,,,,,,,,,,,,,,,,,,,,,,,,,40408,2022-11-16_10h16.13.931,vts_reward_expectancy_bt_OFFLINE,2022.2.4,60.01775918754871,
1,0,0,0,0,1,0,0,triangle,circle,2,0,2,0,1,9,21,0,,,,,,,,,,,,,,,,,,,,405.9520404981449,405.9520404981449,405.9520404981449,405.9520404981449,405.9520404981449,405.9520404981449,405.9520404981449,405.9520404981449,405.9520404981449,405.9520404981449,a,0.35102227283641696,10,640,2,406.33546630619094,407.8361071960535,407.8361071960535,408.3361509011593,,,,,,,,,,,,,,,,,,,,,,,,,40408,2022-11-16_10h16.13.931,vts_reward_expectancy_bt_OFFLINE,2022.2.4,60.01775918754871,
0,1,0,0,0,0,1,0,circle,hexagon,2,0,2,0,1,10,22,4,,,,,,,,,,,,,,,,,,,,408.3361509011593,408.3361509011593,408.3361509011593,408.3361509011593,408.3361509011593,408.3361509011593,408.3361509011593,408.3361509011593,408.3361509011593,408.3361509011593,a,0.4425020788330585,10,650,2,408.8029139880091,410.30371367302723,410.30371367302723,,,,,,,,,,,,,,,,,,,,,,,,,,40408,2022-11-16_10h16.13.931,vts_reward_expectancy_bt_OFFLINE,2022.2.4,60.01775918754871,
0,1,0,0,0,0,0,1,circle,star,2,0,2,0,1,11,23,5,,,,,,,,,,,,,,,,,,,,410.8055558181368,410.8055558181368,410.8055558181368,410.8055558181368,410.8055558181368,410.8055558181368,410.8055558181368,410.8055558181368,410.8055558181368,410.8055558181368,a,0.6049672749359161,1,651,2,411.4410164440051,,412.9566318190191,,,,,,,,,,,,,,,,,,,,,,,,,,40408,2022-11-16_10h16.13.931,vts_reward_expectancy_bt_OFFLINE,2022.2.4,60.01775918754871,
1,0,0,0,0,1,0,0,triangle,circle,2,0,2,0,2,0,24,0,,,,,,,,,,,,,,,,,,,,413.45661856001243,413.45661856001243,413.45661856001243,413.45661856001243,413.45661856001243,413.45661856001243,413.45661856001243,413.45661856001243,413.45661856001243,413.45661856001243,l,0.44030918274074793,1,652,2,413.9233318660408,415.4238415372092,415.4238415372092,,,,,,,,,,,,,,,,,,,,,,,,,,40408,2022-11-16_10h16.13.931,vts_reward_expectancy_bt_OFFLINE,2022.2.4,60.01775918754871,
1,0,0,0,0,0,1,0,triangle,hexagon,2,0,2,0,2,1,25,1,,,,,,,,,,,,,,,,,,,,415.9258396900259,415.9258396900259,415.9258396900259,415.9258396900259,415.9258396900259,415.9258396900259,415.9258396900259,415.9258396900259,415.9258396900259,415.9258396900259,a,0.5025807588826865,1,653,2,416.4595887491014,417.96014216309413,417.96014216309413,418.4602040590253,,,,,,,,,,,,,,,,,,,,,,,,,40408,2022-11-16_10h16.13.931,vts_reward_expectancy_bt_OFFLINE,2022.2.4,60.01775918754871,
0,1,0,0,1,0,0,0,circle,triangle,2,0,2,0,2,2,26,3,,,,,,,,,,,,,,,,,,,,418.4602040590253,418.4602040590253,418.4602040590253,418.4602040590253,418.4602040590253,418.4602040590253,418.4602040590253,418.4602040590253,418.4602040590253,418.4602040590253,l,0.4772597998380661,1,654,2,418.9603422291111,420.4607970181387,420.4607970181387,,,,,,,,,,,,,,,,,,,,,,,,,,40408,2022-11-16_10h16.13.931,vts_reward_expectancy_bt_OFFLINE,2022.2.4,60.01775918754871,
0,1,0,0,0,0,1,0,circle,hexagon,2,0,2,0,2,3,27,4,,,,,,,,,,,,,,,,,,,,420.96305167512037,420.96305167512037,420.96305167512037,420.96305167512037,420.96305167512037,420.96305167512037,420.96305167512037,420.96305167512037,420.96305167512037,420.96305167512037,a,0.708143716910854,10,664,2,421.6984393601306,,423.21370276319794,,,,,,,,,,,,,,,,,,,,,,,,,,40408,2022-11-16_10h16.13.931,vts_reward_expectancy_bt_OFFLINE,2022.2.4,60.01775918754871,
0,0,0,1,0,0,1,0,star,hexagon,2,0,2,0,2,4,28,11,,,,,,,,,,,,,,,,,,,,423.713788934052,423.713788934052,423.713788934052,423.713788934052,423.713788934052,423.713788934052,423.713788934052,423.713788934052,423.713788934052,423.713788934052,a,0.48846944491378963,1,665,2,424.2323494751472,,425.7331549420487,,,,,,,,,,,,,,,,,,,,,,,,,,40408,2022-11-16_10h16.13.931,vts_reward_expectancy_bt_OFFLINE,2022.2.4,60.01775918754871,
0,0,0,1,0,1,0,0,star ,circle,2,0,2,0,2,5,29,10,,,,,,,,,,,,,,,,,,,,426.23315685009584,426.23315685009584,426.23315685009584,426.23315685009584,426.23315685009584,426.23315685009584,426.23315685009584,426.23315685009584,426.23315685009584,426.23315685009584,a,0.3882816128898412,1,666,2,426.6501842341386,428.15066917520016,428.15066917520016,428.6506359751802,,,,,,,,,,,,,,,,,,,,,,,,,40408,2022-11-16_10h16.13.931,vts_reward_expectancy_bt_OFFLINE,2022.2.4,60.01775918754871,
0,1,0,0,0,0,0,1,circle,star,2,0,2,0,2,6,30,5,,,,,,,,,,,,,,,,,,,,428.6506359751802,428.6506359751802,428.6506359751802,428.6506359751802,428.6506359751802,428.6506359751802,428.6506359751802,428.6506359751802,428.6506359751802,428.6506359751802,l,0.39037428773008287,10,676,2,429.07029844401404,,430.5847180772107,,,,,,,,,,,,,,,,,,,,,,,,,,40408,2022-11-16_10h16.13.931,vts_reward_expectancy_bt_OFFLINE,2022.2.4,60.01775918754871,
0,0,1,0,1,0,0,0,hexagon,triangle,2,0,2,0,2,7,31,6,,,,,,,,,,,,,,,,,,,,431.070146500133,431.070146500133,431.070146500133,431.070146500133,431.070146500133,431.070146500133,431.070146500133,431.070146500133,431.070146500133,431.070146500133,l,0.73749216995202,1,677,2,431.83904412714764,,433.3543939201627,,,,,,,,,,,,,,,,,,,,,,,,,,40408,2022-11-16_10h16.13.931,vts_reward_expectancy_bt_OFFLINE,2022.2.4,60.01775918754871,
0,0,0,1,1,0,0,0,star,triangle,2,0,2,0,2,8,32,9,,,,,,,,,,,,,,,,,,,,433.83801576006226,433.83801576006226,433.83801576006226,433.83801576006226,433.83801576006226,433.83801576006226,433.83801576006226,433.83801576006226,433.83801576006226,433.83801576006226,a,0.3436556358356029,1,678,2,434.2047089880798,,435.7072713722009,,,,,,,,,,,,,,,,,,,,,,,,,,40408,2022-11-16_10h16.13.931,vts_reward_expectancy_bt_OFFLINE,2022.2.4,60.01775918754871,
1,0,0,0,0,0,0,1,triangle,star,2,0,2,0,2,9,33,2,,,,,,,,,,,,,,,,,,,,436.20722352620214,436.20722352620214,436.20722352620214,436.20722352620214,436.20722352620214,436.20722352620214,436.20722352620214,436.20722352620214,436.20722352620214,436.20722352620214,l,0.24711304786615074,1,679,2,436.4740215030033,437.9744844951201,437.9744844951201,438.4747843630612,,,,,,,,,,,,,,,,,,,,,,,,,40408,2022-11-16_10h16.13.931,vts_reward_expectancy_bt_OFFLINE,2022.2.4,60.01775918754871,
0,0,1,0,0,1,0,0,hexagon,circle,2,0,2,0,2,10,34,7,,,,,,,,,,,,,,,,,,,,438.4747843630612,438.4747843630612,438.4747843630612,438.4747843630612,438.4747843630612,438.4747843630612,438.4747843630612,438.4747843630612,438.4747843630612,438.4747843630612,l,0.47697715391404927,1,680,2,438.9748822960537,440.4753669220954,440.4753669220954,,,,,,,,,,,,,,,,,,,,,,,,,,40408,2022-11-16_10h16.13.931,vts_reward_expectancy_bt_OFFLINE,2022.2.4,60.01775918754871,
0,0,1,0,0,0,0,1,hexagon,star,2,0,2,0,2,11,35,8,,,,,,,,,,,,,,,,,,,,440.9774542520754,440.9774542520754,440.9774542520754,440.9774542520754,440.9774542520754,440.9774542520754,440.9774542520754,440.9774542520754,440.9774542520754,440.9774542520754,l,0.2704194956459105,1,681,2,441.2775486430619,442.77825881703757,442.77825881703757,443.2782098900061,,,,,,,,,,,,,,,,,,,,,,,,,40408,2022-11-16_10h16.13.931,vts_reward_expectancy_bt_OFFLINE,2022.2.4,60.01775918754871,
0,1,0,0,0,0,1,0,circle,hexagon,2,0,2,0,3,0,36,4,,,,,,,,,,,,,,,,,,,,443.2782098900061,443.2782098900061,443.2782098900061,443.2782098900061,443.2782098900061,443.2782098900061,443.2782098900061,443.2782098900061,443.2782098900061,443.2782098900061,a,0.33222497371025383,1,682,2,443.62868368811905,445.1290053210687,445.1290053210687,,,,,,,,,,,,,,,,,,,,,,,,,,40408,2022-11-16_10h16.13.931,vts_reward_expectancy_bt_OFFLINE,2022.2.4,60.01775918754871,
0,1,0,0,1,0,0,0,circle,triangle,2,0,2,0,3,1,37,3,,,,,,,,,,,,,,,,,,,,445.63424765202217,445.63424765202217,445.63424765202217,445.63424765202217,445.63424765202217,445.63424765202217,445.63424765202217,445.63424765202217,445.63424765202217,445.63424765202217,l,0.3942404908593744,10,692,2,446.0498167220503,,447.56507518305443,,,,,,,,,,,,,,,,,,,,,,,,,,40408,2022-11-16_10h16.13.931,vts_reward_expectancy_bt_OFFLINE,2022.2.4,60.01775918754871,
0,0,1,0,0,1,0,0,hexagon,circle,2,0,2,0,3,2,38,7,,,,,,,,,,,,,,,,,,,,448.0486496340018,448.0486496340018,448.0486496340018,448.0486496340018,448.0486496340018,448.0486496340018,448.0486496340018,448.0486496340018,448.0486496340018,448.0486496340018,l,0.4668218868318945,1,693,2,448.5348502770066,,450.0493297742214,,,,,,,,,,,,,,,,,,,,,,,,,,40408,2022-11-16_10h16.13.931,vts_reward_expectancy_bt_OFFLINE,2022.2.4,60.01775918754871,
0,0,0,1,1,0,0,0,star,triangle,2,0,2,0,3,3,39,9,,,,,,,,,,,,,,,,,,,,450.5495496201329,450.5495496201329,450.5495496201329,450.5495496201329,450.5495496201329,450.5495496201329,450.5495496201329,450.5495496201329,450.5495496201329,450.5495496201329,l,0.44044085685163736,1,694,2,451.0179498111829,452.5186029712204,452.5186029712204,,,,,,,,,,,,,,,,,,,,,,,,,,40408,2022-11-16_10h16.13.931,vts_reward_expectancy_bt_OFFLINE,2022.2.4,60.01775918754871,
0,1,0,0,0,0,0,1,circle,star,2,0,2,0,3,4,40,5,,,,,,,,,,,,,,,,,,,,453.01898537413217,453.01898537413217,453.01898537413217,453.01898537413217,453.01898537413217,453.01898537413217,453.01898537413217,453.01898537413217,453.01898537413217,453.01898537413217,a,0.389898425899446,10,704,2,453.4379475910682,,454.9528096530121,,,,,,,,,,,,,,,,,,,,,,,,,,40408,2022-11-16_10h16.13.931,vts_reward_expectancy_bt_OFFLINE,2022.2.4,60.01775918754871,
0,0,1,0,1,0,0,0,hexagon,triangle,2,0,2,0,3,5,41,6,,,,,,,,,,,,,,,,,,,,455.45295925601386,455.45295925601386,455.45295925601386,455.45295925601386,455.45295925601386,455.45295925601386,455.45295925601386,455.45295925601386,455.45295925601386,455.45295925601386,a,0.4430002679582685,1,705,2,455.9239026061259,,457.43907164619304,,,,,,,,,,,,,,,,,,,,,,,,,,40408,2022-11-16_10h16.13.931,vts_reward_expectancy_bt_OFFLINE,2022.2.4,60.01775918754871,
1,0,0,0,0,1,0,0,triangle,circle,2,0,2,0,3,6,42,0,,,,,,,,,,,,,,,,,,,,457.93899533804506,457.93899533804506,457.93899533804506,457.93899533804506,457.93899533804506,457.93899533804506,457.93899533804506,457.93899533804506,457.93899533804506,457.93899533804506,l,0.40911725675687194,10,715,2,458.3747401051223,,459.8901326470077,,,,,,,,,,,,,,,,,,,,,,,,,,40408,2022-11-16_10h16.13.931,vts_reward_expectancy_bt_OFFLINE,2022.2.4,60.01775918754871,
0,0,0,1,0,0,1,0,star,hexagon,2,0,2,0,3,7,43,11,,,,,,,,,,,,,,,,,,,,460.3734102922026,460.3734102922026,460.3734102922026,460.3734102922026,460.3734102922026,460.3734102922026,460.3734102922026,460.3734102922026,460.3734102922026,460.3734102922026,l,0.37082158168777823,1,716,2,460.77536041405983,462.27578666317277,462.27578666317277,462.7758551482111,,,,,,,,,,,,,,,,,,,,,,,,,40408,2022-11-16_10h16.13.931,vts_reward_expectancy_bt_OFFLINE,2022.2.4,60.01775918754871,
0,0,1,0,0,0,0,1,hexagon,star,2,0,2,0,3,8,44,8,,,,,,,,,,,,,,,,,,,,462.7758551482111,462.7758551482111,462.7758551482111,462.7758551482111,462.7758551482111,462.7758551482111,462.7758551482111,462.7758551482111,462.7758551482111,462.7758551482111,a,0.35449401987716556,10,726,2,463.16192535916343,,464.6768422720488,,,,,,,,,,,,,,,,,,,,,,,,,,40408,2022-11-16_10h16.13.931,vts_reward_expectancy_bt_OFFLINE,2022.2.4,60.01775918754871,
0,0,0,1,0,1,0,0,star ,circle,2,0,2,0,3,9,45,10,,,,,,,,,,,,,,,,,,,,465.1770292590372,465.1770292590372,465.1770292590372,465.1770292590372,465.1770292590372,465.1770292590372,465.1770292590372,465.1770292590372,465.1770292590372,465.1770292590372,a,0.41661312780342996,10,736,2,465.6107462591026,,467.1129284182098,,,,,,,,,,,,,,,,,,,,,,,,,,40408,2022-11-16_10h16.13.931,vts_reward_expectancy_bt_OFFLINE,2022.2.4,60.01775918754871,
1,0,0,0,0,0,0,1,triangle,star,2,0,2,0,3,10,46,2,,,,,,,,,,,,,,,,,,,,467.6129585590679,467.6129585590679,467.6129585590679,467.6129585590679,467.6129585590679,467.6129585590679,467.6129585590679,467.6129585590679,467.6129585590679,467.6129585590679,a,0.4002963479142636,1,737,2,468.03222241811454,,469.54715239605866,,,,,,,,,,,,,,,,,,,,,,,,,,40408,2022-11-16_10h16.13.931,vts_reward_expectancy_bt_OFFLINE,2022.2.4,60.01775918754871,
1,0,0,0,0,0,1,0,triangle,hexagon,2,0,2,0,3,11,47,1,,,,,,,,,,,,,,,,,,,,470.04707325901836,470.04707325901836,470.04707325901836,470.04707325901836,470.04707325901836,470.04707325901836,470.04707325901836,470.04707325901836,470.04707325901836,470.04707325901836,l,0.3281018550042063,1,738,2,470.39732704800554,,471.8995909690857,,,,,,,,,,,,,,,,,,,,,,,,,,40408,2022-11-16_10h16.13.931,vts_reward_expectancy_bt_OFFLINE,2022.2.4,60.01775918754871,
,,,,,,,,,,,,,,,,,,0,0,0,0,0,0,0,0,,,,,,,,,,,,,,,,,,,,,,,,,,,,,520.033562754048,,S,132,star,0.01732087484560907,514.6594976221677,516.1319567169994,516.1319567169994,516.1319567169994,1,0,f,2.362690527923405,0,518.519720910117,,,,,,,,,,,40408,2022-11-16_10h16.13.931,vts_reward_expectancy_bt_OFFLINE,2022.2.4,60.01775918754871,
,,,,,,,,,,,,,,,,,,0,0,0,0,1,0,1,0,,,,,,,,,,,,,,,,,,,,,,,,,,,,,525.1205473442096,525.6205148280133,W,139,triangle,0.0004091800656169653,521.0136405150406,522.5028208540753,522.5028208540753,522.5028208540753,1,0,f,1.099492992972955,0,523.6202694580425,525.1205473442096,,,,,,,,,,40408,2022-11-16_10h16.13.931,vts_reward_expectancy_bt_OFFLINE,2022.2.4,60.01775918754871,
,,,,,,,,,,,,,,,,,,0,0,0,0,2,0,2,0,,,,,,,,,,,,,,,,,,,,,,,,,,,,,529.8907282031141,530.3909733421169,Y,160,circle,9.442213922739029e-05,526.1171172941104,527.60653774417,527.60653774417,527.60653774417,1,0,f,0.7659810557961464,0,528.3904314041138,529.8907282031141,,,,,,,,,,40408,2022-11-16_10h16.13.931,vts_reward_expectancy_bt_OFFLINE,2022.2.4,60.01775918754871,
,,,,,,,,,,,,,,,,,,0,0,0,0,3,0,3,0,,,,,,,,,,,,,,,,,,,,,,,,,,,,,534.5943093150854,535.0942854371388,B,181,hexagon,0.0006303130649030209,530.8874932511244,532.3768212581053,532.3768212581053,532.3768212581053,1,0,d,0.686448689782992,0,533.0940462090075,534.5943093150854,,,,,,,,,,40408,2022-11-16_10h16.13.931,vts_reward_expectancy_bt_OFFLINE,2022.2.4,60.01775918754871,
,,,,,,,,,,,,,,,,,,0,0,0,0,4,0,4,0,,,,,,,,,,,,,,,,,,,,,,,,,,,,,539.3978448410053,,U,125,circle,0.0003693320322781801,535.5910597559996,537.0803211291786,537.0803211291786,537.0803211291786,1,0,f,0.7989513138309121,0,537.8974724160507,539.3978448410053,,,,,,,,,,40408,2022-11-16_10h16.13.931,vts_reward_expectancy_bt_OFFLINE,2022.2.4,60.01775918754871,
,,,,,,,,,,,,,,,,,,0,0,0,0,5,0,5,0,,,,,,,,,,,,,,,,,,,,,,,,,,,,,544.1680199841503,544.668191940058,F,167,star,0.00032640411518514156,540.3938680991996,541.8838685650844,541.8838685650844,541.8838685650844,1,0,d,0.7660599099472165,0,542.6680222121067,544.1680199841503,,,,,,,,,,40408,2022-11-16_10h16.13.931,vts_reward_expectancy_bt_OFFLINE,2022.2.4,60.01775918754871,
,,,,,,,,,,,,,,,,,,0,0,0,0,6,0,6,0,,,,,,,,,,,,,,,,,,,,,,,,,,,,,548.8714366671629,549.3717567832209,D,174,hexagon,0.0004858989268541336,545.1648234510794,546.6541265400592,546.6541265400592,546.6541265400592,1,0,d,0.6979568868409842,0,547.3714421410114,548.8714366671629,,,,,,,,,,40408,2022-11-16_10h16.13.931,vts_reward_expectancy_bt_OFFLINE,2022.2.4,60.01775918754871,
,,,,,,,,,,,,,,,,,,0,0,0,0,7,0,7,0,,,,,,,,,,,,,,,,,,,,,,,,,,,,,553.6585621661507,554.1587341472041,H,146,triangle,0.00044948910363018513,549.867790490156,551.3575327701401,551.3575327701401,551.3575327701401,1,0,d,0.776480441680178,0,552.1580727100372,553.6585621661507,,,,,,,,,,40408,2022-11-16_10h16.13.931,vts_reward_expectancy_bt_OFFLINE,2022.2.4,60.01775918754871,
,,,,,,,,,,,,,,,,,,0,0,0,0,8,0,8,0,,,,,,,,,,,,,,,,,,,,,,,,,,,,,558.928840595996,559.4291025940329,S,132,hexagon,0.000585935078561306,554.6543014491908,556.1443902971223,556.1443902971223,556.1443902971223,1,0,f,1.2541657567489892,0,557.4286341711413,558.928840595996,,,,,,,,,,40408,2022-11-16_10h16.13.931,vts_reward_expectancy_bt_OFFLINE,2022.2.4,60.01775918754871,
,,,,,,,,,,,,,,,,,,0,0,0,0,9,0,9,0,,,,,,,,,,,,,,,,,,,,,,,,,,,,,563.7158207830507,564.2262175411452,W,139,star,0.0004574339836835861,559.9247192970943,561.4148338062223,561.4148338062223,561.4148338062223,1,0,f,0.7760875609237701,0,562.2153581120074,563.7158207830507,,,,,,,,,,40408,2022-11-16_10h16.13.931,vts_reward_expectancy_bt_OFFLINE,2022.2.4,60.01775918754871,
,,,,,,,,,,,,,,,,,,,,,,,,,,0,0,0,0,0,0,0,0,,,,,,,,,,,,,,,,,,,,,598.1909388210624,,H,146,star,0.00266171689145267,,,,,0,0,,,1,596.6903971862048,,592.1827086191624,593.6708212541416,593.6708212541416,593.6708212541416,596.6738499021158,596.6738499021158,596.6738499021158,None,,40408,2022-11-16_10h16.13.931,vts_reward_expectancy_bt_OFFLINE,2022.2.4,60.01775918754871,
,,,,,,,,,,,,,,,,,,,,,,,,,,0,0,0,0,1,0,1,0,,,,,,,,,,,,,,,,,,,,,603.3279627561569,,D,174,hexagon,0.006582354893907905,,,,,1,1,,,1,601.8132242010906,,599.1865919590928,600.6753012880217,600.6753012880217,600.6753012880217,,,,k,1.1069600977934897,40408,2022-11-16_10h16.13.931,vts_reward_expectancy_bt_OFFLINE,2022.2.4,60.01775918754871,
,,,,,,,,,,,,,,,,,,,,,,,,,,0,0,0,0,2,0,2,0,,,,,,,,,,,,,,,,,,,,,608.015001477208,,W,125,circle,0.01698076189495623,,,,,1,0,,,1,606.5147553361021,608.015001477208,604.3238371692132,605.7975447732024,605.7975447732024,605.7975447732024,,,,j,0.698762449901551,40408,2022-11-16_10h16.13.931,vts_reward_expectancy_bt_OFFLINE,2022.2.4,60.01775918754871,
,,,,,,,,,,,,,,,,,,,,,,,,,,0,0,0,0,3,0,3,0,,,,,,,,,,,,,,,,,,,,,612.6517411731184,613.1517889460083,U,181,triangle,0.00043187011033296585,,,,,1,0,,,1,611.1516602691263,612.6517411731184,609.010984556051,610.4992465660907,610.4992465660907,610.4992465660907,,,,k,0.6208148547448218,40408,2022-11-16_10h16.13.931,vts_reward_expectancy_bt_OFFLINE,2022.2.4,60.01775918754871,
,,,,,,,,,,,,,,,,,,,,,,,,,,0,0,0,0,4,0,4,0,,,,,,,,,,,,,,,,,,,,,617.2553356310818,,F,132,star,0.0005558829288929701,,,,,1,0,,,1,615.7497553771827,,613.6474277081434,615.1358348331414,615.1358348331414,615.1358348331414,,,,j,0.5980655178427696,40408,2022-11-16_10h16.13.931,vts_reward_expectancy_bt_OFFLINE,2022.2.4,60.01775918754871,
,,,,,,,,,,,,,,,,,,,,,,,,,,0,0,0,0,5,0,5,0,,,,,,,,,,,,,,,,,,,,,621.8418223550543,,Y,139,hexagon,0.0038318538572639227,,,,,1,0,,,1,620.3400566012133,,618.2509736141656,619.7395436291117,619.7395436291117,619.7395436291117,,,,j,0.5720946888905019,40408,2022-11-16_10h16.13.931,vts_reward_expectancy_bt_OFFLINE,2022.2.4,60.01775918754871,
,,,,,,,,,,,,,,,,,,,,,,,,,,0,0,0,0,6,0,6,0,,,,,,,,,,,,,,,,,,,,,626.69550674106,,S,160,triangle,0.0022479610051959753,,,,,0,0,,,1,625.1930870090146,,622.8372471991461,624.3264560990501,624.3264560990501,624.3264560990501,,,,j,0.8345289127901196,40408,2022-11-16_10h16.13.931,vts_reward_expectancy_bt_OFFLINE,2022.2.4,60.01775918754871,
,,,,,,,,,,,,,,,,,,,,,,,,,,0,0,0,0,7,0,7,0,,,,,,,,,,,,,,,,,,,,,631.4323400671128,,B,167,circle,0.0013609149027615786,,,,,1,1,,,1,629.9455897591542,,627.691168025136,629.1796746691689,629.1796746691689,629.1796746691689,,,,k,0.7286107128020376,40408,2022-11-16_10h16.13.931,vts_reward_expectancy_bt_OFFLINE,2022.2.4,60.01775918754871,
,,,,,,,,,,,,,,,,,,,,,,,,,,0,0,0,0,8,0,8,0,,,,,,,,,,,,,,,,,,,,,636.4528227350675,,H,146,hexagon,0.0018166799563914537,,,,,1,0,,,1,634.9509671060368,,632.4272878190968,633.9166602871846,633.9166602871846,633.9166602871846,,,,j,1.0095048069488257,40408,2022-11-16_10h16.13.931,vts_reward_expectancy_bt_OFFLINE,2022.2.4,60.01775918754871,
,,,,,,,,,,,,,,,,,,,,,,,,,,0,0,0,0,9,0,9,0,,,,,,,,,,,,,,,,,,,,,641.1395816020668,,D,174,circle,0.00182447605766356,,,,,1,0,,,1,639.6379678871017,,637.4479692990426,638.9369509280659,638.9369509280659,638.9369509280659,,,,k,0.6813388238660991,40408,2022-11-16_10h16.13.931,vts_reward_expectancy_bt_OFFLINE,2022.2.4,60.01775918754871,
