LTriangleOpac,LCircleOpac,LHexagonOpac,LStarOpac,RTriangleOpac,RCircleOpac,RHexagonOpac,RStarOpac,LShape_ID,RShape_ID,training_blocks.thisRepN,training_blocks.thisTrialN,training_blocks.thisN,training_blocks.thisIndex,training.thisRepN,training.thisTrialN,training.thisN,training.thisIndex,task1_prac_redo.thisRepN,task1_prac_redo.thisTrialN,task1_prac_redo.thisN,task1_prac_redo.thisIndex,key_resp.started,key_resp.keys,key_resp.rt,left_circle.started,right_circle.started,left_triangle.started,right_triangle.started,left_star.started,right_star.started,left_hexagon.started,right_hexagon.started,training_fix.started,training_resp.started,training_resp.keys,training_resp.rt,points_trial,points_cumul,trainBlock,training_feedback_txt.started,fix.started,training_feedback_txt.stopped,fix.stopped,participant,date,expName,psychopyVersion,frameRate,
,,,,,,,,,,,,,,,,,,,,,,596.4928080889949,space,14.711284328994225,,,,,,,,,,,,,,,,,,,,40673,2022-10-26_14h41.08.712,vts_reward_expectancy_bt_OFFLINE,2022.2.4,60.10340526239601,
0,1,0,0,0,0,1,0,circle,hexagon,0,0,0,0,0,0,0,4,,,,,,,,638.8900115040014,638.8900115040014,638.8900115040014,638.8900115040014,638.8900115040014,638.8900115040014,638.8900115040014,638.8900115040014,638.8900115040014,638.8900115040014,a,1.641955348997726,10,10,0,640.5581166589982,642.0596153189981,,,40673,2022-10-26_14h41.08.712,vts_reward_expectancy_bt_OFFLINE,2022.2.4,60.10340526239601,
0,0,0,1,0,0,1,0,star,hexagon,0,0,0,0,0,1,1,11,,,,,,,,642.5601949980046,642.5601949980046,642.5601949980046,642.5601949980046,642.5601949980046,642.5601949980046,642.5601949980046,642.5601949980046,642.5601949980046,642.5601949980046,l,1.3869438120018458,1,11,0,643.9787149699987,645.4802363350027,645.4802363350027,,40673,2022-10-26_14h41.08.712,vts_reward_expectancy_bt_OFFLINE,2022.2.4,60.10340526239601,
0,0,0,1,0,1,0,0,star ,circle,0,0,0,0,0,2,2,10,,,,,,,,645.9805551690079,645.9805551690079,645.9805551690079,645.9805551690079,645.9805551690079,645.9805551690079,645.9805551690079,645.9805551690079,645.9805551690079,645.9805551690079,a,0.6013816949998727,1,12,0,646.6145759719948,648.116226779006,,,40673,2022-10-26_14h41.08.712,vts_reward_expectancy_bt_OFFLINE,2022.2.4,60.10340526239601,
1,0,0,0,0,1,0,0,triangle,circle,0,0,0,0,0,3,3,0,,,,,,,,648.6170604180079,648.6170604180079,648.6170604180079,648.6170604180079,648.6170604180079,648.6170604180079,648.6170604180079,648.6170604180079,648.6170604180079,648.6170604180079,l,0.8025420090125408,10,22,0,649.4511152549967,650.9528567380039,,,40673,2022-10-26_14h41.08.712,vts_reward_expectancy_bt_OFFLINE,2022.2.4,60.10340526239601,
1,0,0,0,0,0,1,0,triangle,hexagon,0,0,0,0,0,4,4,1,,,,,,,,651.4533990790078,651.4533990790078,651.4533990790078,651.4533990790078,651.4533990790078,651.4533990790078,651.4533990790078,651.4533990790078,651.4533990790078,651.4533990790078,l,1.430696320006973,1,23,0,652.9050225789979,654.4066214320046,,,40673,2022-10-26_14h41.08.712,vts_reward_expectancy_bt_OFFLINE,2022.2.4,60.10340526239601,
0,0,1,0,0,0,0,1,hexagon,star,0,0,0,0,0,5,5,8,,,,,,,,654.9072959089972,654.9072959089972,654.9072959089972,654.9072959089972,654.9072959089972,654.9072959089972,654.9072959089972,654.9072959089972,654.9072959089972,654.9072959089972,a,0.8247993999975733,10,33,0,655.7580911900004,657.259881979,,,40673,2022-10-26_14h41.08.712,vts_reward_expectancy_bt_OFFLINE,2022.2.4,60.10340526239601,
0,0,0,1,1,0,0,0,star,triangle,0,0,0,0,0,6,6,9,,,,,,,,657.7605263150035,657.7605263150035,657.7605263150035,657.7605263150035,657.7605263150035,657.7605263150035,657.7605263150035,657.7605263150035,657.7605263150035,657.7605263150035,a,1.0853513839974767,10,43,0,658.878388630008,660.3797873129952,,,40673,2022-10-26_14h41.08.712,vts_reward_expectancy_bt_OFFLINE,2022.2.4,60.10340526239601,
1,0,0,0,0,0,0,1,triangle,star,0,0,0,0,0,7,7,2,,,,,,,,660.8804273870046,660.8804273870046,660.8804273870046,660.8804273870046,660.8804273870046,660.8804273870046,660.8804273870046,660.8804273870046,660.8804273870046,660.8804273870046,l,0.8351552629901562,10,53,0,661.7480806030071,663.2495094470069,,,40673,2022-10-26_14h41.08.712,vts_reward_expectancy_bt_OFFLINE,2022.2.4,60.10340526239601,
0,0,1,0,0,1,0,0,hexagon,circle,0,0,0,0,0,8,8,7,,,,,,,,663.7501645000011,663.7501645000011,663.7501645000011,663.7501645000011,663.7501645000011,663.7501645000011,663.7501645000011,663.7501645000011,663.7501645000011,663.7501645000011,l,0.46103676699567586,10,63,0,664.2343614300044,665.7357547029969,665.7357547029969,,40673,2022-10-26_14h41.08.712,vts_reward_expectancy_bt_OFFLINE,2022.2.4,60.10340526239601,
0,1,0,0,1,0,0,0,circle,triangle,0,0,0,0,0,9,9,3,,,,,,,,666.2363666940073,666.2363666940073,666.2363666940073,666.2363666940073,666.2363666940073,666.2363666940073,666.2363666940073,666.2363666940073,666.2363666940073,666.2363666940073,a,0.6405137020046823,10,73,0,666.9036575240025,668.4055007790012,,,40673,2022-10-26_14h41.08.712,vts_reward_expectancy_bt_OFFLINE,2022.2.4,60.10340526239601,
0,0,1,0,1,0,0,0,hexagon,triangle,0,0,0,0,0,10,10,6,,,,,,,,668.9060673180065,668.9060673180065,668.9060673180065,668.9060673180065,668.9060673180065,668.9060673180065,668.9060673180065,668.9060673180065,668.9060673180065,668.9060673180065,a,1.0349094220000552,10,83,0,669.9740141899965,671.4754047800088,,,40673,2022-10-26_14h41.08.712,vts_reward_expectancy_bt_OFFLINE,2022.2.4,60.10340526239601,
0,1,0,0,0,0,0,1,circle,star,0,0,0,0,0,11,11,5,,,,,,,,671.9760414900084,671.9760414900084,671.9760414900084,671.9760414900084,671.9760414900084,671.9760414900084,671.9760414900084,671.9760414900084,671.9760414900084,671.9760414900084,a,1.3950947400007863,10,93,0,673.3943055470008,674.8961459340062,,,40673,2022-10-26_14h41.08.712,vts_reward_expectancy_bt_OFFLINE,2022.2.4,60.10340526239601,
0,0,0,1,0,1,0,0,star ,circle,0,0,0,0,1,0,12,10,,,,,,,,675.3964892020012,675.3964892020012,675.3964892020012,675.3964892020012,675.3964892020012,675.3964892020012,675.3964892020012,675.3964892020012,675.3964892020012,675.3964892020012,l,0.6159762919996865,10,103,0,676.0305616080004,677.532159594004,,,40673,2022-10-26_14h41.08.712,vts_reward_expectancy_bt_OFFLINE,2022.2.4,60.10340526239601,
0,0,0,1,1,0,0,0,star,triangle,0,0,0,0,1,1,13,9,,,,,,,,678.0330036480009,678.0330036480009,678.0330036480009,678.0330036480009,678.0330036480009,678.0330036480009,678.0330036480009,678.0330036480009,678.0330036480009,678.0330036480009,a,0.6589773739979137,10,113,0,678.7167906329996,680.2183402990049,,,40673,2022-10-26_14h41.08.712,vts_reward_expectancy_bt_OFFLINE,2022.2.4,60.10340526239601,
0,1,0,0,1,0,0,0,circle,triangle,0,0,0,0,1,2,14,3,,,,,,,,680.7191763370065,680.7191763370065,680.7191763370065,680.7191763370065,680.7191763370065,680.7191763370065,680.7191763370065,680.7191763370065,680.7191763370065,680.7191763370065,a,0.4850134779990185,10,123,0,681.2361694370047,682.7380704640091,,,40673,2022-10-26_14h41.08.712,vts_reward_expectancy_bt_OFFLINE,2022.2.4,60.10340526239601,
0,1,0,0,0,0,0,1,circle,star,0,0,0,0,1,3,15,5,,,,,,,,683.2385765289946,683.2385765289946,683.2385765289946,683.2385765289946,683.2385765289946,683.2385765289946,683.2385765289946,683.2385765289946,683.2385765289946,683.2385765289946,a,0.46859407098963857,10,133,0,683.7388605320011,685.2405398889969,,,40673,2022-10-26_14h41.08.712,vts_reward_expectancy_bt_OFFLINE,2022.2.4,60.10340526239601,
0,0,1,0,0,0,0,1,hexagon,star,0,0,0,0,1,4,16,8,,,,,,,,685.7413868919975,685.7413868919975,685.7413868919975,685.7413868919975,685.7413868919975,685.7413868919975,685.7413868919975,685.7413868919975,685.7413868919975,685.7413868919975,l,1.061712169990642,10,143,0,686.8256581339956,688.3273533620086,,,40673,2022-10-26_14h41.08.712,vts_reward_expectancy_bt_OFFLINE,2022.2.4,60.10340526239601,
1,0,0,0,0,0,0,1,triangle,star,0,0,0,0,1,5,17,2,,,,,,,,688.8280435519991,688.8280435519991,688.8280435519991,688.8280435519991,688.8280435519991,688.8280435519991,688.8280435519991,688.8280435519991,688.8280435519991,688.8280435519991,l,0.801289920011186,10,153,0,689.6620967430063,691.1639821069984,,,40673,2022-10-26_14h41.08.712,vts_reward_expectancy_bt_OFFLINE,2022.2.4,60.10340526239601,
0,1,0,0,0,0,1,0,circle,hexagon,0,0,0,0,1,6,18,4,,,,,,,,691.6645130389952,691.6645130389952,691.6645130389952,691.6645130389952,691.6645130389952,691.6645130389952,691.6645130389952,691.6645130389952,691.6645130389952,691.6645130389952,a,0.4909219950059196,10,163,0,692.181533007999,693.6833279330021,,,40673,2022-10-26_14h41.08.712,vts_reward_expectancy_bt_OFFLINE,2022.2.4,60.10340526239601,
1,0,0,0,0,0,1,0,triangle,hexagon,0,0,0,0,1,7,19,1,,,,,,,,694.1839658289973,694.1839658289973,694.1839658289973,694.1839658289973,694.1839658289973,694.1839658289973,694.1839658289973,694.1839658289973,694.1839658289973,694.1839658289973,l,0.5643696969927987,1,164,0,694.7679546340078,696.2696062239993,,,40673,2022-10-26_14h41.08.712,vts_reward_expectancy_bt_OFFLINE,2022.2.4,60.10340526239601,
0,0,1,0,1,0,0,0,hexagon,triangle,0,0,0,0,1,8,20,6,,,,,,,,696.7702504180052,696.7702504180052,696.7702504180052,696.7702504180052,696.7702504180052,696.7702504180052,696.7702504180052,696.7702504180052,696.7702504180052,696.7702504180052,a,0.6098601109988522,1,165,0,697.4042444289953,698.9056766050053,,,40673,2022-10-26_14h41.08.712,vts_reward_expectancy_bt_OFFLINE,2022.2.4,60.10340526239601,
1,0,0,0,0,1,0,0,triangle,circle,0,0,0,0,1,9,21,0,,,,,,,,699.4063106270041,699.4063106270041,699.4063106270041,699.4063106270041,699.4063106270041,699.4063106270041,699.4063106270041,699.4063106270041,699.4063106270041,699.4063106270041,l,0.6291887879924616,10,175,0,700.0571671530051,701.5586383170012,,,40673,2022-10-26_14h41.08.712,vts_reward_expectancy_bt_OFFLINE,2022.2.4,60.10340526239601,
0,0,1,0,0,1,0,0,hexagon,circle,0,0,0,0,1,10,22,7,,,,,,,,702.0592559689976,702.0592559689976,702.0592559689976,702.0592559689976,702.0592559689976,702.0592559689976,702.0592559689976,702.0592559689976,702.0592559689976,702.0592559689976,l,0.39267072099028155,10,185,0,702.4763264619978,703.9783311619976,,,40673,2022-10-26_14h41.08.712,vts_reward_expectancy_bt_OFFLINE,2022.2.4,60.10340526239601,
0,0,0,1,0,0,1,0,star,hexagon,0,0,0,0,1,11,23,11,,,,,,,,704.4785643450014,704.4785643450014,704.4785643450014,704.4785643450014,704.4785643450014,704.4785643450014,704.4785643450014,704.4785643450014,704.4785643450014,704.4785643450014,a,0.7509558800084051,10,195,0,705.2463568590028,706.7478719369974,706.7478719369974,,40673,2022-10-26_14h41.08.712,vts_reward_expectancy_bt_OFFLINE,2022.2.4,60.10340526239601,
0,0,0,1,1,0,0,0,star,triangle,0,0,0,0,2,0,24,9,,,,,,,,707.248405218008,707.248405218008,707.248405218008,707.248405218008,707.248405218008,707.248405218008,707.248405218008,707.248405218008,707.248405218008,707.248405218008,a,1.0351640449953265,10,205,0,708.3161448430037,709.8177307370061,,,40673,2022-10-26_14h41.08.712,vts_reward_expectancy_bt_OFFLINE,2022.2.4,60.10340526239601,
1,0,0,0,0,0,1,0,triangle,hexagon,0,0,0,0,2,1,25,1,,,,,,,,710.3182379490027,710.3182379490027,710.3182379490027,710.3182379490027,710.3182379490027,710.3182379490027,710.3182379490027,710.3182379490027,710.3182379490027,710.3182379490027,l,1.0614450180000858,1,206,0,711.4028729970014,712.9044682990061,,,40673,2022-10-26_14h41.08.712,vts_reward_expectancy_bt_OFFLINE,2022.2.4,60.10340526239601,
0,0,0,1,0,0,1,0,star,hexagon,0,0,0,0,2,2,26,11,,,,,,,,713.4053371189948,713.4053371189948,713.4053371189948,713.4053371189948,713.4053371189948,713.4053371189948,713.4053371189948,713.4053371189948,713.4053371189948,713.4053371189948,a,0.8310640620038612,10,216,0,714.2560535250086,715.7575886970008,,,40673,2022-10-26_14h41.08.712,vts_reward_expectancy_bt_OFFLINE,2022.2.4,60.10340526239601,
0,1,0,0,0,0,1,0,circle,hexagon,0,0,0,0,2,3,27,4,,,,,,,,716.258115988996,716.258115988996,716.258115988996,716.258115988996,716.258115988996,716.258115988996,716.258115988996,716.258115988996,716.258115988996,716.258115988996,a,0.3697067989996867,10,226,0,716.6587000470026,718.1603774700052,,,40673,2022-10-26_14h41.08.712,vts_reward_expectancy_bt_OFFLINE,2022.2.4,60.10340526239601,
0,0,0,1,0,1,0,0,star ,circle,0,0,0,0,2,4,28,10,,,,,,,,718.6608731669985,718.6608731669985,718.6608731669985,718.6608731669985,718.6608731669985,718.6608731669985,718.6608731669985,718.6608731669985,718.6608731669985,718.6608731669985,l,0.7844878629985033,1,227,0,719.461773367002,720.9634039200027,720.9634039200027,,40673,2022-10-26_14h41.08.712,vts_reward_expectancy_bt_OFFLINE,2022.2.4,60.10340526239601,
0,0,1,0,0,1,0,0,hexagon,circle,0,0,0,0,2,5,29,7,,,,,,,,721.4638825139991,721.4638825139991,721.4638825139991,721.4638825139991,721.4638825139991,721.4638825139991,721.4638825139991,721.4638825139991,721.4638825139991,721.4638825139991,l,0.5485564199916553,10,237,0,722.0313444740023,723.5329120100068,,,40673,2022-10-26_14h41.08.712,vts_reward_expectancy_bt_OFFLINE,2022.2.4,60.10340526239601,
0,1,0,0,1,0,0,0,circle,triangle,0,0,0,0,2,6,30,3,,,,,,,,724.0333465330041,724.0333465330041,724.0333465330041,724.0333465330041,724.0333465330041,724.0333465330041,724.0333465330041,724.0333465330041,724.0333465330041,724.0333465330041,a,0.475095992005663,10,247,0,724.5338633719948,726.0356120430079,,,40673,2022-10-26_14h41.08.712,vts_reward_expectancy_bt_OFFLINE,2022.2.4,60.10340526239601,
0,0,1,0,1,0,0,0,hexagon,triangle,0,0,0,0,2,7,31,6,,,,,,,,726.5361755330086,726.5361755330086,726.5361755330086,726.5361755330086,726.5361755330086,726.5361755330086,726.5361755330086,726.5361755330086,726.5361755330086,726.5361755330086,a,0.8118849079910433,1,248,0,727.3703974840028,728.8722259930073,,,40673,2022-10-26_14h41.08.712,vts_reward_expectancy_bt_OFFLINE,2022.2.4,60.10340526239601,
0,0,1,0,0,0,0,1,hexagon,star,0,0,0,0,2,8,32,8,,,,,,,,729.3724947029987,729.3724947029987,729.3724947029987,729.3724947029987,729.3724947029987,729.3724947029987,729.3724947029987,729.3724947029987,729.3724947029987,729.3724947029987,l,0.8956679190014256,10,258,0,730.2904530090018,731.7920309750043,,,40673,2022-10-26_14h41.08.712,vts_reward_expectancy_bt_OFFLINE,2022.2.4,60.10340526239601,
1,0,0,0,0,0,0,1,triangle,star,0,0,0,0,2,9,33,2,,,,,,,,732.292662952008,732.292662952008,732.292662952008,732.292662952008,732.292662952008,732.292662952008,732.292662952008,732.292662952008,732.292662952008,732.292662952008,l,0.6010151749942452,10,268,0,732.9266061079979,734.4280854219978,,,40673,2022-10-26_14h41.08.712,vts_reward_expectancy_bt_OFFLINE,2022.2.4,60.10340526239601,
0,1,0,0,0,0,0,1,circle,star,0,0,0,0,2,10,34,5,,,,,,,,734.9286958470038,734.9286958470038,734.9286958470038,734.9286958470038,734.9286958470038,734.9286958470038,734.9286958470038,734.9286958470038,734.9286958470038,734.9286958470038,a,0.5395687950076535,10,278,0,735.4959399539948,736.9975605090003,,,40673,2022-10-26_14h41.08.712,vts_reward_expectancy_bt_OFFLINE,2022.2.4,60.10340526239601,
1,0,0,0,0,1,0,0,triangle,circle,0,0,0,0,2,11,35,0,,,,,,,,737.4984710389981,737.4984710389981,737.4984710389981,737.4984710389981,737.4984710389981,737.4984710389981,737.4984710389981,737.4984710389981,737.4984710389981,737.4984710389981,l,0.5932966429973021,10,288,0,738.1156516140036,739.6172413589957,,,40673,2022-10-26_14h41.08.712,vts_reward_expectancy_bt_OFFLINE,2022.2.4,60.10340526239601,
0,0,0,1,0,0,1,0,star,hexagon,0,0,0,0,3,0,36,11,,,,,,,,740.118136887002,740.118136887002,740.118136887002,740.118136887002,740.118136887002,740.118136887002,740.118136887002,740.118136887002,740.118136887002,740.118136887002,a,0.7182689220062457,10,298,0,740.8689493279962,742.3703400539962,,,40673,2022-10-26_14h41.08.712,vts_reward_expectancy_bt_OFFLINE,2022.2.4,60.10340526239601,
0,0,1,0,0,0,0,1,hexagon,star,0,0,0,0,3,1,37,8,,,,,,,,742.8710265650006,742.8710265650006,742.8710265650006,742.8710265650006,742.8710265650006,742.8710265650006,742.8710265650006,742.8710265650006,742.8710265650006,742.8710265650006,l,0.6685120079928311,10,308,0,743.5716698220058,745.0734144290036,,,40673,2022-10-26_14h41.08.712,vts_reward_expectancy_bt_OFFLINE,2022.2.4,60.10340526239601,
0,0,0,1,1,0,0,0,star,triangle,0,0,0,0,3,2,38,9,,,,,,,,745.5739321779984,745.5739321779984,745.5739321779984,745.5739321779984,745.5739321779984,745.5739321779984,745.5739321779984,745.5739321779984,745.5739321779984,745.5739321779984,a,0.6930740820098436,10,318,0,746.2914805720065,747.793042588004,,,40673,2022-10-26_14h41.08.712,vts_reward_expectancy_bt_OFFLINE,2022.2.4,60.10340526239601,
1,0,0,0,0,0,0,1,triangle,star,0,0,0,0,3,3,39,2,,,,,,,,748.2935350869957,748.2935350869957,748.2935350869957,748.2935350869957,748.2935350869957,748.2935350869957,748.2935350869957,748.2935350869957,748.2935350869957,748.2935350869957,l,0.5415107820008416,10,328,0,748.8608484370052,750.3627129600063,,,40673,2022-10-26_14h41.08.712,vts_reward_expectancy_bt_OFFLINE,2022.2.4,60.10340526239601,
0,0,1,0,1,0,0,0,hexagon,triangle,0,0,0,0,3,4,40,6,,,,,,,,750.8632281300088,750.8632281300088,750.8632281300088,750.8632281300088,750.8632281300088,750.8632281300088,750.8632281300088,750.8632281300088,750.8632281300088,750.8632281300088,a,1.1958112669963157,10,338,0,752.0810082700045,753.5826680530008,,,40673,2022-10-26_14h41.08.712,vts_reward_expectancy_bt_OFFLINE,2022.2.4,60.10340526239601,
0,1,0,0,0,0,0,1,circle,star,0,0,0,0,3,5,41,5,,,,,,,,754.0832470790047,754.0832470790047,754.0832470790047,754.0832470790047,754.0832470790047,754.0832470790047,754.0832470790047,754.0832470790047,754.0832470790047,754.0832470790047,a,1.2882393799955025,10,348,0,755.4013627690001,756.9033140569954,,,40673,2022-10-26_14h41.08.712,vts_reward_expectancy_bt_OFFLINE,2022.2.4,60.10340526239601,
1,0,0,0,0,0,1,0,triangle,hexagon,0,0,0,0,3,6,42,1,,,,,,,,757.4038639770006,757.4038639770006,757.4038639770006,757.4038639770006,757.4038639770006,757.4038639770006,757.4038639770006,757.4038639770006,757.4038639770006,757.4038639770006,l,2.62389652398997,1,349,0,760.0564192989987,761.5582406489993,,,40673,2022-10-26_14h41.08.712,vts_reward_expectancy_bt_OFFLINE,2022.2.4,60.10340526239601,
0,0,0,1,0,1,0,0,star ,circle,0,0,0,0,3,7,43,10,,,,,,,,762.0588175080047,762.0588175080047,762.0588175080047,762.0588175080047,762.0588175080047,762.0588175080047,762.0588175080047,762.0588175080047,762.0588175080047,762.0588175080047,a,0.7050300589908147,1,350,0,762.7926824190072,764.2943882929976,,,40673,2022-10-26_14h41.08.712,vts_reward_expectancy_bt_OFFLINE,2022.2.4,60.10340526239601,
0,1,0,0,1,0,0,0,circle,triangle,0,0,0,0,3,8,44,3,,,,,,,,764.7948654270003,764.7948654270003,764.7948654270003,764.7948654270003,764.7948654270003,764.7948654270003,764.7948654270003,764.7948654270003,764.7948654270003,764.7948654270003,a,0.4506556359992828,10,360,0,765.2623227970034,766.763806094008,766.763806094008,,40673,2022-10-26_14h41.08.712,vts_reward_expectancy_bt_OFFLINE,2022.2.4,60.10340526239601,
0,1,0,0,0,0,1,0,circle,hexagon,0,0,0,0,3,9,45,4,,,,,,,,767.264426542999,767.264426542999,767.264426542999,767.264426542999,767.264426542999,767.264426542999,767.264426542999,767.264426542999,767.264426542999,767.264426542999,a,0.651751712008263,10,370,0,767.948724050002,769.4501889649982,,,40673,2022-10-26_14h41.08.712,vts_reward_expectancy_bt_OFFLINE,2022.2.4,60.10340526239601,
1,0,0,0,0,1,0,0,triangle,circle,0,0,0,0,3,10,46,0,,,,,,,,769.951020196997,769.951020196997,769.951020196997,769.951020196997,769.951020196997,769.951020196997,769.951020196997,769.951020196997,769.951020196997,769.951020196997,l,0.43651795500773005,10,380,0,770.418050060005,771.919611143996,,,40673,2022-10-26_14h41.08.712,vts_reward_expectancy_bt_OFFLINE,2022.2.4,60.10340526239601,
0,0,1,0,0,1,0,0,hexagon,circle,0,0,0,0,3,11,47,7,,,,,,,,772.4203809440078,772.4203809440078,772.4203809440078,772.4203809440078,772.4203809440078,772.4203809440078,772.4203809440078,772.4203809440078,772.4203809440078,772.4203809440078,l,0.47205334799946286,10,390,0,772.9207067020034,774.4222499290045,,,40673,2022-10-26_14h41.08.712,vts_reward_expectancy_bt_OFFLINE,2022.2.4,60.10340526239601,
0,0,0,1,1,0,0,0,star,triangle,1,0,1,0,0,0,0,9,,,,,,,,781.4467968889949,781.4467968889949,781.4467968889949,781.4467968889949,781.4467968889949,781.4467968889949,781.4467968889949,781.4467968889949,781.4467968889949,781.4467968889949,a,0.8923715240089223,10,400,1,782.3643370729988,783.8662073820014,,,40673,2022-10-26_14h41.08.712,vts_reward_expectancy_bt_OFFLINE,2022.2.4,60.10340526239601,
1,0,0,0,0,0,0,1,triangle,star,1,0,1,0,0,1,1,2,,,,,,,,784.3666342579963,784.3666342579963,784.3666342579963,784.3666342579963,784.3666342579963,784.3666342579963,784.3666342579963,784.3666342579963,784.3666342579963,784.3666342579963,l,0.7092742030072259,10,410,1,785.1011428750062,786.6023053829995,,,40673,2022-10-26_14h41.08.712,vts_reward_expectancy_bt_OFFLINE,2022.2.4,60.10340526239601,
1,0,0,0,0,0,1,0,triangle,hexagon,1,0,1,0,0,2,2,1,,,,,,,,787.1030002729967,787.1030002729967,787.1030002729967,787.1030002729967,787.1030002729967,787.1030002729967,787.1030002729967,787.1030002729967,787.1030002729967,787.1030002729967,l,0.6766604279982857,1,411,1,787.8038343480002,789.3054994529957,,,40673,2022-10-26_14h41.08.712,vts_reward_expectancy_bt_OFFLINE,2022.2.4,60.10340526239601,
0,0,0,1,0,1,0,0,star ,circle,1,0,1,0,0,3,3,10,,,,,,,,789.8060092300002,789.8060092300002,789.8060092300002,789.8060092300002,789.8060092300002,789.8060092300002,789.8060092300002,789.8060092300002,789.8060092300002,789.8060092300002,a,0.5988226179906633,1,412,1,790.4232654350053,791.9250144179969,,,40673,2022-10-26_14h41.08.712,vts_reward_expectancy_bt_OFFLINE,2022.2.4,60.10340526239601,
0,1,0,0,0,0,0,1,circle,star,1,0,1,0,0,4,4,5,,,,,,,,792.4256650290044,792.4256650290044,792.4256650290044,792.4256650290044,792.4256650290044,792.4256650290044,792.4256650290044,792.4256650290044,792.4256650290044,792.4256650290044,a,0.7142313450021902,10,422,1,793.1596494429978,794.6616102990083,,,40673,2022-10-26_14h41.08.712,vts_reward_expectancy_bt_OFFLINE,2022.2.4,60.10340526239601,
0,1,0,0,0,0,1,0,circle,hexagon,1,0,1,0,0,5,5,4,,,,,,,,795.1619700400042,795.1619700400042,795.1619700400042,795.1619700400042,795.1619700400042,795.1619700400042,795.1619700400042,795.1619700400042,795.1619700400042,795.1619700400042,a,0.5063773099973332,10,432,1,795.6959623779985,797.197473334003,,,40673,2022-10-26_14h41.08.712,vts_reward_expectancy_bt_OFFLINE,2022.2.4,60.10340526239601,
0,0,1,0,0,0,0,1,hexagon,star,1,0,1,0,0,6,6,8,,,,,,,,797.698166037997,797.698166037997,797.698166037997,797.698166037997,797.698166037997,797.698166037997,797.698166037997,797.698166037997,797.698166037997,797.698166037997,a,2.576821545997518,1,433,1,800.3008272430015,801.8025507790007,,,40673,2022-10-26_14h41.08.712,vts_reward_expectancy_bt_OFFLINE,2022.2.4,60.10340526239601,
0,0,1,0,0,1,0,0,hexagon,circle,1,0,1,0,0,7,7,7,,,,,,,,802.3032636700082,802.3032636700082,802.3032636700082,802.3032636700082,802.3032636700082,802.3032636700082,802.3032636700082,802.3032636700082,802.3032636700082,802.3032636700082,l,0.6762236740032677,10,443,1,803.0038388499961,804.5054637980065,,,40673,2022-10-26_14h41.08.712,vts_reward_expectancy_bt_OFFLINE,2022.2.4,60.10340526239601,
1,0,0,0,0,1,0,0,triangle,circle,1,0,1,0,0,8,8,0,,,,,,,,805.0060278500023,805.0060278500023,805.0060278500023,805.0060278500023,805.0060278500023,805.0060278500023,805.0060278500023,805.0060278500023,805.0060278500023,805.0060278500023,l,0.3828227359917946,10,453,1,805.4064343250066,806.9082014890009,,,40673,2022-10-26_14h41.08.712,vts_reward_expectancy_bt_OFFLINE,2022.2.4,60.10340526239601,
0,1,0,0,1,0,0,0,circle,triangle,1,0,1,0,0,9,9,3,,,,,,,,807.4087287629955,807.4087287629955,807.4087287629955,807.4087287629955,807.4087287629955,807.4087287629955,807.4087287629955,807.4087287629955,807.4087287629955,807.4087287629955,a,0.5164025539997965,10,463,1,807.9426228679949,809.4442280600051,,,40673,2022-10-26_14h41.08.712,vts_reward_expectancy_bt_OFFLINE,2022.2.4,60.10340526239601,
0,0,1,0,1,0,0,0,hexagon,triangle,1,0,1,0,0,10,10,6,,,,,,,,809.9448483570013,809.9448483570013,809.9448483570013,809.9448483570013,809.9448483570013,809.9448483570013,809.9448483570013,809.9448483570013,809.9448483570013,809.9448483570013,a,0.6429209729976719,1,464,1,810.6124261140067,812.1139078520064,,,40673,2022-10-26_14h41.08.712,vts_reward_expectancy_bt_OFFLINE,2022.2.4,60.10340526239601,
0,0,0,1,0,0,1,0,star,hexagon,1,0,1,0,0,11,11,11,,,,,,,,812.6144317080034,812.6144317080034,812.6144317080034,812.6144317080034,812.6144317080034,812.6144317080034,812.6144317080034,812.6144317080034,812.6144317080034,812.6144317080034,a,0.7665938479913166,1,465,1,813.3986389089987,814.9003125349991,,,40673,2022-10-26_14h41.08.712,vts_reward_expectancy_bt_OFFLINE,2022.2.4,60.10340526239601,
0,0,0,1,1,0,0,0,star,triangle,1,0,1,0,1,0,12,9,,,,,,,,815.4009180389985,815.4009180389985,815.4009180389985,815.4009180389985,815.4009180389985,815.4009180389985,815.4009180389985,815.4009180389985,815.4009180389985,815.4009180389985,a,0.66841754699999,10,475,1,816.1018096530024,817.6033270769985,,,40673,2022-10-26_14h41.08.712,vts_reward_expectancy_bt_OFFLINE,2022.2.4,60.10340526239601,
0,0,1,0,0,0,0,1,hexagon,star,1,0,1,0,1,1,13,8,,,,,,,,818.1040653850068,818.1040653850068,818.1040653850068,818.1040653850068,818.1040653850068,818.1040653850068,818.1040653850068,818.1040653850068,818.1040653850068,818.1040653850068,l,1.179145582995261,10,485,1,819.3051410519984,820.8069594800036,,,40673,2022-10-26_14h41.08.712,vts_reward_expectancy_bt_OFFLINE,2022.2.4,60.10340526239601,
0,0,1,0,1,0,0,0,hexagon,triangle,1,0,1,0,1,2,14,6,,,,,,,,821.3075468989991,821.3075468989991,821.3075468989991,821.3075468989991,821.3075468989991,821.3075468989991,821.3075468989991,821.3075468989991,821.3075468989991,821.3075468989991,a,1.103473083989229,10,495,1,822.442115924001,823.9439018120029,,,40673,2022-10-26_14h41.08.712,vts_reward_expectancy_bt_OFFLINE,2022.2.4,60.10340526239601,
0,1,0,0,0,0,0,1,circle,star,1,0,1,0,1,3,15,5,,,,,,,,824.4441898299992,824.4441898299992,824.4441898299992,824.4441898299992,824.4441898299992,824.4441898299992,824.4441898299992,824.4441898299992,824.4441898299992,824.4441898299992,a,0.3750484089978272,10,505,1,824.8448748170049,826.3465669790021,,,40673,2022-10-26_14h41.08.712,vts_reward_expectancy_bt_OFFLINE,2022.2.4,60.10340526239601,
0,0,1,0,0,1,0,0,hexagon,circle,1,0,1,0,1,4,16,7,,,,,,,,826.8471568090026,826.8471568090026,826.8471568090026,826.8471568090026,826.8471568090026,826.8471568090026,826.8471568090026,826.8471568090026,826.8471568090026,826.8471568090026,l,0.7407101999997394,10,515,1,827.6145077420078,829.116030767007,,,40673,2022-10-26_14h41.08.712,vts_reward_expectancy_bt_OFFLINE,2022.2.4,60.10340526239601,
0,1,0,0,1,0,0,0,circle,triangle,1,0,1,0,1,5,17,3,,,,,,,,829.6166508640017,829.6166508640017,829.6166508640017,829.6166508640017,829.6166508640017,829.6166508640017,829.6166508640017,829.6166508640017,829.6166508640017,829.6166508640017,a,0.5318840590043692,1,516,1,830.1674120889948,831.6689226529998,,,40673,2022-10-26_14h41.08.712,vts_reward_expectancy_bt_OFFLINE,2022.2.4,60.10340526239601,
0,0,0,1,0,1,0,0,star ,circle,1,0,1,0,1,6,18,10,,,,,,,,832.169503779005,832.169503779005,832.169503779005,832.169503779005,832.169503779005,832.169503779005,832.169503779005,832.169503779005,832.169503779005,832.169503779005,l,0.39361737499712035,1,517,1,832.5864795499947,834.0881786569953,,,40673,2022-10-26_14h41.08.712,vts_reward_expectancy_bt_OFFLINE,2022.2.4,60.10340526239601,
1,0,0,0,0,0,0,1,triangle,star,1,0,1,0,1,7,19,2,,,,,,,,834.5887537649978,834.5887537649978,834.5887537649978,834.5887537649978,834.5887537649978,834.5887537649978,834.5887537649978,834.5887537649978,834.5887537649978,834.5887537649978,l,0.6160212440008763,1,518,1,835.2228449490067,836.724571853003,,,40673,2022-10-26_14h41.08.712,vts_reward_expectancy_bt_OFFLINE,2022.2.4,60.10340526239601,
0,1,0,0,0,0,1,0,circle,hexagon,1,0,1,0,1,8,20,4,,,,,,,,837.2251295379974,837.2251295379974,837.2251295379974,837.2251295379974,837.2251295379974,837.2251295379974,837.2251295379974,837.2251295379974,837.2251295379974,837.2251295379974,a,0.5003637460031314,10,528,1,837.7425078219967,839.244114429006,839.244114429006,,40673,2022-10-26_14h41.08.712,vts_reward_expectancy_bt_OFFLINE,2022.2.4,60.10340526239601,
1,0,0,0,0,1,0,0,triangle,circle,1,0,1,0,1,9,21,0,,,,,,,,839.7446948889992,839.7446948889992,839.7446948889992,839.7446948889992,839.7446948889992,839.7446948889992,839.7446948889992,839.7446948889992,839.7446948889992,839.7446948889992,l,0.4680013199977111,10,538,1,840.2450326280086,841.7467547380074,,,40673,2022-10-26_14h41.08.712,vts_reward_expectancy_bt_OFFLINE,2022.2.4,60.10340526239601,
1,0,0,0,0,0,1,0,triangle,hexagon,1,0,1,0,1,10,22,1,,,,,,,,842.2475241920038,842.2475241920038,842.2475241920038,842.2475241920038,842.2475241920038,842.2475241920038,842.2475241920038,842.2475241920038,842.2475241920038,842.2475241920038,l,1.0600616820011055,10,548,1,843.3317138419952,844.8334810749948,,,40673,2022-10-26_14h41.08.712,vts_reward_expectancy_bt_OFFLINE,2022.2.4,60.10340526239601,
0,0,0,1,0,0,1,0,star,hexagon,1,0,1,0,1,11,23,11,,,,,,,,845.3339426769962,845.3339426769962,845.3339426769962,845.3339426769962,845.3339426769962,845.3339426769962,845.3339426769962,845.3339426769962,845.3339426769962,845.3339426769962,a,0.6059720149933128,10,558,1,845.9678704530088,847.4698772139964,,,40673,2022-10-26_14h41.08.712,vts_reward_expectancy_bt_OFFLINE,2022.2.4,60.10340526239601,
0,0,0,1,0,0,1,0,star,hexagon,1,0,1,0,2,0,24,11,,,,,,,,847.9702133670071,847.9702133670071,847.9702133670071,847.9702133670071,847.9702133670071,847.9702133670071,847.9702133670071,847.9702133670071,847.9702133670071,847.9702133670071,a,0.6904594189982163,10,568,1,848.6875820590067,850.1892132490029,,,40673,2022-10-26_14h41.08.712,vts_reward_expectancy_bt_OFFLINE,2022.2.4,60.10340526239601,
1,0,0,0,0,1,0,0,triangle,circle,1,0,1,0,2,1,25,0,,,,,,,,850.6897474639991,850.6897474639991,850.6897474639991,850.6897474639991,850.6897474639991,850.6897474639991,850.6897474639991,850.6897474639991,850.6897474639991,850.6897474639991,l,0.6906702749984106,1,569,1,851.4074477590038,852.9091156500072,,,40673,2022-10-26_14h41.08.712,vts_reward_expectancy_bt_OFFLINE,2022.2.4,60.10340526239601,
0,1,0,0,0,0,1,0,circle,hexagon,1,0,1,0,2,2,26,4,,,,,,,,853.4096315380011,853.4096315380011,853.4096315380011,853.4096315380011,853.4096315380011,853.4096315380011,853.4096315380011,853.4096315380011,853.4096315380011,853.4096315380011,a,0.6679665979900165,10,579,1,854.1105796220072,855.6120066400035,,,40673,2022-10-26_14h41.08.712,vts_reward_expectancy_bt_OFFLINE,2022.2.4,60.10340526239601,
1,0,0,0,0,0,1,0,triangle,hexagon,1,0,1,0,2,3,27,1,,,,,,,,856.1125178329967,856.1125178329967,856.1125178329967,856.1125178329967,856.1125178329967,856.1125178329967,856.1125178329967,856.1125178329967,856.1125178329967,856.1125178329967,l,1.1082852399995318,1,580,1,857.2471897740033,858.7490403190022,,,40673,2022-10-26_14h41.08.712,vts_reward_expectancy_bt_OFFLINE,2022.2.4,60.10340526239601,
0,0,0,1,0,1,0,0,star ,circle,1,0,1,0,2,4,28,10,,,,,,,,859.249457924001,859.249457924001,859.249457924001,859.249457924001,859.249457924001,859.249457924001,859.249457924001,859.249457924001,859.249457924001,859.249457924001,a,0.4906546720012557,1,581,1,859.7665864830051,861.2682590070035,,,40673,2022-10-26_14h41.08.712,vts_reward_expectancy_bt_OFFLINE,2022.2.4,60.10340526239601,
0,0,0,1,1,0,0,0,star,triangle,1,0,1,0,2,5,29,9,,,,,,,,861.7688616730011,861.7688616730011,861.7688616730011,861.7688616730011,861.7688616730011,861.7688616730011,861.7688616730011,861.7688616730011,861.7688616730011,861.7688616730011,a,0.7792687979963375,10,591,1,862.569713585006,864.0713661970076,,,40673,2022-10-26_14h41.08.712,vts_reward_expectancy_bt_OFFLINE,2022.2.4,60.10340526239601,
0,1,0,0,1,0,0,0,circle,triangle,1,0,1,0,2,6,30,3,,,,,,,,864.5718997070071,864.5718997070071,864.5718997070071,864.5718997070071,864.5718997070071,864.5718997070071,864.5718997070071,864.5718997070071,864.5718997070071,864.5718997070071,a,0.4077807080029743,10,601,1,865.0056428749958,866.5074626540008,,,40673,2022-10-26_14h41.08.712,vts_reward_expectancy_bt_OFFLINE,2022.2.4,60.10340526239601,
0,0,1,0,1,0,0,0,hexagon,triangle,1,0,1,0,2,7,31,6,,,,,,,,867.0079884629959,867.0079884629959,867.0079884629959,867.0079884629959,867.0079884629959,867.0079884629959,867.0079884629959,867.0079884629959,867.0079884629959,867.0079884629959,a,1.0916586680104956,10,611,1,868.1258470739995,869.627448610001,,,40673,2022-10-26_14h41.08.712,vts_reward_expectancy_bt_OFFLINE,2022.2.4,60.10340526239601,
0,1,0,0,0,0,0,1,circle,star,1,0,1,0,2,8,32,5,,,,,,,,870.1279756419972,870.1279756419972,870.1279756419972,870.1279756419972,870.1279756419972,870.1279756419972,870.1279756419972,870.1279756419972,870.1279756419972,870.1279756419972,a,0.4598156099964399,10,621,1,870.6120030940074,872.1135144330037,,,40673,2022-10-26_14h41.08.712,vts_reward_expectancy_bt_OFFLINE,2022.2.4,60.10340526239601,
0,0,1,0,0,0,0,1,hexagon,star,1,0,1,0,2,9,33,8,,,,,,,,872.613977697998,872.613977697998,872.613977697998,872.613977697998,872.613977697998,872.613977697998,872.613977697998,872.613977697998,872.613977697998,872.613977697998,l,0.9022061559953727,10,631,1,873.5484881650045,875.0500722200086,,,40673,2022-10-26_14h41.08.712,vts_reward_expectancy_bt_OFFLINE,2022.2.4,60.10340526239601,
1,0,0,0,0,0,0,1,triangle,star,1,0,1,0,2,10,34,2,,,,,,,,875.5505096880079,875.5505096880079,875.5505096880079,875.5505096880079,875.5505096880079,875.5505096880079,875.5505096880079,875.5505096880079,875.5505096880079,875.5505096880079,l,0.613151466997806,10,641,1,876.1847860480048,877.6865236390004,,,40673,2022-10-26_14h41.08.712,vts_reward_expectancy_bt_OFFLINE,2022.2.4,60.10340526239601,
0,0,1,0,0,1,0,0,hexagon,circle,1,0,1,0,2,11,35,7,,,,,,,,878.1867803990026,878.1867803990026,878.1867803990026,878.1867803990026,878.1867803990026,878.1867803990026,878.1867803990026,878.1867803990026,878.1867803990026,878.1867803990026,l,0.6012950360018294,10,651,1,878.8208735390072,880.3227797169966,,,40673,2022-10-26_14h41.08.712,vts_reward_expectancy_bt_OFFLINE,2022.2.4,60.10340526239601,
1,0,0,0,0,0,0,1,triangle,star,1,0,1,0,3,0,36,2,,,,,,,,880.8231743890065,880.8231743890065,880.8231743890065,880.8231743890065,880.8231743890065,880.8231743890065,880.8231743890065,880.8231743890065,880.8231743890065,880.8231743890065,l,0.7340745109977433,10,661,1,881.5741161680053,883.0757962439966,883.0757962439966,,40673,2022-10-26_14h41.08.712,vts_reward_expectancy_bt_OFFLINE,2022.2.4,60.10340526239601,
1,0,0,0,0,1,0,0,triangle,circle,1,0,1,0,3,1,37,0,,,,,,,,883.5761675389949,883.5761675389949,883.5761675389949,883.5761675389949,883.5761675389949,883.5761675389949,883.5761675389949,883.5761675389949,883.5761675389949,883.5761675389949,l,0.5080628709984012,10,671,1,884.1099639470049,885.6116502750083,,,40673,2022-10-26_14h41.08.712,vts_reward_expectancy_bt_OFFLINE,2022.2.4,60.10340526239601,
0,0,0,1,0,0,1,0,star,hexagon,1,0,1,0,3,2,38,11,,,,,,,,886.1123421480006,886.1123421480006,886.1123421480006,886.1123421480006,886.1123421480006,886.1123421480006,886.1123421480006,886.1123421480006,886.1123421480006,886.1123421480006,a,0.747136286998284,10,681,1,886.8797157070076,888.381460509001,,,40673,2022-10-26_14h41.08.712,vts_reward_expectancy_bt_OFFLINE,2022.2.4,60.10340526239601,
1,0,0,0,0,0,1,0,triangle,hexagon,1,0,1,0,3,3,39,1,,,,,,,,888.8821008969971,888.8821008969971,888.8821008969971,888.8821008969971,888.8821008969971,888.8821008969971,888.8821008969971,888.8821008969971,888.8821008969971,888.8821008969971,l,0.5778961820033146,1,682,1,889.4827004990075,890.984245190004,,,40673,2022-10-26_14h41.08.712,vts_reward_expectancy_bt_OFFLINE,2022.2.4,60.10340526239601,
0,0,0,1,1,0,0,0,star,triangle,1,0,1,0,3,4,40,9,,,,,,,,891.4847891789977,891.4847891789977,891.4847891789977,891.4847891789977,891.4847891789977,891.4847891789977,891.4847891789977,891.4847891789977,891.4847891789977,891.4847891789977,a,0.5432074179989286,10,692,1,892.0521264650015,893.5538915170036,,,40673,2022-10-26_14h41.08.712,vts_reward_expectancy_bt_OFFLINE,2022.2.4,60.10340526239601,
0,0,1,0,0,1,0,0,hexagon,circle,1,0,1,0,3,5,41,7,,,,,,,,894.0545560129976,894.0545560129976,894.0545560129976,894.0545560129976,894.0545560129976,894.0545560129976,894.0545560129976,894.0545560129976,894.0545560129976,894.0545560129976,l,0.5669630009942921,10,702,1,894.638381910001,896.1402789700078,896.1402789700078,,40673,2022-10-26_14h41.08.712,vts_reward_expectancy_bt_OFFLINE,2022.2.4,60.10340526239601,
0,0,1,0,1,0,0,0,hexagon,triangle,1,0,1,0,3,6,42,6,,,,,,,,896.6404944469978,896.6404944469978,896.6404944469978,896.6404944469978,896.6404944469978,896.6404944469978,896.6404944469978,896.6404944469978,896.6404944469978,896.6404944469978,a,1.0197803299961379,1,703,1,897.6918538989994,899.1935106589954,,,40673,2022-10-26_14h41.08.712,vts_reward_expectancy_bt_OFFLINE,2022.2.4,60.10340526239601,
0,1,0,0,0,0,1,0,circle,hexagon,1,0,1,0,3,7,43,4,,,,,,,,899.6940279340051,899.6940279340051,899.6940279340051,899.6940279340051,899.6940279340051,899.6940279340051,899.6940279340051,899.6940279340051,899.6940279340051,899.6940279340051,l,1.0290637229918502,1,704,1,900.7452037839976,902.2469332269975,,,40673,2022-10-26_14h41.08.712,vts_reward_expectancy_bt_OFFLINE,2022.2.4,60.10340526239601,
0,0,0,1,0,1,0,0,star ,circle,1,0,1,0,3,8,44,10,,,,,,,,902.7472988399968,902.7472988399968,902.7472988399968,902.7472988399968,902.7472988399968,902.7472988399968,902.7472988399968,902.7472988399968,902.7472988399968,902.7472988399968,l,0.9364847760007251,10,714,1,903.7151550389972,905.2167041070061,905.2167041070061,,40673,2022-10-26_14h41.08.712,vts_reward_expectancy_bt_OFFLINE,2022.2.4,60.10340526239601,
0,1,0,0,1,0,0,0,circle,triangle,1,0,1,0,3,9,45,3,,,,,,,,905.7174299150065,905.7174299150065,905.7174299150065,905.7174299150065,905.7174299150065,905.7174299150065,905.7174299150065,905.7174299150065,905.7174299150065,905.7174299150065,a,1.0542809050093638,1,715,1,906.8020798299985,908.3035720629996,,,40673,2022-10-26_14h41.08.712,vts_reward_expectancy_bt_OFFLINE,2022.2.4,60.10340526239601,
0,1,0,0,0,0,0,1,circle,star,1,0,1,0,3,10,46,5,,,,,,,,908.8041397740017,908.8041397740017,908.8041397740017,908.8041397740017,908.8041397740017,908.8041397740017,908.8041397740017,908.8041397740017,908.8041397740017,908.8041397740017,a,0.5516147319867741,10,725,1,909.3881868820026,910.8895904990059,,,40673,2022-10-26_14h41.08.712,vts_reward_expectancy_bt_OFFLINE,2022.2.4,60.10340526239601,
0,0,1,0,0,0,0,1,hexagon,star,1,0,1,0,3,11,47,8,,,,,,,,911.3900959720049,911.3900959720049,911.3900959720049,911.3900959720049,911.3900959720049,911.3900959720049,911.3900959720049,911.3900959720049,911.3900959720049,911.3900959720049,l,0.7828612400044221,10,735,1,912.1910724430054,913.6926313069998,913.6926313069998,914.2101377689978,40673,2022-10-26_14h41.08.712,vts_reward_expectancy_bt_OFFLINE,2022.2.4,60.10340526239601,
0,1,0,0,1,0,0,0,circle,triangle,2,0,2,0,0,0,0,3,,,,,,,,933.6312263099971,933.6312263099971,933.6312263099971,933.6312263099971,933.6312263099971,933.6312263099971,933.6312263099971,933.6312263099971,933.6312263099971,933.6312263099971,a,1.0037728960014647,10,745,2,934.6658445770008,936.1674848340044,,,40673,2022-10-26_14h41.08.712,vts_reward_expectancy_bt_OFFLINE,2022.2.4,60.10340526239601,
0,0,0,1,0,0,1,0,star,hexagon,2,0,2,0,0,1,1,11,,,,,,,,936.6680726490013,936.6680726490013,936.6680726490013,936.6680726490013,936.6680726490013,936.6680726490013,936.6680726490013,936.6680726490013,936.6680726490013,936.6680726490013,a,0.8874571470078081,10,755,2,937.5857851449982,939.0876138680032,,,40673,2022-10-26_14h41.08.712,vts_reward_expectancy_bt_OFFLINE,2022.2.4,60.10340526239601,
0,1,0,0,0,0,1,0,circle,hexagon,2,0,2,0,0,2,2,4,,,,,,,,939.587889389004,939.587889389004,939.587889389004,939.587889389004,939.587889389004,939.587889389004,939.587889389004,939.587889389004,939.587889389004,939.587889389004,a,0.5598607730062213,10,765,2,940.1718296990002,941.6734826500033,,,40673,2022-10-26_14h41.08.712,vts_reward_expectancy_bt_OFFLINE,2022.2.4,60.10340526239601,
1,0,0,0,0,0,0,1,triangle,star,2,0,2,0,0,3,3,2,,,,,,,,942.174136037007,942.174136037007,942.174136037007,942.174136037007,942.174136037007,942.174136037007,942.174136037007,942.174136037007,942.174136037007,942.174136037007,l,0.7668121140013682,10,775,2,942.9585307439993,944.460160882998,,,40673,2022-10-26_14h41.08.712,vts_reward_expectancy_bt_OFFLINE,2022.2.4,60.10340526239601,
0,0,0,1,1,0,0,0,star,triangle,2,0,2,0,0,4,4,9,,,,,,,,944.960420686999,944.960420686999,944.960420686999,944.960420686999,944.960420686999,944.960420686999,944.960420686999,944.960420686999,944.960420686999,944.960420686999,a,0.6521360649931012,10,785,2,945.6448512520001,947.1463807980035,,,40673,2022-10-26_14h41.08.712,vts_reward_expectancy_bt_OFFLINE,2022.2.4,60.10340526239601,
1,0,0,0,0,0,1,0,triangle,hexagon,2,0,2,0,0,5,5,1,,,,,,,,947.6467638290051,947.6467638290051,947.6467638290051,947.6467638290051,947.6467638290051,947.6467638290051,947.6467638290051,947.6467638290051,947.6467638290051,947.6467638290051,l,1.013578440004494,1,786,2,948.6813065669994,950.1830790140084,,,40673,2022-10-26_14h41.08.712,vts_reward_expectancy_bt_OFFLINE,2022.2.4,60.10340526239601,
0,1,0,0,0,0,0,1,circle,star,2,0,2,0,0,6,6,5,,,,,,,,950.6837786270044,950.6837786270044,950.6837786270044,950.6837786270044,950.6837786270044,950.6837786270044,950.6837786270044,950.6837786270044,950.6837786270044,950.6837786270044,a,0.5440285090007819,10,796,2,951.2513713680091,952.7526825920067,,,40673,2022-10-26_14h41.08.712,vts_reward_expectancy_bt_OFFLINE,2022.2.4,60.10340526239601,
0,0,0,1,0,1,0,0,star ,circle,2,0,2,0,0,7,7,10,,,,,,,,953.2529815669986,953.2529815669986,953.2529815669986,953.2529815669986,953.2529815669986,953.2529815669986,953.2529815669986,953.2529815669986,953.2529815669986,953.2529815669986,l,0.5587050629983423,10,806,2,953.8371430499974,955.3384629220091,955.3384629220091,,40673,2022-10-26_14h41.08.712,vts_reward_expectancy_bt_OFFLINE,2022.2.4,60.10340526239601,
0,0,1,0,0,1,0,0,hexagon,circle,2,0,2,0,0,8,8,7,,,,,,,,955.8393941429968,955.8393941429968,955.8393941429968,955.8393941429968,955.8393941429968,955.8393941429968,955.8393941429968,955.8393941429968,955.8393941429968,955.8393941429968,l,0.6683255889947759,10,816,2,956.5399517330079,958.041654583998,,,40673,2022-10-26_14h41.08.712,vts_reward_expectancy_bt_OFFLINE,2022.2.4,60.10340526239601,
0,0,1,0,0,0,0,1,hexagon,star,2,0,2,0,0,9,9,8,,,,,,,,958.5422254389996,958.5422254389996,958.5422254389996,958.5422254389996,958.5422254389996,958.5422254389996,958.5422254389996,958.5422254389996,958.5422254389996,958.5422254389996,l,1.0688366399990628,10,826,2,959.6432618389954,961.1452603000071,,,40673,2022-10-26_14h41.08.712,vts_reward_expectancy_bt_OFFLINE,2022.2.4,60.10340526239601,
1,0,0,0,0,1,0,0,triangle,circle,2,0,2,0,0,10,10,0,,,,,,,,961.6458050299989,961.6458050299989,961.6458050299989,961.6458050299989,961.6458050299989,961.6458050299989,961.6458050299989,961.6458050299989,961.6458050299989,961.6458050299989,l,1.4937580740079284,10,836,2,963.163927105008,964.6656023940013,,,40673,2022-10-26_14h41.08.712,vts_reward_expectancy_bt_OFFLINE,2022.2.4,60.10340526239601,
0,0,1,0,1,0,0,0,hexagon,triangle,2,0,2,0,0,11,11,6,,,,,,,,965.1661392499955,965.1661392499955,965.1661392499955,965.1661392499955,965.1661392499955,965.1661392499955,965.1661392499955,965.1661392499955,965.1661392499955,965.1661392499955,a,0.6459653589990921,1,837,2,965.8334859800088,967.3353162919957,,,40673,2022-10-26_14h41.08.712,vts_reward_expectancy_bt_OFFLINE,2022.2.4,60.10340526239601,
0,1,0,0,0,0,0,1,circle,star,2,0,2,0,1,0,12,5,,,,,,,,967.8357504540036,967.8357504540036,967.8357504540036,967.8357504540036,967.8357504540036,967.8357504540036,967.8357504540036,967.8357504540036,967.8357504540036,967.8357504540036,a,1.2873008250026032,10,847,2,969.1538752290071,970.6556950340018,,,40673,2022-10-26_14h41.08.712,vts_reward_expectancy_bt_OFFLINE,2022.2.4,60.10340526239601,
1,0,0,0,0,0,1,0,triangle,hexagon,2,0,2,0,1,1,13,1,,,,,,,,971.156104417998,971.156104417998,971.156104417998,971.156104417998,971.156104417998,971.156104417998,971.156104417998,971.156104417998,971.156104417998,971.156104417998,l,1.5193659549986478,1,848,2,972.7080069740041,974.2098153219995,,,40673,2022-10-26_14h41.08.712,vts_reward_expectancy_bt_OFFLINE,2022.2.4,60.10340526239601,
1,0,0,0,0,1,0,0,triangle,circle,2,0,2,0,1,2,14,0,,,,,,,,974.7100814769947,974.7100814769947,974.7100814769947,974.7100814769947,974.7100814769947,974.7100814769947,974.7100814769947,974.7100814769947,974.7100814769947,974.7100814769947,l,3.8942532999935793,10,858,2,978.6309391490067,980.1326170990069,,,40673,2022-10-26_14h41.08.712,vts_reward_expectancy_bt_OFFLINE,2022.2.4,60.10340526239601,
1,0,0,0,0,0,0,1,triangle,star,2,0,2,0,1,3,15,2,,,,,,,,980.6332275790046,980.6332275790046,980.6332275790046,980.6332275790046,980.6332275790046,980.6332275790046,980.6332275790046,980.6332275790046,980.6332275790046,980.6332275790046,l,1.1224958739912836,10,868,2,981.7844749180076,983.2862599969958,,,40673,2022-10-26_14h41.08.712,vts_reward_expectancy_bt_OFFLINE,2022.2.4,60.10340526239601,
0,0,1,0,0,1,0,0,hexagon,circle,2,0,2,0,1,4,16,7,,,,,,,,983.7865595449985,983.7865595449985,983.7865595449985,983.7865595449985,983.7865595449985,983.7865595449985,983.7865595449985,983.7865595449985,983.7865595449985,983.7865595449985,l,0.8350181309942855,10,878,2,984.6543825289991,986.1560741430003,,,40673,2022-10-26_14h41.08.712,vts_reward_expectancy_bt_OFFLINE,2022.2.4,60.10340526239601,
0,0,0,1,0,0,1,0,star,hexagon,2,0,2,0,1,5,17,11,,,,,,,,986.6564184599993,986.6564184599993,986.6564184599993,986.6564184599993,986.6564184599993,986.6564184599993,986.6564184599993,986.6564184599993,986.6564184599993,986.6564184599993,a,1.2192217900010291,10,888,2,987.9079140870017,989.4097807719954,,,40673,2022-10-26_14h41.08.712,vts_reward_expectancy_bt_OFFLINE,2022.2.4,60.10340526239601,
0,0,0,1,1,0,0,0,star,triangle,2,0,2,0,1,6,18,9,,,,,,,,989.9101509430038,989.9101509430038,989.9101509430038,989.9101509430038,989.9101509430038,989.9101509430038,989.9101509430038,989.9101509430038,989.9101509430038,989.9101509430038,a,0.6851697549864184,10,898,2,990.6277756920026,992.1292646130023,,,40673,2022-10-26_14h41.08.712,vts_reward_expectancy_bt_OFFLINE,2022.2.4,60.10340526239601,
0,0,1,0,0,0,0,1,hexagon,star,2,0,2,0,1,7,19,8,,,,,,,,992.6299627920089,992.6299627920089,992.6299627920089,992.6299627920089,992.6299627920089,992.6299627920089,992.6299627920089,992.6299627920089,992.6299627920089,992.6299627920089,l,0.5907313749921741,10,908,2,993.2471338629985,994.7486806079978,,,40673,2022-10-26_14h41.08.712,vts_reward_expectancy_bt_OFFLINE,2022.2.4,60.10340526239601,
0,0,0,1,0,1,0,0,star ,circle,2,0,2,0,1,8,20,10,,,,,,,,995.2494105390069,995.2494105390069,995.2494105390069,995.2494105390069,995.2494105390069,995.2494105390069,995.2494105390069,995.2494105390069,995.2494105390069,995.2494105390069,l,0.7545140509901103,10,918,2,996.0335930440051,997.5352550230018,,,40673,2022-10-26_14h41.08.712,vts_reward_expectancy_bt_OFFLINE,2022.2.4,60.10340526239601,
0,1,0,0,1,0,0,0,circle,triangle,2,0,2,0,1,9,21,3,,,,,,,,998.035743239001,998.035743239001,998.035743239001,998.035743239001,998.035743239001,998.035743239001,998.035743239001,998.035743239001,998.035743239001,998.035743239001,a,1.0016491819988005,10,928,2,999.070101329009,1000.5719571430091,,,40673,2022-10-26_14h41.08.712,vts_reward_expectancy_bt_OFFLINE,2022.2.4,60.10340526239601,
0,1,0,0,0,0,1,0,circle,hexagon,2,0,2,0,1,10,22,4,,,,,,,,1001.0723928469961,1001.0723928469961,1001.0723928469961,1001.0723928469961,1001.0723928469961,1001.0723928469961,1001.0723928469961,1001.0723928469961,1001.0723928469961,1001.0723928469961,a,0.5394215159903979,10,938,2,1001.6397291799949,1003.1414241019957,,,40673,2022-10-26_14h41.08.712,vts_reward_expectancy_bt_OFFLINE,2022.2.4,60.10340526239601,
0,0,1,0,1,0,0,0,hexagon,triangle,2,0,2,0,1,11,23,6,,,,,,,,1003.6420834180026,1003.6420834180026,1003.6420834180026,1003.6420834180026,1003.6420834180026,1003.6420834180026,1003.6420834180026,1003.6420834180026,1003.6420834180026,1003.6420834180026,a,1.6260475750023033,1,939,2,1005.2935537570011,1006.7953143250052,,,40673,2022-10-26_14h41.08.712,vts_reward_expectancy_bt_OFFLINE,2022.2.4,60.10340526239601,
0,0,0,1,1,0,0,0,star,triangle,2,0,2,0,2,0,24,9,,,,,,,,1007.2958767530072,1007.2958767530072,1007.2958767530072,1007.2958767530072,1007.2958767530072,1007.2958767530072,1007.2958767530072,1007.2958767530072,1007.2958767530072,1007.2958767530072,a,0.6278679799870588,10,949,2,1007.9464701069955,1009.4483214869979,,,40673,2022-10-26_14h41.08.712,vts_reward_expectancy_bt_OFFLINE,2022.2.4,60.10340526239601,
0,0,0,1,0,0,1,0,star,hexagon,2,0,2,0,2,1,25,11,,,,,,,,1009.9490522069973,1009.9490522069973,1009.9490522069973,1009.9490522069973,1009.9490522069973,1009.9490522069973,1009.9490522069973,1009.9490522069973,1009.9490522069973,1009.9490522069973,a,0.7108430999942357,10,959,2,1010.6832111529948,1012.184682844003,,,40673,2022-10-26_14h41.08.712,vts_reward_expectancy_bt_OFFLINE,2022.2.4,60.10340526239601,
1,0,0,0,0,1,0,0,triangle,circle,2,0,2,0,2,2,26,0,,,,,,,,1012.685441951995,1012.685441951995,1012.685441951995,1012.685441951995,1012.685441951995,1012.685441951995,1012.685441951995,1012.685441951995,1012.685441951995,1012.685441951995,l,0.5677003859891556,10,969,2,1013.2861537270073,1014.7876791220042,,,40673,2022-10-26_14h41.08.712,vts_reward_expectancy_bt_OFFLINE,2022.2.4,60.10340526239601,
0,1,0,0,0,0,0,1,circle,star,2,0,2,0,2,3,27,5,,,,,,,,1015.2882119440037,1015.2882119440037,1015.2882119440037,1015.2882119440037,1015.2882119440037,1015.2882119440037,1015.2882119440037,1015.2882119440037,1015.2882119440037,1015.2882119440037,a,1.043589262990281,10,979,2,1016.355923768002,1017.8574967890017,,,40673,2022-10-26_14h41.08.712,vts_reward_expectancy_bt_OFFLINE,2022.2.4,60.10340526239601,
0,1,0,0,1,0,0,0,circle,triangle,2,0,2,0,2,4,28,3,,,,,,,,1018.3582739889971,1018.3582739889971,1018.3582739889971,1018.3582739889971,1018.3582739889971,1018.3582739889971,1018.3582739889971,1018.3582739889971,1018.3582739889971,1018.3582739889971,a,1.2130827799992403,10,989,2,1019.5930104340077,1021.0945056729979,,,40673,2022-10-26_14h41.08.712,vts_reward_expectancy_bt_OFFLINE,2022.2.4,60.10340526239601,
0,0,1,0,0,0,0,1,hexagon,star,2,0,2,0,2,5,29,8,,,,,,,,1021.5950898699957,1021.5950898699957,1021.5950898699957,1021.5950898699957,1021.5950898699957,1021.5950898699957,1021.5950898699957,1021.5950898699957,1021.5950898699957,1021.5950898699957,l,0.888860870996723,10,999,2,1022.5126785500033,1024.0143721140048,,,40673,2022-10-26_14h41.08.712,vts_reward_expectancy_bt_OFFLINE,2022.2.4,60.10340526239601,
1,0,0,0,0,0,0,1,triangle,star,2,0,2,0,2,6,30,2,,,,,,,,1024.515051852999,1024.515051852999,1024.515051852999,1024.515051852999,1024.515051852999,1024.515051852999,1024.515051852999,1024.515051852999,1024.515051852999,1024.515051852999,l,0.6009771520039067,10,1009,2,1025.132492350007,1026.6340263169986,1026.6340263169986,1027.1345769390027,40673,2022-10-26_14h41.08.712,vts_reward_expectancy_bt_OFFLINE,2022.2.4,60.10340526239601,
0,0,1,0,1,0,0,0,hexagon,triangle,2,0,2,0,2,7,31,6,,,,,,,,1027.1345769390027,1027.1345769390027,1027.1345769390027,1027.1345769390027,1027.1345769390027,1027.1345769390027,1027.1345769390027,1027.1345769390027,1027.1345769390027,1027.1345769390027,a,1.9422232570068445,1,1010,2,1029.1034024969995,1030.6050129930081,,,40673,2022-10-26_14h41.08.712,vts_reward_expectancy_bt_OFFLINE,2022.2.4,60.10340526239601,
1,0,0,0,0,0,1,0,triangle,hexagon,2,0,2,0,2,8,32,1,,,,,,,,1031.1057621640066,1031.1057621640066,1031.1057621640066,1031.1057621640066,1031.1057621640066,1031.1057621640066,1031.1057621640066,1031.1057621640066,1031.1057621640066,1031.1057621640066,l,1.0252542050002376,10,1020,2,1032.156995604004,1033.6583780430083,,,40673,2022-10-26_14h41.08.712,vts_reward_expectancy_bt_OFFLINE,2022.2.4,60.10340526239601,
0,0,1,0,0,1,0,0,hexagon,circle,2,0,2,0,2,9,33,7,,,,,,,,1034.1589860219974,1034.1589860219974,1034.1589860219974,1034.1589860219974,1034.1589860219974,1034.1589860219974,1034.1589860219974,1034.1589860219974,1034.1589860219974,1034.1589860219974,l,0.5967267709929729,1,1021,2,1034.776354638001,1036.277871829996,,,40673,2022-10-26_14h41.08.712,vts_reward_expectancy_bt_OFFLINE,2022.2.4,60.10340526239601,
0,0,0,1,0,1,0,0,star ,circle,2,0,2,0,2,10,34,10,,,,,,,,1036.7785097269953,1036.7785097269953,1036.7785097269953,1036.7785097269953,1036.7785097269953,1036.7785097269953,1036.7785097269953,1036.7785097269953,1036.7785097269953,1036.7785097269953,a,0.744684685007087,1,1022,2,1037.5460454980057,1039.0478220229998,,,40673,2022-10-26_14h41.08.712,vts_reward_expectancy_bt_OFFLINE,2022.2.4,60.10340526239601,
0,1,0,0,0,0,1,0,circle,hexagon,2,0,2,0,2,11,35,4,,,,,,,,1039.5483349989954,1039.5483349989954,1039.5483349989954,1039.5483349989954,1039.5483349989954,1039.5483349989954,1039.5483349989954,1039.5483349989954,1039.5483349989954,1039.5483349989954,a,0.6868797549977899,1,1023,2,1040.2655976130045,1041.7675804220053,,,40673,2022-10-26_14h41.08.712,vts_reward_expectancy_bt_OFFLINE,2022.2.4,60.10340526239601,
0,0,0,1,0,1,0,0,star ,circle,2,0,2,0,3,0,36,10,,,,,,,,1042.2678657399956,1042.2678657399956,1042.2678657399956,1042.2678657399956,1042.2678657399956,1042.2678657399956,1042.2678657399956,1042.2678657399956,1042.2678657399956,1042.2678657399956,l,0.33610743600002024,10,1033,2,1042.6351491090027,1044.1368075799983,,,40673,2022-10-26_14h41.08.712,vts_reward_expectancy_bt_OFFLINE,2022.2.4,60.10340526239601,
0,1,0,0,0,0,0,1,circle,star,2,0,2,0,3,1,37,5,,,,,,,,1044.6371332520066,1044.6371332520066,1044.6371332520066,1044.6371332520066,1044.6371332520066,1044.6371332520066,1044.6371332520066,1044.6371332520066,1044.6371332520066,1044.6371332520066,a,0.47853940300410613,10,1043,2,1045.1377942219988,1046.6395463480003,,,40673,2022-10-26_14h41.08.712,vts_reward_expectancy_bt_OFFLINE,2022.2.4,60.10340526239601,
0,0,1,0,1,0,0,0,hexagon,triangle,2,0,2,0,3,2,38,6,,,,,,,,1047.139954297003,1047.139954297003,1047.139954297003,1047.139954297003,1047.139954297003,1047.139954297003,1047.139954297003,1047.139954297003,1047.139954297003,1047.139954297003,l,0.9122794379945844,1,1044,2,1048.0740935950016,1049.5758482039964,,,40673,2022-10-26_14h41.08.712,vts_reward_expectancy_bt_OFFLINE,2022.2.4,60.10340526239601,
1,0,0,0,0,0,0,1,triangle,star,2,0,2,0,3,3,39,2,,,,,,,,1050.0765543430025,1050.0765543430025,1050.0765543430025,1050.0765543430025,1050.0765543430025,1050.0765543430025,1050.0765543430025,1050.0765543430025,1050.0765543430025,1050.0765543430025,l,0.8008366149879294,10,1054,2,1050.8946117150044,1052.3959507139953,1052.3959507139953,,40673,2022-10-26_14h41.08.712,vts_reward_expectancy_bt_OFFLINE,2022.2.4,60.10340526239601,
1,0,0,0,0,0,1,0,triangle,hexagon,2,0,2,0,3,4,40,1,,,,,,,,1052.8963475030032,1052.8963475030032,1052.8963475030032,1052.8963475030032,1052.8963475030032,1052.8963475030032,1052.8963475030032,1052.8963475030032,1052.8963475030032,1052.8963475030032,l,1.1953123529965524,1,1055,2,1054.1143635729968,1055.6160329080012,,,40673,2022-10-26_14h41.08.712,vts_reward_expectancy_bt_OFFLINE,2022.2.4,60.10340526239601,
0,1,0,0,0,0,1,0,circle,hexagon,2,0,2,0,3,5,41,4,,,,,,,,1056.1166158470005,1056.1166158470005,1056.1166158470005,1056.1166158470005,1056.1166158470005,1056.1166158470005,1056.1166158470005,1056.1166158470005,1056.1166158470005,1056.1166158470005,a,0.6238844089966733,10,1065,2,1056.7676465819968,1058.268990438999,,,40673,2022-10-26_14h41.08.712,vts_reward_expectancy_bt_OFFLINE,2022.2.4,60.10340526239601,
0,0,0,1,1,0,0,0,star,triangle,2,0,2,0,3,6,42,9,,,,,,,,1058.7695987920015,1058.7695987920015,1058.7695987920015,1058.7695987920015,1058.7695987920015,1058.7695987920015,1058.7695987920015,1058.7695987920015,1058.7695987920015,1058.7695987920015,a,0.713804398998036,10,1075,2,1059.503888844003,1061.0053488539997,,,40673,2022-10-26_14h41.08.712,vts_reward_expectancy_bt_OFFLINE,2022.2.4,60.10340526239601,
0,0,1,0,0,1,0,0,hexagon,circle,2,0,2,0,3,7,43,7,,,,,,,,1061.505917921997,1061.505917921997,1061.505917921997,1061.505917921997,1061.505917921997,1061.505917921997,1061.505917921997,1061.505917921997,1061.505917921997,1061.505917921997,l,6.682108025008347,1,1076,2,1068.2134972700005,1069.7147214800061,,,40673,2022-10-26_14h41.08.712,vts_reward_expectancy_bt_OFFLINE,2022.2.4,60.10340526239601,
0,0,0,1,0,0,1,0,star,hexagon,2,0,2,0,3,8,44,11,,,,,,,,1070.2154900919995,1070.2154900919995,1070.2154900919995,1070.2154900919995,1070.2154900919995,1070.2154900919995,1070.2154900919995,1070.2154900919995,1070.2154900919995,1070.2154900919995,a,2.0115828980051447,10,1086,2,1072.2511484220013,1073.7525260520051,,,40673,2022-10-26_14h41.08.712,vts_reward_expectancy_bt_OFFLINE,2022.2.4,60.10340526239601,
1,0,0,0,0,1,0,0,triangle,circle,2,0,2,0,3,9,45,0,,,,,,,,1074.253161569999,1074.253161569999,1074.253161569999,1074.253161569999,1074.253161569999,1074.253161569999,1074.253161569999,1074.253161569999,1074.253161569999,1074.253161569999,l,0.5582867549965158,10,1096,2,1074.8372597800044,1076.338760537008,,,40673,2022-10-26_14h41.08.712,vts_reward_expectancy_bt_OFFLINE,2022.2.4,60.10340526239601,
0,0,1,0,0,0,0,1,hexagon,star,2,0,2,0,3,10,46,8,,,,,,,,1076.8394911869982,1076.8394911869982,1076.8394911869982,1076.8394911869982,1076.8394911869982,1076.8394911869982,1076.8394911869982,1076.8394911869982,1076.8394911869982,1076.8394911869982,l,0.6355307769990759,10,1106,2,1077.506988121997,1079.008442307997,,,40673,2022-10-26_14h41.08.712,vts_reward_expectancy_bt_OFFLINE,2022.2.4,60.10340526239601,
0,1,0,0,1,0,0,0,circle,triangle,2,0,2,0,3,11,47,3,,,,,,,,1079.5090002170036,1079.5090002170036,1079.5090002170036,1079.5090002170036,1079.5090002170036,1079.5090002170036,1079.5090002170036,1079.5090002170036,1079.5090002170036,1079.5090002170036,a,1.4701280449953629,10,1116,2,1081.0104799490073,1082.5124587979954,,,40673,2022-10-26_14h41.08.712,vts_reward_expectancy_bt_OFFLINE,2022.2.4,60.10340526239601,
