LTriangleOpac,LCircleOpac,LHexagonOpac,LStarOpac,RTriangleOpac,RCircleOpac,RHexagonOpac,RStarOpac,LShape_ID,RShape_ID,training_blocks.thisRepN,training_blocks.thisTrialN,training_blocks.thisN,training_blocks.thisIndex,training.thisRepN,training.thisTrialN,training.thisN,training.thisIndex,task1_prac_redo.thisRepN,task1_prac_redo.thisTrialN,task1_prac_redo.thisN,task1_prac_redo.thisIndex,task1_prac_trials.thisRepN,task1_prac_trials.thisTrialN,task1_prac_trials.thisN,task1_prac_trials.thisIndex,task2_prac_redo.thisRepN,task2_prac_redo.thisTrialN,task2_prac_redo.thisN,task2_prac_redo.thisIndex,task2_praac_trials.thisRepN,task2_praac_trials.thisTrialN,task2_praac_trials.thisN,task2_praac_trials.thisIndex,vts_prac_redo.thisRepN,vts_prac_redo.thisTrialN,vts_prac_redo.thisN,vts_prac_redo.thisIndex,vts_practice_trials.thisRepN,vts_practice_trials.thisTrialN,vts_practice_trials.thisN,vts_practice_trials.thisIndex,trials_norew.thisRepN,trials_norew.thisTrialN,trials_norew.thisN,trials_norew.thisIndex,block.thisRepN,block.thisTrialN,block.thisN,block.thisIndex,trials_rew.thisRepN,trials_rew.thisTrialN,trials_rew.thisN,trials_rew.thisIndex,key_resp.started,key_resp.keys,key_resp.rt,left_circle.started,right_circle.started,left_triangle.started,right_triangle.started,left_star.started,right_star.started,left_hexagon.started,right_hexagon.started,training_fix.started,training_resp.started,training_resp.keys,training_resp.rt,points_trial,points_cumul,trainBlock,training_feedback_txt.started,fix.started,training_feedback_txt.stopped,fix.stopped,curr_topStim,curr_bottStim,curr_shape,ISI.started,tgt_fix_prac1.started,top_target_prac1.started,bott_target_prac1.started,target_resp_prac1.started,acc,E1,target_resp_prac1.keys,target_resp_prac1.rt,pracBlock,prac_fback_text.started,tgt_fix_prac2.started,top_target_prac2.started,bott_target_prac2.started,target_resp_prac2.started,target_resp_prac2.keys,target_resp_prac2.rt,prac_fback_text.stopped,star.started,hegagon.started,triangle.started,circle.started,top_target.started,tgt_fix.started,bot_target.started,target_resp.started,star.stopped,hegagon.stopped,triangle.stopped,circle.stopped,alt,task,condition,target_resp.keys,target_resp.rt,rewCond,vts_fback.started,vts_fback.stopped,blockNum,norew_fback.started,norew_fback.stopped,top_target.stopped,tgt_fix.stopped,bot_target.stopped,target_resp.stopped,key_resp_2.keys,key_resp_2.rt,rewExpectancy,feedbk_text.started,feedbk_text.stopped,text_3.started,debrief.started,text_3.stopped,button.started,debrief.index,debrief.itemText,debrief.type,debrief.granularity,debrief.font,debrief.markerColor,debrief.response,debrief.rt,button.numClicks,button.timesOn,button.timesOff,participant,date,expName,psychopyVersion,frameRate,
,,,,,,,,,,,,,,,,,,,,,,,,,,,,,,,,,,,,,,,,,,,,,,,,,,,,,,794.6431437839055,space,13.319595728069544,,,,,,,,,,,,,,,,,,,,,,,,,,,,,,,,,,,,,,,,,,,,,,,,,,,,,,,,,,,,,,,,,,,,,,,,,,,,,,,,,,,,,,,,45451,2022-12-01_11h17.39.129,vts_reward_expectancy_bt_OFFLINE,2022.2.4,60.204554261240915,
0,1,0,0,0,0,0,1,circle,star,0,0,0,0,0,0,0,5,,,,,,,,,,,,,,,,,,,,,,,,,,,,,,,,,,,,,,,,844.8143623739015,844.8143623739015,844.8143623739015,844.8143623739015,844.8143623739015,844.8143623739015,844.8143623739015,844.8143623739015,844.8143623739015,844.8143623739015,l,2.32303197204601,1,1,0,847.1665708048968,848.668319453951,,,,,,,,,,,,,,,,,,,,,,,,,,,,,,,,,,,,,,,,,,,,,,,,,,,,,,,,,,,,,,,,,,,,,,,45451,2022-12-01_11h17.39.129,vts_reward_expectancy_bt_OFFLINE,2022.2.4,60.204554261240915,
0,0,0,1,1,0,0,0,star,triangle,0,0,0,0,0,1,1,9,,,,,,,,,,,,,,,,,,,,,,,,,,,,,,,,,,,,,,,,849.1689804400085,849.1689804400085,849.1689804400085,849.1689804400085,849.1689804400085,849.1689804400085,849.1689804400085,849.1689804400085,849.1689804400085,849.1689804400085,l,1.9530980810523033,10,11,0,851.1543555069948,852.6561396939214,,,,,,,,,,,,,,,,,,,,,,,,,,,,,,,,,,,,,,,,,,,,,,,,,,,,,,,,,,,,,,,,,,,,,,,45451,2022-12-01_11h17.39.129,vts_reward_expectancy_bt_OFFLINE,2022.2.4,60.204554261240915,
1,0,0,0,0,1,0,0,triangle,circle,0,0,0,0,0,2,2,0,,,,,,,,,,,,,,,,,,,,,,,,,,,,,,,,,,,,,,,,853.1566917239688,853.1566917239688,853.1566917239688,853.1566917239688,853.1566917239688,853.1566917239688,853.1566917239688,853.1566917239688,853.1566917239688,853.1566917239688,l,1.8219433111371472,10,21,0,855.0085788059514,856.5103193609975,,,,,,,,,,,,,,,,,,,,,,,,,,,,,,,,,,,,,,,,,,,,,,,,,,,,,,,,,,,,,,,,,,,,,,,45451,2022-12-01_11h17.39.129,vts_reward_expectancy_bt_OFFLINE,2022.2.4,60.204554261240915,
0,0,1,0,1,0,0,0,hexagon,triangle,0,0,0,0,0,3,3,6,,,,,,,,,,,,,,,,,,,,,,,,,,,,,,,,,,,,,,,,857.0109692919068,857.0109692919068,857.0109692919068,857.0109692919068,857.0109692919068,857.0109692919068,857.0109692919068,857.0109692919068,857.0109692919068,857.0109692919068,a,2.097294089035131,10,31,0,859.1298303320073,860.631453015958,,,,,,,,,,,,,,,,,,,,,,,,,,,,,,,,,,,,,,,,,,,,,,,,,,,,,,,,,,,,,,,,,,,,,,,45451,2022-12-01_11h17.39.129,vts_reward_expectancy_bt_OFFLINE,2022.2.4,60.204554261240915,
0,0,1,0,0,1,0,0,hexagon,circle,0,0,0,0,0,4,4,7,,,,,,,,,,,,,,,,,,,,,,,,,,,,,,,,,,,,,,,,861.1319707710063,861.1319707710063,861.1319707710063,861.1319707710063,861.1319707710063,861.1319707710063,861.1319707710063,861.1319707710063,861.1319707710063,861.1319707710063,a,3.2421449290122837,10,41,0,864.4024399289628,865.9041418900015,,,,,,,,,,,,,,,,,,,,,,,,,,,,,,,,,,,,,,,,,,,,,,,,,,,,,,,,,,,,,,,,,,,,,,,45451,2022-12-01_11h17.39.129,vts_reward_expectancy_bt_OFFLINE,2022.2.4,60.204554261240915,
0,0,1,0,0,0,0,1,hexagon,star,0,0,0,0,0,5,5,8,,,,,,,,,,,,,,,,,,,,,,,,,,,,,,,,,,,,,,,,866.4045674139634,866.4045674139634,866.4045674139634,866.4045674139634,866.4045674139634,866.4045674139634,866.4045674139634,866.4045674139634,866.4045674139634,866.4045674139634,a,1.0077112760627642,10,51,0,867.4389772769064,868.940688631963,,,,,,,,,,,,,,,,,,,,,,,,,,,,,,,,,,,,,,,,,,,,,,,,,,,,,,,,,,,,,,,,,,,,,,,45451,2022-12-01_11h17.39.129,vts_reward_expectancy_bt_OFFLINE,2022.2.4,60.204554261240915,
1,0,0,0,0,0,1,0,triangle,hexagon,0,0,0,0,0,6,6,1,,,,,,,,,,,,,,,,,,,,,,,,,,,,,,,,,,,,,,,,869.4413717899006,869.4413717899006,869.4413717899006,869.4413717899006,869.4413717899006,869.4413717899006,869.4413717899006,869.4413717899006,869.4413717899006,869.4413717899006,l,2.109927505021915,1,52,0,871.5768971469952,873.078629364958,,,,,,,,,,,,,,,,,,,,,,,,,,,,,,,,,,,,,,,,,,,,,,,,,,,,,,,,,,,,,,,,,,,,,,,45451,2022-12-01_11h17.39.129,vts_reward_expectancy_bt_OFFLINE,2022.2.4,60.204554261240915,
1,0,0,0,0,0,0,1,triangle,star,0,0,0,0,0,7,7,2,,,,,,,,,,,,,,,,,,,,,,,,,,,,,,,,,,,,,,,,873.5793102999451,873.5793102999451,873.5793102999451,873.5793102999451,873.5793102999451,873.5793102999451,873.5793102999451,873.5793102999451,873.5793102999451,873.5793102999451,a,0.7074135650182143,10,62,0,874.3133767039981,875.8148901989916,,,,,,,,,,,,,,,,,,,,,,,,,,,,,,,,,,,,,,,,,,,,,,,,,,,,,,,,,,,,,,,,,,,,,,,45451,2022-12-01_11h17.39.129,vts_reward_expectancy_bt_OFFLINE,2022.2.4,60.204554261240915,
0,1,0,0,1,0,0,0,circle,triangle,0,0,0,0,0,8,8,3,,,,,,,,,,,,,,,,,,,,,,,,,,,,,,,,,,,,,,,,876.3154847469414,876.3154847469414,876.3154847469414,876.3154847469414,876.3154847469414,876.3154847469414,876.3154847469414,876.3154847469414,876.3154847469414,876.3154847469414,a,1.2897273229900748,10,72,0,877.6336952099809,879.1351893459214,,,,,,,,,,,,,,,,,,,,,,,,,,,,,,,,,,,,,,,,,,,,,,,,,,,,,,,,,,,,,,,,,,,,,,,45451,2022-12-01_11h17.39.129,vts_reward_expectancy_bt_OFFLINE,2022.2.4,60.204554261240915,
0,0,0,1,0,0,1,0,star,hexagon,0,0,0,0,0,9,9,11,,,,,,,,,,,,,,,,,,,,,,,,,,,,,,,,,,,,,,,,879.6357353070052,879.6357353070052,879.6357353070052,879.6357353070052,879.6357353070052,879.6357353070052,879.6357353070052,879.6357353070052,879.6357353070052,879.6357353070052,l,0.7363595910137519,10,82,0,880.4034540049033,881.9051174499327,,,,,,,,,,,,,,,,,,,,,,,,,,,,,,,,,,,,,,,,,,,,,,,,,,,,,,,,,,,,,,,,,,,,,,,45451,2022-12-01_11h17.39.129,vts_reward_expectancy_bt_OFFLINE,2022.2.4,60.204554261240915,
0,0,0,1,0,1,0,0,star ,circle,0,0,0,0,0,10,10,10,,,,,,,,,,,,,,,,,,,,,,,,,,,,,,,,,,,,,,,,882.4055880339583,882.4055880339583,882.4055880339583,882.4055880339583,882.4055880339583,882.4055880339583,882.4055880339583,882.4055880339583,882.4055880339583,882.4055880339583,l,0.7457150570116937,10,92,0,883.1729450549465,884.674704118981,,,,,,,,,,,,,,,,,,,,,,,,,,,,,,,,,,,,,,,,,,,,,,,,,,,,,,,,,,,,,,,,,,,,,,,45451,2022-12-01_11h17.39.129,vts_reward_expectancy_bt_OFFLINE,2022.2.4,60.204554261240915,
0,1,0,0,0,0,1,0,circle,hexagon,0,0,0,0,0,11,11,4,,,,,,,,,,,,,,,,,,,,,,,,,,,,,,,,,,,,,,,,885.1752635409357,885.1752635409357,885.1752635409357,885.1752635409357,885.1752635409357,885.1752635409357,885.1752635409357,885.1752635409357,885.1752635409357,885.1752635409357,a,1.408164111082442,10,102,0,886.610177341965,888.1115960559109,,,,,,,,,,,,,,,,,,,,,,,,,,,,,,,,,,,,,,,,,,,,,,,,,,,,,,,,,,,,,,,,,,,,,,,45451,2022-12-01_11h17.39.129,vts_reward_expectancy_bt_OFFLINE,2022.2.4,60.204554261240915,
1,0,0,0,0,1,0,0,triangle,circle,0,0,0,0,1,0,12,0,,,,,,,,,,,,,,,,,,,,,,,,,,,,,,,,,,,,,,,,888.6122450859984,888.6122450859984,888.6122450859984,888.6122450859984,888.6122450859984,888.6122450859984,888.6122450859984,888.6122450859984,888.6122450859984,888.6122450859984,a,1.109962214017287,10,112,0,889.7470401099417,891.2485088809626,,,,,,,,,,,,,,,,,,,,,,,,,,,,,,,,,,,,,,,,,,,,,,,,,,,,,,,,,,,,,,,,,,,,,,,45451,2022-12-01_11h17.39.129,vts_reward_expectancy_bt_OFFLINE,2022.2.4,60.204554261240915,
0,0,0,1,0,0,1,0,star,hexagon,0,0,0,0,1,1,13,11,,,,,,,,,,,,,,,,,,,,,,,,,,,,,,,,,,,,,,,,891.7490775999613,891.7490775999613,891.7490775999613,891.7490775999613,891.7490775999613,891.7490775999613,891.7490775999613,891.7490775999613,891.7490775999613,891.7490775999613,l,0.7414760930696502,1,113,0,892.5166646660073,894.0184541488998,,,,,,,,,,,,,,,,,,,,,,,,,,,,,,,,,,,,,,,,,,,,,,,,,,,,,,,,,,,,,,,,,,,,,,,45451,2022-12-01_11h17.39.129,vts_reward_expectancy_bt_OFFLINE,2022.2.4,60.204554261240915,
0,0,1,0,0,1,0,0,hexagon,circle,0,0,0,0,1,2,14,7,,,,,,,,,,,,,,,,,,,,,,,,,,,,,,,,,,,,,,,,894.5188535819761,894.5188535819761,894.5188535819761,894.5188535819761,894.5188535819761,894.5188535819761,894.5188535819761,894.5188535819761,894.5188535819761,894.5188535819761,l,3.0342567280167714,1,114,0,897.5722421099199,899.0739861639449,,,,,,,,,,,,,,,,,,,,,,,,,,,,,,,,,,,,,,,,,,,,,,,,,,,,,,,,,,,,,,,,,,,,,,,45451,2022-12-01_11h17.39.129,vts_reward_expectancy_bt_OFFLINE,2022.2.4,60.204554261240915,
1,0,0,0,0,0,0,1,triangle,star,0,0,0,0,1,3,15,2,,,,,,,,,,,,,,,,,,,,,,,,,,,,,,,,,,,,,,,,899.5743663769681,899.5743663769681,899.5743663769681,899.5743663769681,899.5743663769681,899.5743663769681,899.5743663769681,899.5743663769681,899.5743663769681,899.5743663769681,a,0.5204115860396996,10,124,0,900.1252502969,901.6267512089107,,,,,,,,,,,,,,,,,,,,,,,,,,,,,,,,,,,,,,,,,,,,,,,,,,,,,,,,,,,,,,,,,,,,,,,45451,2022-12-01_11h17.39.129,vts_reward_expectancy_bt_OFFLINE,2022.2.4,60.204554261240915,
0,0,1,0,0,0,0,1,hexagon,star,0,0,0,0,1,4,16,8,,,,,,,,,,,,,,,,,,,,,,,,,,,,,,,,,,,,,,,,902.1271874239901,902.1271874239901,902.1271874239901,902.1271874239901,902.1271874239901,902.1271874239901,902.1271874239901,902.1271874239901,902.1271874239901,902.1271874239901,a,0.657586952089332,1,125,0,902.8112888919422,904.3129706250038,,,,,,,,,,,,,,,,,,,,,,,,,,,,,,,,,,,,,,,,,,,,,,,,,,,,,,,,,,,,,,,,,,,,,,,45451,2022-12-01_11h17.39.129,vts_reward_expectancy_bt_OFFLINE,2022.2.4,60.204554261240915,
0,0,1,0,1,0,0,0,hexagon,triangle,0,0,0,0,1,5,17,6,,,,,,,,,,,,,,,,,,,,,,,,,,,,,,,,,,,,,,,,904.8137642910006,904.8137642910006,904.8137642910006,904.8137642910006,904.8137642910006,904.8137642910006,904.8137642910006,904.8137642910006,904.8137642910006,904.8137642910006,l,1.322861870052293,10,135,0,906.1650811259169,907.666790765943,,,,,,,,,,,,,,,,,,,,,,,,,,,,,,,,,,,,,,,,,,,,,,,,,,,,,,,,,,,,,,,,,,,,,,,45451,2022-12-01_11h17.39.129,vts_reward_expectancy_bt_OFFLINE,2022.2.4,60.204554261240915,
0,0,0,1,1,0,0,0,star,triangle,0,0,0,0,1,6,18,9,,,,,,,,,,,,,,,,,,,,,,,,,,,,,,,,,,,,,,,,908.167122980929,908.167122980929,908.167122980929,908.167122980929,908.167122980929,908.167122980929,908.167122980929,908.167122980929,908.167122980929,908.167122980929,l,0.818156799999997,10,145,0,909.0017561039422,910.5029684219044,910.5029684219044,911.0037384789903,,,,,,,,,,,,,,,,,,,,,,,,,,,,,,,,,,,,,,,,,,,,,,,,,,,,,,,,,,,,,,,,,,,,,45451,2022-12-01_11h17.39.129,vts_reward_expectancy_bt_OFFLINE,2022.2.4,60.204554261240915,
0,0,0,1,0,1,0,0,star ,circle,0,0,0,0,1,7,19,10,,,,,,,,,,,,,,,,,,,,,,,,,,,,,,,,,,,,,,,,911.0037384789903,911.0037384789903,911.0037384789903,911.0037384789903,911.0037384789903,911.0037384789903,911.0037384789903,911.0037384789903,911.0037384789903,911.0037384789903,a,1.3428745389683172,10,155,0,912.3720887500094,913.8736303449841,,,,,,,,,,,,,,,,,,,,,,,,,,,,,,,,,,,,,,,,,,,,,,,,,,,,,,,,,,,,,,,,,,,,,,,45451,2022-12-01_11h17.39.129,vts_reward_expectancy_bt_OFFLINE,2022.2.4,60.204554261240915,
0,1,0,0,1,0,0,0,circle,triangle,0,0,0,0,1,8,20,3,,,,,,,,,,,,,,,,,,,,,,,,,,,,,,,,,,,,,,,,914.374338149908,914.374338149908,914.374338149908,914.374338149908,914.374338149908,914.374338149908,914.374338149908,914.374338149908,914.374338149908,914.374338149908,l,1.7424821620807052,1,156,0,916.1427273809677,917.6444748869399,,,,,,,,,,,,,,,,,,,,,,,,,,,,,,,,,,,,,,,,,,,,,,,,,,,,,,,,,,,,,,,,,,,,,,,45451,2022-12-01_11h17.39.129,vts_reward_expectancy_bt_OFFLINE,2022.2.4,60.204554261240915,
0,1,0,0,0,0,0,1,circle,star,0,0,0,0,1,9,21,5,,,,,,,,,,,,,,,,,,,,,,,,,,,,,,,,,,,,,,,,918.1449605450034,918.1449605450034,918.1449605450034,918.1449605450034,918.1449605450034,918.1449605450034,918.1449605450034,918.1449605450034,918.1449605450034,918.1449605450034,a,0.6932722569908947,10,166,0,918.862551942002,920.3640540819615,,,,,,,,,,,,,,,,,,,,,,,,,,,,,,,,,,,,,,,,,,,,,,,,,,,,,,,,,,,,,,,,,,,,,,,45451,2022-12-01_11h17.39.129,vts_reward_expectancy_bt_OFFLINE,2022.2.4,60.204554261240915,
1,0,0,0,0,0,1,0,triangle,hexagon,0,0,0,0,1,10,22,1,,,,,,,,,,,,,,,,,,,,,,,,,,,,,,,,,,,,,,,,920.8644885609392,920.8644885609392,920.8644885609392,920.8644885609392,920.8644885609392,920.8644885609392,920.8644885609392,920.8644885609392,920.8644885609392,920.8644885609392,l,3.2183389990823343,1,167,0,924.1015619119862,925.6033344339812,,,,,,,,,,,,,,,,,,,,,,,,,,,,,,,,,,,,,,,,,,,,,,,,,,,,,,,,,,,,,,,,,,,,,,,45451,2022-12-01_11h17.39.129,vts_reward_expectancy_bt_OFFLINE,2022.2.4,60.204554261240915,
0,1,0,0,0,0,1,0,circle,hexagon,0,0,0,0,1,11,23,4,,,,,,,,,,,,,,,,,,,,,,,,,,,,,,,,,,,,,,,,926.1037878548959,926.1037878548959,926.1037878548959,926.1037878548959,926.1037878548959,926.1037878548959,926.1037878548959,926.1037878548959,926.1037878548959,926.1037878548959,a,1.1950837520416826,10,177,0,927.3216667189263,928.8233471389394,,,,,,,,,,,,,,,,,,,,,,,,,,,,,,,,,,,,,,,,,,,,,,,,,,,,,,,,,,,,,,,,,,,,,,,45451,2022-12-01_11h17.39.129,vts_reward_expectancy_bt_OFFLINE,2022.2.4,60.204554261240915,
0,1,0,0,0,0,1,0,circle,hexagon,0,0,0,0,2,0,24,4,,,,,,,,,,,,,,,,,,,,,,,,,,,,,,,,,,,,,,,,929.3238278569188,929.3238278569188,929.3238278569188,929.3238278569188,929.3238278569188,929.3238278569188,929.3238278569188,929.3238278569188,929.3238278569188,929.3238278569188,a,1.8698575079906732,1,178,0,931.2261151509592,932.7279077719431,,,,,,,,,,,,,,,,,,,,,,,,,,,,,,,,,,,,,,,,,,,,,,,,,,,,,,,,,,,,,,,,,,,,,,,45451,2022-12-01_11h17.39.129,vts_reward_expectancy_bt_OFFLINE,2022.2.4,60.204554261240915,
0,0,0,1,0,0,1,0,star,hexagon,0,0,0,0,2,1,25,11,,,,,,,,,,,,,,,,,,,,,,,,,,,,,,,,,,,,,,,,933.2283746369649,933.2283746369649,933.2283746369649,933.2283746369649,933.2283746369649,933.2283746369649,933.2283746369649,933.2283746369649,933.2283746369649,933.2283746369649,l,0.6311807309975848,10,188,0,933.879040402011,935.380753956968,,,,,,,,,,,,,,,,,,,,,,,,,,,,,,,,,,,,,,,,,,,,,,,,,,,,,,,,,,,,,,,,,,,,,,,45451,2022-12-01_11h17.39.129,vts_reward_expectancy_bt_OFFLINE,2022.2.4,60.204554261240915,
0,0,0,1,1,0,0,0,star,triangle,0,0,0,0,2,2,26,9,,,,,,,,,,,,,,,,,,,,,,,,,,,,,,,,,,,,,,,,935.8812246819725,935.8812246819725,935.8812246819725,935.8812246819725,935.8812246819725,935.8812246819725,935.8812246819725,935.8812246819725,935.8812246819725,935.8812246819725,a,0.9252266340190545,1,189,0,936.8323601639131,938.3338010669686,,,,,,,,,,,,,,,,,,,,,,,,,,,,,,,,,,,,,,,,,,,,,,,,,,,,,,,,,,,,,,,,,,,,,,,45451,2022-12-01_11h17.39.129,vts_reward_expectancy_bt_OFFLINE,2022.2.4,60.204554261240915,
0,0,0,1,0,1,0,0,star ,circle,0,0,0,0,2,3,27,10,,,,,,,,,,,,,,,,,,,,,,,,,,,,,,,,,,,,,,,,938.8343061459018,938.8343061459018,938.8343061459018,938.8343061459018,938.8343061459018,938.8343061459018,938.8343061459018,938.8343061459018,938.8343061459018,938.8343061459018,l,0.7960521200438961,10,199,0,939.6520796269178,941.1538076419383,,,,,,,,,,,,,,,,,,,,,,,,,,,,,,,,,,,,,,,,,,,,,,,,,,,,,,,,,,,,,,,,,,,,,,,45451,2022-12-01_11h17.39.129,vts_reward_expectancy_bt_OFFLINE,2022.2.4,60.204554261240915,
1,0,0,0,0,0,0,1,triangle,star,0,0,0,0,2,4,28,2,,,,,,,,,,,,,,,,,,,,,,,,,,,,,,,,,,,,,,,,941.6541714339983,941.6541714339983,941.6541714339983,941.6541714339983,941.6541714339983,941.6541714339983,941.6541714339983,941.6541714339983,941.6541714339983,941.6541714339983,a,0.5864980370970443,10,209,0,942.2715475989971,943.7733611490112,,,,,,,,,,,,,,,,,,,,,,,,,,,,,,,,,,,,,,,,,,,,,,,,,,,,,,,,,,,,,,,,,,,,,,,45451,2022-12-01_11h17.39.129,vts_reward_expectancy_bt_OFFLINE,2022.2.4,60.204554261240915,
1,0,0,0,0,0,1,0,triangle,hexagon,0,0,0,0,2,5,29,1,,,,,,,,,,,,,,,,,,,,,,,,,,,,,,,,,,,,,,,,944.2739799869014,944.2739799869014,944.2739799869014,944.2739799869014,944.2739799869014,944.2739799869014,944.2739799869014,944.2739799869014,944.2739799869014,944.2739799869014,a,0.9926371551118791,10,219,0,945.2915180419805,946.7933615869842,,,,,,,,,,,,,,,,,,,,,,,,,,,,,,,,,,,,,,,,,,,,,,,,,,,,,,,,,,,,,,,,,,,,,,,45451,2022-12-01_11h17.39.129,vts_reward_expectancy_bt_OFFLINE,2022.2.4,60.204554261240915,
0,1,0,0,1,0,0,0,circle,triangle,0,0,0,0,2,6,30,3,,,,,,,,,,,,,,,,,,,,,,,,,,,,,,,,,,,,,,,,947.2938895599218,947.2938895599218,947.2938895599218,947.2938895599218,947.2938895599218,947.2938895599218,947.2938895599218,947.2938895599218,947.2938895599218,947.2938895599218,l,2.112854961073026,10,229,0,949.4296065469971,950.9313079270069,950.9313079270069,,,,,,,,,,,,,,,,,,,,,,,,,,,,,,,,,,,,,,,,,,,,,,,,,,,,,,,,,,,,,,,,,,,,,,45451,2022-12-01_11h17.39.129,vts_reward_expectancy_bt_OFFLINE,2022.2.4,60.204554261240915,
0,0,1,0,0,0,0,1,hexagon,star,0,0,0,0,2,7,31,8,,,,,,,,,,,,,,,,,,,,,,,,,,,,,,,,,,,,,,,,951.4317357509863,951.4317357509863,951.4317357509863,951.4317357509863,951.4317357509863,951.4317357509863,951.4317357509863,951.4317357509863,951.4317357509863,951.4317357509863,a,0.6998442490585148,1,230,0,952.1491702639032,953.6509363049408,,,,,,,,,,,,,,,,,,,,,,,,,,,,,,,,,,,,,,,,,,,,,,,,,,,,,,,,,,,,,,,,,,,,,,,45451,2022-12-01_11h17.39.129,vts_reward_expectancy_bt_OFFLINE,2022.2.4,60.204554261240915,
0,0,1,0,0,1,0,0,hexagon,circle,0,0,0,0,2,8,32,7,,,,,,,,,,,,,,,,,,,,,,,,,,,,,,,,,,,,,,,,954.151339604985,954.151339604985,954.151339604985,954.151339604985,954.151339604985,954.151339604985,954.151339604985,954.151339604985,954.151339604985,954.151339604985,l,0.9600459830835462,1,231,0,955.1358793849358,956.6375683809165,,,,,,,,,,,,,,,,,,,,,,,,,,,,,,,,,,,,,,,,,,,,,,,,,,,,,,,,,,,,,,,,,,,,,,,45451,2022-12-01_11h17.39.129,vts_reward_expectancy_bt_OFFLINE,2022.2.4,60.204554261240915,
1,0,0,0,0,1,0,0,triangle,circle,0,0,0,0,2,9,33,0,,,,,,,,,,,,,,,,,,,,,,,,,,,,,,,,,,,,,,,,957.138048011926,957.138048011926,957.138048011926,957.138048011926,957.138048011926,957.138048011926,957.138048011926,957.138048011926,957.138048011926,957.138048011926,a,0.6750491741113365,10,241,0,957.8386888909154,959.3404216018971,,,,,,,,,,,,,,,,,,,,,,,,,,,,,,,,,,,,,,,,,,,,,,,,,,,,,,,,,,,,,,,,,,,,,,,45451,2022-12-01_11h17.39.129,vts_reward_expectancy_bt_OFFLINE,2022.2.4,60.204554261240915,
0,1,0,0,0,0,0,1,circle,star,0,0,0,0,2,10,34,5,,,,,,,,,,,,,,,,,,,,,,,,,,,,,,,,,,,,,,,,959.8409479119582,959.8409479119582,959.8409479119582,959.8409479119582,959.8409479119582,959.8409479119582,959.8409479119582,959.8409479119582,959.8409479119582,959.8409479119582,a,1.6175686151254922,10,251,0,961.4761260339292,962.9777387869544,,,,,,,,,,,,,,,,,,,,,,,,,,,,,,,,,,,,,,,,,,,,,,,,,,,,,,,,,,,,,,,,,,,,,,,45451,2022-12-01_11h17.39.129,vts_reward_expectancy_bt_OFFLINE,2022.2.4,60.204554261240915,
0,0,1,0,1,0,0,0,hexagon,triangle,0,0,0,0,2,11,35,6,,,,,,,,,,,,,,,,,,,,,,,,,,,,,,,,,,,,,,,,963.4783608549042,963.4783608549042,963.4783608549042,963.4783608549042,963.4783608549042,963.4783608549042,963.4783608549042,963.4783608549042,963.4783608549042,963.4783608549042,l,0.7353589900303632,1,252,0,964.2458941650111,965.747425909969,,,,,,,,,,,,,,,,,,,,,,,,,,,,,,,,,,,,,,,,,,,,,,,,,,,,,,,,,,,,,,,,,,,,,,,45451,2022-12-01_11h17.39.129,vts_reward_expectancy_bt_OFFLINE,2022.2.4,60.204554261240915,
1,0,0,0,0,0,1,0,triangle,hexagon,0,0,0,0,3,0,36,1,,,,,,,,,,,,,,,,,,,,,,,,,,,,,,,,,,,,,,,,966.2480934769846,966.2480934769846,966.2480934769846,966.2480934769846,966.2480934769846,966.2480934769846,966.2480934769846,966.2480934769846,966.2480934769846,966.2480934769846,a,1.3288164000259712,10,262,0,967.599406144931,969.1012883919757,,,,,,,,,,,,,,,,,,,,,,,,,,,,,,,,,,,,,,,,,,,,,,,,,,,,,,,,,,,,,,,,,,,,,,,45451,2022-12-01_11h17.39.129,vts_reward_expectancy_bt_OFFLINE,2022.2.4,60.204554261240915,
0,0,0,1,1,0,0,0,star,triangle,0,0,0,0,3,1,37,9,,,,,,,,,,,,,,,,,,,,,,,,,,,,,,,,,,,,,,,,969.6017352949129,969.6017352949129,969.6017352949129,969.6017352949129,969.6017352949129,969.6017352949129,969.6017352949129,969.6017352949129,969.6017352949129,969.6017352949129,l,1.0925654890015721,10,272,0,970.7195370559348,972.2213986190036,,,,,,,,,,,,,,,,,,,,,,,,,,,,,,,,,,,,,,,,,,,,,,,,,,,,,,,,,,,,,,,,,,,,,,,45451,2022-12-01_11h17.39.129,vts_reward_expectancy_bt_OFFLINE,2022.2.4,60.204554261240915,
0,0,1,0,0,0,0,1,hexagon,star,0,0,0,0,3,2,38,8,,,,,,,,,,,,,,,,,,,,,,,,,,,,,,,,,,,,,,,,972.7217419949593,972.7217419949593,972.7217419949593,972.7217419949593,972.7217419949593,972.7217419949593,972.7217419949593,972.7217419949593,972.7217419949593,972.7217419949593,a,3.4739543130854145,1,273,0,976.2256096559577,977.7275407369016,,,,,,,,,,,,,,,,,,,,,,,,,,,,,,,,,,,,,,,,,,,,,,,,,,,,,,,,,,,,,,,,,,,,,,,45451,2022-12-01_11h17.39.129,vts_reward_expectancy_bt_OFFLINE,2022.2.4,60.204554261240915,
0,0,0,1,0,0,1,0,star,hexagon,0,0,0,0,3,3,39,11,,,,,,,,,,,,,,,,,,,,,,,,,,,,,,,,,,,,,,,,978.2280795309925,978.2280795309925,978.2280795309925,978.2280795309925,978.2280795309925,978.2280795309925,978.2280795309925,978.2280795309925,978.2280795309925,978.2280795309925,l,1.0854712650179863,1,274,0,979.3458918899996,980.8474395968951,,,,,,,,,,,,,,,,,,,,,,,,,,,,,,,,,,,,,,,,,,,,,,,,,,,,,,,,,,,,,,,,,,,,,,,45451,2022-12-01_11h17.39.129,vts_reward_expectancy_bt_OFFLINE,2022.2.4,60.204554261240915,
0,1,0,0,0,0,0,1,circle,star,0,0,0,0,3,4,40,5,,,,,,,,,,,,,,,,,,,,,,,,,,,,,,,,,,,,,,,,981.3480173819698,981.3480173819698,981.3480173819698,981.3480173819698,981.3480173819698,981.3480173819698,981.3480173819698,981.3480173819698,981.3480173819698,981.3480173819698,l,1.0123920530313626,10,284,0,982.3827113709413,983.8842197689228,,,,,,,,,,,,,,,,,,,,,,,,,,,,,,,,,,,,,,,,,,,,,,,,,,,,,,,,,,,,,,,,,,,,,,,45451,2022-12-01_11h17.39.129,vts_reward_expectancy_bt_OFFLINE,2022.2.4,60.204554261240915,
0,1,0,0,0,0,1,0,circle,hexagon,0,0,0,0,3,5,41,4,,,,,,,,,,,,,,,,,,,,,,,,,,,,,,,,,,,,,,,,984.3846219310071,984.3846219310071,984.3846219310071,984.3846219310071,984.3846219310071,984.3846219310071,984.3846219310071,984.3846219310071,984.3846219310071,984.3846219310071,l,1.329147874028422,1,285,0,985.7361042659031,987.2378663509153,,,,,,,,,,,,,,,,,,,,,,,,,,,,,,,,,,,,,,,,,,,,,,,,,,,,,,,,,,,,,,,,,,,,,,,45451,2022-12-01_11h17.39.129,vts_reward_expectancy_bt_OFFLINE,2022.2.4,60.204554261240915,
1,0,0,0,0,1,0,0,triangle,circle,0,0,0,0,3,6,42,0,,,,,,,,,,,,,,,,,,,,,,,,,,,,,,,,,,,,,,,,987.7385094799101,987.7385094799101,987.7385094799101,987.7385094799101,987.7385094799101,987.7385094799101,987.7385094799101,987.7385094799101,987.7385094799101,987.7385094799101,a,1.5304100681096315,10,295,0,989.2901593369897,990.7919415889774,,,,,,,,,,,,,,,,,,,,,,,,,,,,,,,,,,,,,,,,,,,,,,,,,,,,,,,,,,,,,,,,,,,,,,,45451,2022-12-01_11h17.39.129,vts_reward_expectancy_bt_OFFLINE,2022.2.4,60.204554261240915,
1,0,0,0,0,0,0,1,triangle,star,0,0,0,0,3,7,43,2,,,,,,,,,,,,,,,,,,,,,,,,,,,,,,,,,,,,,,,,991.2924115839414,991.2924115839414,991.2924115839414,991.2924115839414,991.2924115839414,991.2924115839414,991.2924115839414,991.2924115839414,991.2924115839414,991.2924115839414,a,2.0375289290677756,10,305,0,993.3611668209778,994.8630899660056,,,,,,,,,,,,,,,,,,,,,,,,,,,,,,,,,,,,,,,,,,,,,,,,,,,,,,,,,,,,,,,,,,,,,,,45451,2022-12-01_11h17.39.129,vts_reward_expectancy_bt_OFFLINE,2022.2.4,60.204554261240915,
0,0,0,1,0,1,0,0,star ,circle,0,0,0,0,3,8,44,10,,,,,,,,,,,,,,,,,,,,,,,,,,,,,,,,,,,,,,,,995.363448674907,995.363448674907,995.363448674907,995.363448674907,995.363448674907,995.363448674907,995.363448674907,995.363448674907,995.363448674907,995.363448674907,l,0.949535520048812,1,306,0,996.3311141519807,997.8330564969219,,,,,,,,,,,,,,,,,,,,,,,,,,,,,,,,,,,,,,,,,,,,,,,,,,,,,,,,,,,,,,,,,,,,,,,45451,2022-12-01_11h17.39.129,vts_reward_expectancy_bt_OFFLINE,2022.2.4,60.204554261240915,
0,1,0,0,1,0,0,0,circle,triangle,0,0,0,0,3,9,45,3,,,,,,,,,,,,,,,,,,,,,,,,,,,,,,,,,,,,,,,,998.3334244819125,998.3334244819125,998.3334244819125,998.3334244819125,998.3334244819125,998.3334244819125,998.3334244819125,998.3334244819125,998.3334244819125,998.3334244819125,l,1.1192234540358186,10,316,0,999.4846966769546,1000.9864459899254,,,,,,,,,,,,,,,,,,,,,,,,,,,,,,,,,,,,,,,,,,,,,,,,,,,,,,,,,,,,,,,,,,,,,,,45451,2022-12-01_11h17.39.129,vts_reward_expectancy_bt_OFFLINE,2022.2.4,60.204554261240915,
0,0,1,0,0,1,0,0,hexagon,circle,0,0,0,0,3,10,46,7,,,,,,,,,,,,,,,,,,,,,,,,,,,,,,,,,,,,,,,,1001.4869196559303,1001.4869196559303,1001.4869196559303,1001.4869196559303,1001.4869196559303,1001.4869196559303,1001.4869196559303,1001.4869196559303,1001.4869196559303,1001.4869196559303,l,1.6537851439788938,1,317,0,1003.1722177919,1004.6737100419123,1004.6737100419123,,,,,,,,,,,,,,,,,,,,,,,,,,,,,,,,,,,,,,,,,,,,,,,,,,,,,,,,,,,,,,,,,,,,,,45451,2022-12-01_11h17.39.129,vts_reward_expectancy_bt_OFFLINE,2022.2.4,60.204554261240915,
0,0,1,0,1,0,0,0,hexagon,triangle,0,0,0,0,3,11,47,6,,,,,,,,,,,,,,,,,,,,,,,,,,,,,,,,,,,,,,,,1005.174505308969,1005.174505308969,1005.174505308969,1005.174505308969,1005.174505308969,1005.174505308969,1005.174505308969,1005.174505308969,1005.174505308969,1005.174505308969,l,1.1398187380982563,1,318,0,1006.3425996109145,1007.843899280997,,,,,,,,,,,,,,,,,,,,,,,,,,,,,,,,,,,,,,,,,,,,,,,,,,,,,,,,,,,,,,,,,,,,,,,45451,2022-12-01_11h17.39.129,vts_reward_expectancy_bt_OFFLINE,2022.2.4,60.204554261240915,
1,0,0,0,0,0,1,0,triangle,hexagon,1,0,1,0,0,0,0,1,,,,,,,,,,,,,,,,,,,,,,,,,,,,,,,,,,,,,,,,1019.5736636739457,1019.5736636739457,1019.5736636739457,1019.5736636739457,1019.5736636739457,1019.5736636739457,1019.5736636739457,1019.5736636739457,1019.5736636739457,1019.5736636739457,a,2.2442693810444325,1,319,1,1021.8428322199034,1023.344496725942,,,,,,,,,,,,,,,,,,,,,,,,,,,,,,,,,,,,,,,,,,,,,,,,,,,,,,,,,,,,,,,,,,,,,,,45451,2022-12-01_11h17.39.129,vts_reward_expectancy_bt_OFFLINE,2022.2.4,60.204554261240915,
0,0,1,0,0,1,0,0,hexagon,circle,1,0,1,0,0,1,1,7,,,,,,,,,,,,,,,,,,,,,,,,,,,,,,,,,,,,,,,,1023.8449376109056,1023.8449376109056,1023.8449376109056,1023.8449376109056,1023.8449376109056,1023.8449376109056,1023.8449376109056,1023.8449376109056,1023.8449376109056,1023.8449376109056,l,0.8418061870615929,10,329,1,1024.712560156011,1026.2143785009393,,,,,,,,,,,,,,,,,,,,,,,,,,,,,,,,,,,,,,,,,,,,,,,,,,,,,,,,,,,,,,,,,,,,,,,45451,2022-12-01_11h17.39.129,vts_reward_expectancy_bt_OFFLINE,2022.2.4,60.204554261240915,
0,0,1,0,0,0,0,1,hexagon,star,1,0,1,0,0,2,2,8,,,,,,,,,,,,,,,,,,,,,,,,,,,,,,,,,,,,,,,,1026.7147413099883,1026.7147413099883,1026.7147413099883,1026.7147413099883,1026.7147413099883,1026.7147413099883,1026.7147413099883,1026.7147413099883,1026.7147413099883,1026.7147413099883,a,1.2586555409943685,1,330,1,1027.9995928789722,1029.5012451059883,,,,,,,,,,,,,,,,,,,,,,,,,,,,,,,,,,,,,,,,,,,,,,,,,,,,,,,,,,,,,,,,,,,,,,,45451,2022-12-01_11h17.39.129,vts_reward_expectancy_bt_OFFLINE,2022.2.4,60.204554261240915,
0,0,1,0,1,0,0,0,hexagon,triangle,1,0,1,0,0,3,3,6,,,,,,,,,,,,,,,,,,,,,,,,,,,,,,,,,,,,,,,,1030.001649074955,1030.001649074955,1030.001649074955,1030.001649074955,1030.001649074955,1030.001649074955,1030.001649074955,1030.001649074955,1030.001649074955,1030.001649074955,l,0.751597851049155,1,331,1,1030.7857486739522,1032.2875758819282,,,,,,,,,,,,,,,,,,,,,,,,,,,,,,,,,,,,,,,,,,,,,,,,,,,,,,,,,,,,,,,,,,,,,,,45451,2022-12-01_11h17.39.129,vts_reward_expectancy_bt_OFFLINE,2022.2.4,60.204554261240915,
0,0,0,1,1,0,0,0,star,triangle,1,0,1,0,0,4,4,9,,,,,,,,,,,,,,,,,,,,,,,,,,,,,,,,,,,,,,,,1032.7881438159384,1032.7881438159384,1032.7881438159384,1032.7881438159384,1032.7881438159384,1032.7881438159384,1032.7881438159384,1032.7881438159384,1032.7881438159384,1032.7881438159384,a,1.0017177240224555,1,332,1,1033.8226170869311,1035.3242462750059,,,,,,,,,,,,,,,,,,,,,,,,,,,,,,,,,,,,,,,,,,,,,,,,,,,,,,,,,,,,,,,,,,,,,,,45451,2022-12-01_11h17.39.129,vts_reward_expectancy_bt_OFFLINE,2022.2.4,60.204554261240915,
0,1,0,0,1,0,0,0,circle,triangle,1,0,1,0,0,5,5,3,,,,,,,,,,,,,,,,,,,,,,,,,,,,,,,,,,,,,,,,1035.8248403499601,1035.8248403499601,1035.8248403499601,1035.8248403499601,1035.8248403499601,1035.8248403499601,1035.8248403499601,1035.8248403499601,1035.8248403499601,1035.8248403499601,l,1.338959689019248,10,342,1,1037.1929358199704,1038.694611046929,,,,,,,,,,,,,,,,,,,,,,,,,,,,,,,,,,,,,,,,,,,,,,,,,,,,,,,,,,,,,,,,,,,,,,,45451,2022-12-01_11h17.39.129,vts_reward_expectancy_bt_OFFLINE,2022.2.4,60.204554261240915,
0,1,0,0,0,0,0,1,circle,star,1,0,1,0,0,6,6,5,,,,,,,,,,,,,,,,,,,,,,,,,,,,,,,,,,,,,,,,1039.1952772059012,1039.1952772059012,1039.1952772059012,1039.1952772059012,1039.1952772059012,1039.1952772059012,1039.1952772059012,1039.1952772059012,1039.1952772059012,1039.1952772059012,l,0.7356727359583601,1,343,1,1039.962796753971,1041.4644403649727,,,,,,,,,,,,,,,,,,,,,,,,,,,,,,,,,,,,,,,,,,,,,,,,,,,,,,,,,,,,,,,,,,,,,,,45451,2022-12-01_11h17.39.129,vts_reward_expectancy_bt_OFFLINE,2022.2.4,60.204554261240915,
0,1,0,0,0,0,1,0,circle,hexagon,1,0,1,0,0,7,7,4,,,,,,,,,,,,,,,,,,,,,,,,,,,,,,,,,,,,,,,,1041.9648534239968,1041.9648534239968,1041.9648534239968,1041.9648534239968,1041.9648534239968,1041.9648534239968,1041.9648534239968,1041.9648534239968,1041.9648534239968,1041.9648534239968,l,1.3085563370259479,1,344,1,1043.299693154986,1044.8015388268977,,,,,,,,,,,,,,,,,,,,,,,,,,,,,,,,,,,,,,,,,,,,,,,,,,,,,,,,,,,,,,,,,,,,,,,45451,2022-12-01_11h17.39.129,vts_reward_expectancy_bt_OFFLINE,2022.2.4,60.204554261240915,
0,0,0,1,0,0,1,0,star,hexagon,1,0,1,0,0,8,8,11,,,,,,,,,,,,,,,,,,,,,,,,,,,,,,,,,,,,,,,,1045.3019074539188,1045.3019074539188,1045.3019074539188,1045.3019074539188,1045.3019074539188,1045.3019074539188,1045.3019074539188,1045.3019074539188,1045.3019074539188,1045.3019074539188,l,1.0876621400238946,10,354,1,1046.419816331938,1047.921533980989,,,,,,,,,,,,,,,,,,,,,,,,,,,,,,,,,,,,,,,,,,,,,,,,,,,,,,,,,,,,,,,,,,,,,,,45451,2022-12-01_11h17.39.129,vts_reward_expectancy_bt_OFFLINE,2022.2.4,60.204554261240915,
1,0,0,0,0,0,0,1,triangle,star,1,0,1,0,0,9,9,2,,,,,,,,,,,,,,,,,,,,,,,,,,,,,,,,,,,,,,,,1048.4220312508987,1048.4220312508987,1048.4220312508987,1048.4220312508987,1048.4220312508987,1048.4220312508987,1048.4220312508987,1048.4220312508987,1048.4220312508987,1048.4220312508987,a,0.5342334810411558,10,364,1,1048.9727369699394,1050.4743176199263,1050.4743176199263,,,,,,,,,,,,,,,,,,,,,,,,,,,,,,,,,,,,,,,,,,,,,,,,,,,,,,,,,,,,,,,,,,,,,,45451,2022-12-01_11h17.39.129,vts_reward_expectancy_bt_OFFLINE,2022.2.4,60.204554261240915,
1,0,0,0,0,1,0,0,triangle,circle,1,0,1,0,0,10,10,0,,,,,,,,,,,,,,,,,,,,,,,,,,,,,,,,,,,,,,,,1050.9749918159796,1050.9749918159796,1050.9749918159796,1050.9749918159796,1050.9749918159796,1050.9749918159796,1050.9749918159796,1050.9749918159796,1050.9749918159796,1050.9749918159796,l,0.8497105189599097,1,365,1,1051.8425110749668,1053.3442648448981,,,,,,,,,,,,,,,,,,,,,,,,,,,,,,,,,,,,,,,,,,,,,,,,,,,,,,,,,,,,,,,,,,,,,,,45451,2022-12-01_11h17.39.129,vts_reward_expectancy_bt_OFFLINE,2022.2.4,60.204554261240915,
0,0,0,1,0,1,0,0,star ,circle,1,0,1,0,0,11,11,10,,,,,,,,,,,,,,,,,,,,,,,,,,,,,,,,,,,,,,,,1053.8449289709097,1053.8449289709097,1053.8449289709097,1053.8449289709097,1053.8449289709097,1053.8449289709097,1053.8449289709097,1053.8449289709097,1053.8449289709097,1053.8449289709097,l,0.7248664740473032,10,375,1,1054.5957099118968,1056.0971554749412,,,,,,,,,,,,,,,,,,,,,,,,,,,,,,,,,,,,,,,,,,,,,,,,,,,,,,,,,,,,,,,,,,,,,,,45451,2022-12-01_11h17.39.129,vts_reward_expectancy_bt_OFFLINE,2022.2.4,60.204554261240915,
0,1,0,0,0,0,0,1,circle,star,1,0,1,0,1,0,12,5,,,,,,,,,,,,,,,,,,,,,,,,,,,,,,,,,,,,,,,,1056.597689423943,1056.597689423943,1056.597689423943,1056.597689423943,1056.597689423943,1056.597689423943,1056.597689423943,1056.597689423943,1056.597689423943,1056.597689423943,a,0.4922119820257649,10,385,1,1057.1151387009304,1058.6166488169692,,,,,,,,,,,,,,,,,,,,,,,,,,,,,,,,,,,,,,,,,,,,,,,,,,,,,,,,,,,,,,,,,,,,,,,45451,2022-12-01_11h17.39.129,vts_reward_expectancy_bt_OFFLINE,2022.2.4,60.204554261240915,
0,0,1,0,0,1,0,0,hexagon,circle,1,0,1,0,1,1,13,7,,,,,,,,,,,,,,,,,,,,,,,,,,,,,,,,,,,,,,,,1059.1171107039554,1059.1171107039554,1059.1171107039554,1059.1171107039554,1059.1171107039554,1059.1171107039554,1059.1171107039554,1059.1171107039554,1059.1171107039554,1059.1171107039554,a,0.9868268619757146,10,395,1,1060.135020796908,1061.6365711149992,,,,,,,,,,,,,,,,,,,,,,,,,,,,,,,,,,,,,,,,,,,,,,,,,,,,,,,,,,,,,,,,,,,,,,,45451,2022-12-01_11h17.39.129,vts_reward_expectancy_bt_OFFLINE,2022.2.4,60.204554261240915,
1,0,0,0,0,1,0,0,triangle,circle,1,0,1,0,1,2,14,0,,,,,,,,,,,,,,,,,,,,,,,,,,,,,,,,,,,,,,,,1062.1372941659065,1062.1372941659065,1062.1372941659065,1062.1372941659065,1062.1372941659065,1062.1372941659065,1062.1372941659065,1062.1372941659065,1062.1372941659065,1062.1372941659065,l,1.1962260460713878,10,405,1,1063.3553881288972,1064.8568494200008,,,,,,,,,,,,,,,,,,,,,,,,,,,,,,,,,,,,,,,,,,,,,,,,,,,,,,,,,,,,,,,,,,,,,,,45451,2022-12-01_11h17.39.129,vts_reward_expectancy_bt_OFFLINE,2022.2.4,60.204554261240915,
0,0,1,0,0,0,0,1,hexagon,star,1,0,1,0,1,3,15,8,,,,,,,,,,,,,,,,,,,,,,,,,,,,,,,,,,,,,,,,1065.357371769962,1065.357371769962,1065.357371769962,1065.357371769962,1065.357371769962,1065.357371769962,1065.357371769962,1065.357371769962,1065.357371769962,1065.357371769962,a,0.5752867880510166,1,406,1,1065.958192968974,1067.4598076869734,1067.4598076869734,,,,,,,,,,,,,,,,,,,,,,,,,,,,,,,,,,,,,,,,,,,,,,,,,,,,,,,,,,,,,,,,,,,,,,45451,2022-12-01_11h17.39.129,vts_reward_expectancy_bt_OFFLINE,2022.2.4,60.204554261240915,
0,1,0,0,1,0,0,0,circle,triangle,1,0,1,0,1,4,16,3,,,,,,,,,,,,,,,,,,,,,,,,,,,,,,,,,,,,,,,,1067.960333090974,1067.960333090974,1067.960333090974,1067.960333090974,1067.960333090974,1067.960333090974,1067.960333090974,1067.960333090974,1067.960333090974,1067.960333090974,l,0.8419196840841323,10,416,1,1068.8277201389428,1070.3293787349248,,,,,,,,,,,,,,,,,,,,,,,,,,,,,,,,,,,,,,,,,,,,,,,,,,,,,,,,,,,,,,,,,,,,,,,45451,2022-12-01_11h17.39.129,vts_reward_expectancy_bt_OFFLINE,2022.2.4,60.204554261240915,
0,0,0,1,1,0,0,0,star,triangle,1,0,1,0,1,5,17,9,,,,,,,,,,,,,,,,,,,,,,,,,,,,,,,,,,,,,,,,1070.830205523991,1070.830205523991,1070.830205523991,1070.830205523991,1070.830205523991,1070.830205523991,1070.830205523991,1070.830205523991,1070.830205523991,1070.830205523991,l,0.637292679050006,1,417,1,1071.4974801489152,1072.999198086909,,,,,,,,,,,,,,,,,,,,,,,,,,,,,,,,,,,,,,,,,,,,,,,,,,,,,,,,,,,,,,,,,,,,,,,45451,2022-12-01_11h17.39.129,vts_reward_expectancy_bt_OFFLINE,2022.2.4,60.204554261240915,
0,0,1,0,1,0,0,0,hexagon,triangle,1,0,1,0,1,6,18,6,,,,,,,,,,,,,,,,,,,,,,,,,,,,,,,,,,,,,,,,1073.499721276923,1073.499721276923,1073.499721276923,1073.499721276923,1073.499721276923,1073.499721276923,1073.499721276923,1073.499721276923,1073.499721276923,1073.499721276923,a,0.3861426269868389,1,418,1,1073.9167399669532,1075.4185062239412,,,,,,,,,,,,,,,,,,,,,,,,,,,,,,,,,,,,,,,,,,,,,,,,,,,,,,,,,,,,,,,,,,,,,,,45451,2022-12-01_11h17.39.129,vts_reward_expectancy_bt_OFFLINE,2022.2.4,60.204554261240915,
1,0,0,0,0,0,0,1,triangle,star,1,0,1,0,1,7,19,2,,,,,,,,,,,,,,,,,,,,,,,,,,,,,,,,,,,,,,,,1075.918966476922,1075.918966476922,1075.918966476922,1075.918966476922,1075.918966476922,1075.918966476922,1075.918966476922,1075.918966476922,1075.918966476922,1075.918966476922,a,0.6017233710736036,10,428,1,1076.5530394049129,1078.054735226906,,,,,,,,,,,,,,,,,,,,,,,,,,,,,,,,,,,,,,,,,,,,,,,,,,,,,,,,,,,,,,,,,,,,,,,45451,2022-12-01_11h17.39.129,vts_reward_expectancy_bt_OFFLINE,2022.2.4,60.204554261240915,
1,0,0,0,0,0,1,0,triangle,hexagon,1,0,1,0,1,8,20,1,,,,,,,,,,,,,,,,,,,,,,,,,,,,,,,,,,,,,,,,1078.5554057939444,1078.5554057939444,1078.5554057939444,1078.5554057939444,1078.5554057939444,1078.5554057939444,1078.5554057939444,1078.5554057939444,1078.5554057939444,1078.5554057939444,l,0.6859790000598878,1,429,1,1079.2729079310084,1080.7745624289382,1080.7745624289382,,,,,,,,,,,,,,,,,,,,,,,,,,,,,,,,,,,,,,,,,,,,,,,,,,,,,,,,,,,,,,,,,,,,,,45451,2022-12-01_11h17.39.129,vts_reward_expectancy_bt_OFFLINE,2022.2.4,60.204554261240915,
0,1,0,0,0,0,1,0,circle,hexagon,1,0,1,0,1,9,21,4,,,,,,,,,,,,,,,,,,,,,,,,,,,,,,,,,,,,,,,,1081.2748829459306,1081.2748829459306,1081.2748829459306,1081.2748829459306,1081.2748829459306,1081.2748829459306,1081.2748829459306,1081.2748829459306,1081.2748829459306,1081.2748829459306,a,0.2960390381049365,10,439,1,1081.5921301268972,1083.0936529769097,,,,,,,,,,,,,,,,,,,,,,,,,,,,,,,,,,,,,,,,,,,,,,,,,,,,,,,,,,,,,,,,,,,,,,,45451,2022-12-01_11h17.39.129,vts_reward_expectancy_bt_OFFLINE,2022.2.4,60.204554261240915,
0,0,0,1,0,1,0,0,star ,circle,1,0,1,0,1,10,22,10,,,,,,,,,,,,,,,,,,,,,,,,,,,,,,,,,,,,,,,,1083.5943359439261,1083.5943359439261,1083.5943359439261,1083.5943359439261,1083.5943359439261,1083.5943359439261,1083.5943359439261,1083.5943359439261,1083.5943359439261,1083.5943359439261,a,1.0489333940204233,10,449,1,1084.662161774002,1086.1637261708966,,,,,,,,,,,,,,,,,,,,,,,,,,,,,,,,,,,,,,,,,,,,,,,,,,,,,,,,,,,,,,,,,,,,,,,45451,2022-12-01_11h17.39.129,vts_reward_expectancy_bt_OFFLINE,2022.2.4,60.204554261240915,
0,0,0,1,0,0,1,0,star,hexagon,1,0,1,0,1,11,23,11,,,,,,,,,,,,,,,,,,,,,,,,,,,,,,,,,,,,,,,,1086.664358933922,1086.664358933922,1086.664358933922,1086.664358933922,1086.664358933922,1086.664358933922,1086.664358933922,1086.664358933922,1086.664358933922,1086.664358933922,l,0.9033463491359726,1,450,1,1087.5985568210017,1089.1002731199842,,,,,,,,,,,,,,,,,,,,,,,,,,,,,,,,,,,,,,,,,,,,,,,,,,,,,,,,,,,,,,,,,,,,,,,45451,2022-12-01_11h17.39.129,vts_reward_expectancy_bt_OFFLINE,2022.2.4,60.204554261240915,
0,0,1,0,0,0,0,1,hexagon,star,1,0,1,0,2,0,24,8,,,,,,,,,,,,,,,,,,,,,,,,,,,,,,,,,,,,,,,,1089.60063213401,1089.60063213401,1089.60063213401,1089.60063213401,1089.60063213401,1089.60063213401,1089.60063213401,1089.60063213401,1089.60063213401,1089.60063213401,a,1.893206752021797,1,451,1,1091.5196817959659,1093.021189313964,,,,,,,,,,,,,,,,,,,,,,,,,,,,,,,,,,,,,,,,,,,,,,,,,,,,,,,,,,,,,,,,,,,,,,,45451,2022-12-01_11h17.39.129,vts_reward_expectancy_bt_OFFLINE,2022.2.4,60.204554261240915,
0,0,0,1,0,0,1,0,star,hexagon,1,0,1,0,2,1,25,11,,,,,,,,,,,,,,,,,,,,,,,,,,,,,,,,,,,,,,,,1093.521786883939,1093.521786883939,1093.521786883939,1093.521786883939,1093.521786883939,1093.521786883939,1093.521786883939,1093.521786883939,1093.521786883939,1093.521786883939,l,1.90975639608223,1,452,1,1095.4572240539128,1096.958835513913,,,,,,,,,,,,,,,,,,,,,,,,,,,,,,,,,,,,,,,,,,,,,,,,,,,,,,,,,,,,,,,,,,,,,,,45451,2022-12-01_11h17.39.129,vts_reward_expectancy_bt_OFFLINE,2022.2.4,60.204554261240915,
1,0,0,0,0,0,0,1,triangle,star,1,0,1,0,2,2,26,2,,,,,,,,,,,,,,,,,,,,,,,,,,,,,,,,,,,,,,,,1097.4593286219751,1097.4593286219751,1097.4593286219751,1097.4593286219751,1097.4593286219751,1097.4593286219751,1097.4593286219751,1097.4593286219751,1097.4593286219751,1097.4593286219751,a,0.8639561850577593,10,462,1,1098.3436839669012,1099.8454706039047,,,,,,,,,,,,,,,,,,,,,,,,,,,,,,,,,,,,,,,,,,,,,,,,,,,,,,,,,,,,,,,,,,,,,,,45451,2022-12-01_11h17.39.129,vts_reward_expectancy_bt_OFFLINE,2022.2.4,60.204554261240915,
1,0,0,0,0,0,1,0,triangle,hexagon,1,0,1,0,2,3,27,1,,,,,,,,,,,,,,,,,,,,,,,,,,,,,,,,,,,,,,,,1100.3458957999246,1100.3458957999246,1100.3458957999246,1100.3458957999246,1100.3458957999246,1100.3458957999246,1100.3458957999246,1100.3458957999246,1100.3458957999246,1100.3458957999246,a,1.9599869820522144,1,463,1,1102.331629102002,1103.8332394988975,,,,,,,,,,,,,,,,,,,,,,,,,,,,,,,,,,,,,,,,,,,,,,,,,,,,,,,,,,,,,,,,,,,,,,,45451,2022-12-01_11h17.39.129,vts_reward_expectancy_bt_OFFLINE,2022.2.4,60.204554261240915,
0,0,0,1,0,1,0,0,star ,circle,1,0,1,0,2,4,28,10,,,,,,,,,,,,,,,,,,,,,,,,,,,,,,,,,,,,,,,,1104.3339606419904,1104.3339606419904,1104.3339606419904,1104.3339606419904,1104.3339606419904,1104.3339606419904,1104.3339606419904,1104.3339606419904,1104.3339606419904,1104.3339606419904,a,1.033335144049488,1,464,1,1105.3849697689293,1106.886590598966,1106.886590598966,,,,,,,,,,,,,,,,,,,,,,,,,,,,,,,,,,,,,,,,,,,,,,,,,,,,,,,,,,,,,,,,,,,,,,45451,2022-12-01_11h17.39.129,vts_reward_expectancy_bt_OFFLINE,2022.2.4,60.204554261240915,
0,0,0,1,1,0,0,0,star,triangle,1,0,1,0,2,5,29,9,,,,,,,,,,,,,,,,,,,,,,,,,,,,,,,,,,,,,,,,1107.3870336859254,1107.3870336859254,1107.3870336859254,1107.3870336859254,1107.3870336859254,1107.3870336859254,1107.3870336859254,1107.3870336859254,1107.3870336859254,1107.3870336859254,l,0.8365591360488907,10,474,1,1108.254569733981,1109.7562233069912,,,,,,,,,,,,,,,,,,,,,,,,,,,,,,,,,,,,,,,,,,,,,,,,,,,,,,,,,,,,,,,,,,,,,,,45451,2022-12-01_11h17.39.129,vts_reward_expectancy_bt_OFFLINE,2022.2.4,60.204554261240915,
0,1,0,0,0,0,1,0,circle,hexagon,1,0,1,0,2,6,30,4,,,,,,,,,,,,,,,,,,,,,,,,,,,,,,,,,,,,,,,,1110.2567452499643,1110.2567452499643,1110.2567452499643,1110.2567452499643,1110.2567452499643,1110.2567452499643,1110.2567452499643,1110.2567452499643,1110.2567452499643,1110.2567452499643,a,0.398264303104952,10,484,1,1110.6741051959107,1112.17587859591,,,,,,,,,,,,,,,,,,,,,,,,,,,,,,,,,,,,,,,,,,,,,,,,,,,,,,,,,,,,,,,,,,,,,,,45451,2022-12-01_11h17.39.129,vts_reward_expectancy_bt_OFFLINE,2022.2.4,60.204554261240915,
0,0,1,0,0,1,0,0,hexagon,circle,1,0,1,0,2,7,31,7,,,,,,,,,,,,,,,,,,,,,,,,,,,,,,,,,,,,,,,,1112.6763294659322,1112.6763294659322,1112.6763294659322,1112.6763294659322,1112.6763294659322,1112.6763294659322,1112.6763294659322,1112.6763294659322,1112.6763294659322,1112.6763294659322,a,1.1518673240207136,1,485,1,1113.8607939989306,1115.3624465159373,,,,,,,,,,,,,,,,,,,,,,,,,,,,,,,,,,,,,,,,,,,,,,,,,,,,,,,,,,,,,,,,,,,,,,,45451,2022-12-01_11h17.39.129,vts_reward_expectancy_bt_OFFLINE,2022.2.4,60.204554261240915,
0,1,0,0,0,0,0,1,circle,star,1,0,1,0,2,8,32,5,,,,,,,,,,,,,,,,,,,,,,,,,,,,,,,,,,,,,,,,1115.8631573069142,1115.8631573069142,1115.8631573069142,1115.8631573069142,1115.8631573069142,1115.8631573069142,1115.8631573069142,1115.8631573069142,1115.8631573069142,1115.8631573069142,a,1.2257672670530155,10,495,1,1117.1144746659556,1118.6161276639905,1118.6161276639905,,,,,,,,,,,,,,,,,,,,,,,,,,,,,,,,,,,,,,,,,,,,,,,,,,,,,,,,,,,,,,,,,,,,,,45451,2022-12-01_11h17.39.129,vts_reward_expectancy_bt_OFFLINE,2022.2.4,60.204554261240915,
1,0,0,0,0,1,0,0,triangle,circle,1,0,1,0,2,9,33,0,,,,,,,,,,,,,,,,,,,,,,,,,,,,,,,,,,,,,,,,1119.1166077759117,1119.1166077759117,1119.1166077759117,1119.1166077759117,1119.1166077759117,1119.1166077759117,1119.1166077759117,1119.1166077759117,1119.1166077759117,1119.1166077759117,l,0.5375679610297084,10,505,1,1119.6839855549624,1121.18554678699,,,,,,,,,,,,,,,,,,,,,,,,,,,,,,,,,,,,,,,,,,,,,,,,,,,,,,,,,,,,,,,,,,,,,,,45451,2022-12-01_11h17.39.129,vts_reward_expectancy_bt_OFFLINE,2022.2.4,60.204554261240915,
0,1,0,0,1,0,0,0,circle,triangle,1,0,1,0,2,10,34,3,,,,,,,,,,,,,,,,,,,,,,,,,,,,,,,,,,,,,,,,1121.6861012259033,1121.6861012259033,1121.6861012259033,1121.6861012259033,1121.6861012259033,1121.6861012259033,1121.6861012259033,1121.6861012259033,1121.6861012259033,1121.6861012259033,a,0.8032723650103435,10,515,1,1122.520520870923,1124.0221637289505,,,,,,,,,,,,,,,,,,,,,,,,,,,,,,,,,,,,,,,,,,,,,,,,,,,,,,,,,,,,,,,,,,,,,,,45451,2022-12-01_11h17.39.129,vts_reward_expectancy_bt_OFFLINE,2022.2.4,60.204554261240915,
0,0,1,0,1,0,0,0,hexagon,triangle,1,0,1,0,2,11,35,6,,,,,,,,,,,,,,,,,,,,,,,,,,,,,,,,,,,,,,,,1124.5228314319393,1124.5228314319393,1124.5228314319393,1124.5228314319393,1124.5228314319393,1124.5228314319393,1124.5228314319393,1124.5228314319393,1124.5228314319393,1124.5228314319393,l,0.3856697690207511,1,516,1,1124.9398651439697,1126.4413344399072,,,,,,,,,,,,,,,,,,,,,,,,,,,,,,,,,,,,,,,,,,,,,,,,,,,,,,,,,,,,,,,,,,,,,,,45451,2022-12-01_11h17.39.129,vts_reward_expectancy_bt_OFFLINE,2022.2.4,60.204554261240915,
0,0,1,0,0,0,0,1,hexagon,star,1,0,1,0,3,0,36,8,,,,,,,,,,,,,,,,,,,,,,,,,,,,,,,,,,,,,,,,1126.9418652139138,1126.9418652139138,1126.9418652139138,1126.9418652139138,1126.9418652139138,1126.9418652139138,1126.9418652139138,1126.9418652139138,1126.9418652139138,1126.9418652139138,a,0.6685746309813112,1,517,1,1127.6426518289372,1129.1441931099398,,,,,,,,,,,,,,,,,,,,,,,,,,,,,,,,,,,,,,,,,,,,,,,,,,,,,,,,,,,,,,,,,,,,,,,45451,2022-12-01_11h17.39.129,vts_reward_expectancy_bt_OFFLINE,2022.2.4,60.204554261240915,
0,0,0,1,1,0,0,0,star,triangle,1,0,1,0,3,1,37,9,,,,,,,,,,,,,,,,,,,,,,,,,,,,,,,,,,,,,,,,1129.6447099039797,1129.6447099039797,1129.6447099039797,1129.6447099039797,1129.6447099039797,1129.6447099039797,1129.6447099039797,1129.6447099039797,1129.6447099039797,1129.6447099039797,l,0.9115729790646583,10,527,1,1130.579119671951,1132.0809037639992,,,,,,,,,,,,,,,,,,,,,,,,,,,,,,,,,,,,,,,,,,,,,,,,,,,,,,,,,,,,,,,,,,,,,,,45451,2022-12-01_11h17.39.129,vts_reward_expectancy_bt_OFFLINE,2022.2.4,60.204554261240915,
0,1,0,0,0,0,1,0,circle,hexagon,1,0,1,0,3,2,38,4,,,,,,,,,,,,,,,,,,,,,,,,,,,,,,,,,,,,,,,,1132.5815076559084,1132.5815076559084,1132.5815076559084,1132.5815076559084,1132.5815076559084,1132.5815076559084,1132.5815076559084,1132.5815076559084,1132.5815076559084,1132.5815076559084,a,0.7327243770705536,10,537,1,1133.3323465469293,1134.8340249540051,,,,,,,,,,,,,,,,,,,,,,,,,,,,,,,,,,,,,,,,,,,,,,,,,,,,,,,,,,,,,,,,,,,,,,,45451,2022-12-01_11h17.39.129,vts_reward_expectancy_bt_OFFLINE,2022.2.4,60.204554261240915,
0,1,0,0,1,0,0,0,circle,triangle,1,0,1,0,3,3,39,3,,,,,,,,,,,,,,,,,,,,,,,,,,,,,,,,,,,,,,,,1135.3347633769736,1135.3347633769736,1135.3347633769736,1135.3347633769736,1135.3347633769736,1135.3347633769736,1135.3347633769736,1135.3347633769736,1135.3347633769736,1135.3347633769736,l,2.2200656110653654,10,547,1,1137.587218606961,1139.088698118925,,,,,,,,,,,,,,,,,,,,,,,,,,,,,,,,,,,,,,,,,,,,,,,,,,,,,,,,,,,,,,,,,,,,,,,45451,2022-12-01_11h17.39.129,vts_reward_expectancy_bt_OFFLINE,2022.2.4,60.204554261240915,
0,0,0,1,0,0,1,0,star,hexagon,1,0,1,0,3,4,40,11,,,,,,,,,,,,,,,,,,,,,,,,,,,,,,,,,,,,,,,,1139.5892028519884,1139.5892028519884,1139.5892028519884,1139.5892028519884,1139.5892028519884,1139.5892028519884,1139.5892028519884,1139.5892028519884,1139.5892028519884,1139.5892028519884,l,0.8792868590680882,1,548,1,1140.4902162639191,1141.9915249159094,,,,,,,,,,,,,,,,,,,,,,,,,,,,,,,,,,,,,,,,,,,,,,,,,,,,,,,,,,,,,,,,,,,,,,,45451,2022-12-01_11h17.39.129,vts_reward_expectancy_bt_OFFLINE,2022.2.4,60.204554261240915,
1,0,0,0,0,1,0,0,triangle,circle,1,0,1,0,3,5,41,0,,,,,,,,,,,,,,,,,,,,,,,,,,,,,,,,,,,,,,,,1142.492538473918,1142.492538473918,1142.492538473918,1142.492538473918,1142.492538473918,1142.492538473918,1142.492538473918,1142.492538473918,1142.492538473918,1142.492538473918,a,0.598307061009109,10,558,1,1143.1098731309175,1144.611572633963,,,,,,,,,,,,,,,,,,,,,,,,,,,,,,,,,,,,,,,,,,,,,,,,,,,,,,,,,,,,,,,,,,,,,,,45451,2022-12-01_11h17.39.129,vts_reward_expectancy_bt_OFFLINE,2022.2.4,60.204554261240915,
0,1,0,0,0,0,0,1,circle,star,1,0,1,0,3,6,42,5,,,,,,,,,,,,,,,,,,,,,,,,,,,,,,,,,,,,,,,,1145.1120148010086,1145.1120148010086,1145.1120148010086,1145.1120148010086,1145.1120148010086,1145.1120148010086,1145.1120148010086,1145.1120148010086,1145.1120148010086,1145.1120148010086,a,0.7790502309799194,10,568,1,1145.9130249639275,1147.4147048819577,,,,,,,,,,,,,,,,,,,,,,,,,,,,,,,,,,,,,,,,,,,,,,,,,,,,,,,,,,,,,,,,,,,,,,,45451,2022-12-01_11h17.39.129,vts_reward_expectancy_bt_OFFLINE,2022.2.4,60.204554261240915,
0,0,1,0,0,1,0,0,hexagon,circle,1,0,1,0,3,7,43,7,,,,,,,,,,,,,,,,,,,,,,,,,,,,,,,,,,,,,,,,1147.9150658769067,1147.9150658769067,1147.9150658769067,1147.9150658769067,1147.9150658769067,1147.9150658769067,1147.9150658769067,1147.9150658769067,1147.9150658769067,1147.9150658769067,l,0.46336208807770163,10,578,1,1148.398966067005,1149.9007604349172,,,,,,,,,,,,,,,,,,,,,,,,,,,,,,,,,,,,,,,,,,,,,,,,,,,,,,,,,,,,,,,,,,,,,,,45451,2022-12-01_11h17.39.129,vts_reward_expectancy_bt_OFFLINE,2022.2.4,60.204554261240915,
0,0,0,1,0,1,0,0,star ,circle,1,0,1,0,3,8,44,10,,,,,,,,,,,,,,,,,,,,,,,,,,,,,,,,,,,,,,,,1150.401255480945,1150.401255480945,1150.401255480945,1150.401255480945,1150.401255480945,1150.401255480945,1150.401255480945,1150.401255480945,1150.401255480945,1150.401255480945,a,0.49694838910363615,10,588,1,1150.9186157799559,1152.4200913599925,,,,,,,,,,,,,,,,,,,,,,,,,,,,,,,,,,,,,,,,,,,,,,,,,,,,,,,,,,,,,,,,,,,,,,,45451,2022-12-01_11h17.39.129,vts_reward_expectancy_bt_OFFLINE,2022.2.4,60.204554261240915,
0,0,1,0,1,0,0,0,hexagon,triangle,1,0,1,0,3,9,45,6,,,,,,,,,,,,,,,,,,,,,,,,,,,,,,,,,,,,,,,,1152.9205607419135,1152.9205607419135,1152.9205607419135,1152.9205607419135,1152.9205607419135,1152.9205607419135,1152.9205607419135,1152.9205607419135,1152.9205607419135,1152.9205607419135,l,0.5873526030918583,10,598,1,1153.5379821798997,1155.039687288925,,,,,,,,,,,,,,,,,,,,,,,,,,,,,,,,,,,,,,,,,,,,,,,,,,,,,,,,,,,,,,,,,,,,,,,45451,2022-12-01_11h17.39.129,vts_reward_expectancy_bt_OFFLINE,2022.2.4,60.204554261240915,
1,0,0,0,0,0,0,1,triangle,star,1,0,1,0,3,10,46,2,,,,,,,,,,,,,,,,,,,,,,,,,,,,,,,,,,,,,,,,1155.5402712089708,1155.5402712089708,1155.5402712089708,1155.5402712089708,1155.5402712089708,1155.5402712089708,1155.5402712089708,1155.5402712089708,1155.5402712089708,1155.5402712089708,a,0.6917023559799418,1,599,1,1156.2578065969283,1157.7593020299682,,,,,,,,,,,,,,,,,,,,,,,,,,,,,,,,,,,,,,,,,,,,,,,,,,,,,,,,,,,,,,,,,,,,,,,45451,2022-12-01_11h17.39.129,vts_reward_expectancy_bt_OFFLINE,2022.2.4,60.204554261240915,
1,0,0,0,0,0,1,0,triangle,hexagon,1,0,1,0,3,11,47,1,,,,,,,,,,,,,,,,,,,,,,,,,,,,,,,,,,,,,,,,1158.2597703819629,1158.2597703819629,1158.2597703819629,1158.2597703819629,1158.2597703819629,1158.2597703819629,1158.2597703819629,1158.2597703819629,1158.2597703819629,1158.2597703819629,l,0.48033707111608237,1,600,1,1158.7604487799108,1160.26201687695,,,,,,,,,,,,,,,,,,,,,,,,,,,,,,,,,,,,,,,,,,,,,,,,,,,,,,,,,,,,,,,,,,,,,,,45451,2022-12-01_11h17.39.129,vts_reward_expectancy_bt_OFFLINE,2022.2.4,60.204554261240915,
0,0,0,1,0,1,0,0,star ,circle,2,0,2,0,0,0,0,10,,,,,,,,,,,,,,,,,,,,,,,,,,,,,,,,,,,,,,,,1170.5067645369563,1170.5067645369563,1170.5067645369563,1170.5067645369563,1170.5067645369563,1170.5067645369563,1170.5067645369563,1170.5067645369563,1170.5067645369563,1170.5067645369563,a,1.7453503500437364,1,601,2,1172.2754653349984,1173.7770025959471,,,,,,,,,,,,,,,,,,,,,,,,,,,,,,,,,,,,,,,,,,,,,,,,,,,,,,,,,,,,,,,,,,,,,,,45451,2022-12-01_11h17.39.129,vts_reward_expectancy_bt_OFFLINE,2022.2.4,60.204554261240915,
0,0,0,1,1,0,0,0,star,triangle,2,0,2,0,0,1,1,9,,,,,,,,,,,,,,,,,,,,,,,,,,,,,,,,,,,,,,,,1174.2776365149766,1174.2776365149766,1174.2776365149766,1174.2776365149766,1174.2776365149766,1174.2776365149766,1174.2776365149766,1174.2776365149766,1174.2776365149766,1174.2776365149766,l,0.6991697440389544,1,602,2,1174.9948381449794,1176.4965973399812,,,,,,,,,,,,,,,,,,,,,,,,,,,,,,,,,,,,,,,,,,,,,,,,,,,,,,,,,,,,,,,,,,,,,,,45451,2022-12-01_11h17.39.129,vts_reward_expectancy_bt_OFFLINE,2022.2.4,60.204554261240915,
0,0,1,0,1,0,0,0,hexagon,triangle,2,0,2,0,0,2,2,6,,,,,,,,,,,,,,,,,,,,,,,,,,,,,,,,,,,,,,,,1176.997239136952,1176.997239136952,1176.997239136952,1176.997239136952,1176.997239136952,1176.997239136952,1176.997239136952,1176.997239136952,1176.997239136952,1176.997239136952,a,0.8583429150748998,1,603,2,1177.8813911749749,1179.3831286609638,,,,,,,,,,,,,,,,,,,,,,,,,,,,,,,,,,,,,,,,,,,,,,,,,,,,,,,,,,,,,,,,,,,,,,,45451,2022-12-01_11h17.39.129,vts_reward_expectancy_bt_OFFLINE,2022.2.4,60.204554261240915,
0,0,0,1,0,0,1,0,star,hexagon,2,0,2,0,0,3,3,11,,,,,,,,,,,,,,,,,,,,,,,,,,,,,,,,,,,,,,,,1179.8838488209294,1179.8838488209294,1179.8838488209294,1179.8838488209294,1179.8838488209294,1179.8838488209294,1179.8838488209294,1179.8838488209294,1179.8838488209294,1179.8838488209294,a,1.6851963970111683,10,613,2,1181.585839025909,1183.0871648419416,1183.0871648419416,,,,,,,,,,,,,,,,,,,,,,,,,,,,,,,,,,,,,,,,,,,,,,,,,,,,,,,,,,,,,,,,,,,,,,45451,2022-12-01_11h17.39.129,vts_reward_expectancy_bt_OFFLINE,2022.2.4,60.204554261240915,
0,1,0,0,0,0,0,1,circle,star,2,0,2,0,0,4,4,5,,,,,,,,,,,,,,,,,,,,,,,,,,,,,,,,,,,,,,,,1183.5877443139907,1183.5877443139907,1183.5877443139907,1183.5877443139907,1183.5877443139907,1183.5877443139907,1183.5877443139907,1183.5877443139907,1183.5877443139907,1183.5877443139907,l,1.3006120830541477,1,614,2,1184.9055800219066,1186.4075497619342,1186.4075497619342,,,,,,,,,,,,,,,,,,,,,,,,,,,,,,,,,,,,,,,,,,,,,,,,,,,,,,,,,,,,,,,,,,,,,,45451,2022-12-01_11h17.39.129,vts_reward_expectancy_bt_OFFLINE,2022.2.4,60.204554261240915,
0,1,0,0,0,0,1,0,circle,hexagon,2,0,2,0,0,5,5,4,,,,,,,,,,,,,,,,,,,,,,,,,,,,,,,,,,,,,,,,1186.9082209889311,1186.9082209889311,1186.9082209889311,1186.9082209889311,1186.9082209889311,1186.9082209889311,1186.9082209889311,1186.9082209889311,1186.9082209889311,1186.9082209889311,l,1.0729838940314949,10,624,2,1188.0091680939076,1189.5112652200041,,,,,,,,,,,,,,,,,,,,,,,,,,,,,,,,,,,,,,,,,,,,,,,,,,,,,,,,,,,,,,,,,,,,,,,45451,2022-12-01_11h17.39.129,vts_reward_expectancy_bt_OFFLINE,2022.2.4,60.204554261240915,
0,0,1,0,0,0,0,1,hexagon,star,2,0,2,0,0,6,6,8,,,,,,,,,,,,,,,,,,,,,,,,,,,,,,,,,,,,,,,,1190.0114809639053,1190.0114809639053,1190.0114809639053,1190.0114809639053,1190.0114809639053,1190.0114809639053,1190.0114809639053,1190.0114809639053,1190.0114809639053,1190.0114809639053,a,1.1421018809778616,1,625,2,1191.1792509409133,1192.6813360189553,,,,,,,,,,,,,,,,,,,,,,,,,,,,,,,,,,,,,,,,,,,,,,,,,,,,,,,,,,,,,,,,,,,,,,,45451,2022-12-01_11h17.39.129,vts_reward_expectancy_bt_OFFLINE,2022.2.4,60.204554261240915,
0,0,1,0,0,1,0,0,hexagon,circle,2,0,2,0,0,7,7,7,,,,,,,,,,,,,,,,,,,,,,,,,,,,,,,,,,,,,,,,1193.1816870209295,1193.1816870209295,1193.1816870209295,1193.1816870209295,1193.1816870209295,1193.1816870209295,1193.1816870209295,1193.1816870209295,1193.1816870209295,1193.1816870209295,l,0.9313337369821966,10,635,2,1194.1329607589869,1195.6346136539942,,,,,,,,,,,,,,,,,,,,,,,,,,,,,,,,,,,,,,,,,,,,,,,,,,,,,,,,,,,,,,,,,,,,,,,45451,2022-12-01_11h17.39.129,vts_reward_expectancy_bt_OFFLINE,2022.2.4,60.204554261240915,
1,0,0,0,0,0,0,1,triangle,star,2,0,2,0,0,8,8,2,,,,,,,,,,,,,,,,,,,,,,,,,,,,,,,,,,,,,,,,1196.134962873999,1196.134962873999,1196.134962873999,1196.134962873999,1196.134962873999,1196.134962873999,1196.134962873999,1196.134962873999,1196.134962873999,1196.134962873999,a,0.7913334530312568,10,645,2,1196.9524559839629,1198.4541939859046,,,,,,,,,,,,,,,,,,,,,,,,,,,,,,,,,,,,,,,,,,,,,,,,,,,,,,,,,,,,,,,,,,,,,,,45451,2022-12-01_11h17.39.129,vts_reward_expectancy_bt_OFFLINE,2022.2.4,60.204554261240915,
1,0,0,0,0,1,0,0,triangle,circle,2,0,2,0,0,9,9,0,,,,,,,,,,,,,,,,,,,,,,,,,,,,,,,,,,,,,,,,1198.9549896109384,1198.9549896109384,1198.9549896109384,1198.9549896109384,1198.9549896109384,1198.9549896109384,1198.9549896109384,1198.9549896109384,1198.9549896109384,1198.9549896109384,l,1.368780891993083,10,655,2,1200.3563970809337,1201.8579464799259,,,,,,,,,,,,,,,,,,,,,,,,,,,,,,,,,,,,,,,,,,,,,,,,,,,,,,,,,,,,,,,,,,,,,,,45451,2022-12-01_11h17.39.129,vts_reward_expectancy_bt_OFFLINE,2022.2.4,60.204554261240915,
1,0,0,0,0,0,1,0,triangle,hexagon,2,0,2,0,0,10,10,1,,,,,,,,,,,,,,,,,,,,,,,,,,,,,,,,,,,,,,,,1202.3584686719114,1202.3584686719114,1202.3584686719114,1202.3584686719114,1202.3584686719114,1202.3584686719114,1202.3584686719114,1202.3584686719114,1202.3584686719114,1202.3584686719114,a,1.4084851780207828,10,665,2,1203.7934089659248,1205.2950039769057,,,,,,,,,,,,,,,,,,,,,,,,,,,,,,,,,,,,,,,,,,,,,,,,,,,,,,,,,,,,,,,,,,,,,,,45451,2022-12-01_11h17.39.129,vts_reward_expectancy_bt_OFFLINE,2022.2.4,60.204554261240915,
0,1,0,0,1,0,0,0,circle,triangle,2,0,2,0,0,11,11,3,,,,,,,,,,,,,,,,,,,,,,,,,,,,,,,,,,,,,,,,1205.7955280799652,1205.7955280799652,1205.7955280799652,1205.7955280799652,1205.7955280799652,1205.7955280799652,1205.7955280799652,1205.7955280799652,1205.7955280799652,1205.7955280799652,l,1.143261217046529,10,675,2,1206.9635100469459,1208.4654946170049,,,,,,,,,,,,,,,,,,,,,,,,,,,,,,,,,,,,,,,,,,,,,,,,,,,,,,,,,,,,,,,,,,,,,,,45451,2022-12-01_11h17.39.129,vts_reward_expectancy_bt_OFFLINE,2022.2.4,60.204554261240915,
1,0,0,0,0,0,1,0,triangle,hexagon,2,0,2,0,1,0,12,1,,,,,,,,,,,,,,,,,,,,,,,,,,,,,,,,,,,,,,,,1208.9658075709594,1208.9658075709594,1208.9658075709594,1208.9658075709594,1208.9658075709594,1208.9658075709594,1208.9658075709594,1208.9658075709594,1208.9658075709594,1208.9658075709594,a,1.786485190037638,1,676,2,1210.7844871089328,1212.2862640309613,,,,,,,,,,,,,,,,,,,,,,,,,,,,,,,,,,,,,,,,,,,,,,,,,,,,,,,,,,,,,,,,,,,,,,,45451,2022-12-01_11h17.39.129,vts_reward_expectancy_bt_OFFLINE,2022.2.4,60.204554261240915,
0,0,0,1,0,0,1,0,star,hexagon,2,0,2,0,1,1,13,11,,,,,,,,,,,,,,,,,,,,,,,,,,,,,,,,,,,,,,,,1212.7867240759078,1212.7867240759078,1212.7867240759078,1212.7867240759078,1212.7867240759078,1212.7867240759078,1212.7867240759078,1212.7867240759078,1212.7867240759078,1212.7867240759078,l,1.6902351611061022,10,686,2,1214.505172594916,1216.0069585539168,,,,,,,,,,,,,,,,,,,,,,,,,,,,,,,,,,,,,,,,,,,,,,,,,,,,,,,,,,,,,,,,,,,,,,,45451,2022-12-01_11h17.39.129,vts_reward_expectancy_bt_OFFLINE,2022.2.4,60.204554261240915,
1,0,0,0,0,0,0,1,triangle,star,2,0,2,0,1,2,14,2,,,,,,,,,,,,,,,,,,,,,,,,,,,,,,,,,,,,,,,,1216.5076203739736,1216.5076203739736,1216.5076203739736,1216.5076203739736,1216.5076203739736,1216.5076203739736,1216.5076203739736,1216.5076203739736,1216.5076203739736,1216.5076203739736,a,1.4238222411368042,10,696,2,1217.9591339539038,1219.4607631409308,,,,,,,,,,,,,,,,,,,,,,,,,,,,,,,,,,,,,,,,,,,,,,,,,,,,,,,,,,,,,,,,,,,,,,,45451,2022-12-01_11h17.39.129,vts_reward_expectancy_bt_OFFLINE,2022.2.4,60.204554261240915,
0,0,0,1,0,1,0,0,star ,circle,2,0,2,0,1,3,15,10,,,,,,,,,,,,,,,,,,,,,,,,,,,,,,,,,,,,,,,,1219.9612389239483,1219.9612389239483,1219.9612389239483,1219.9612389239483,1219.9612389239483,1219.9612389239483,1219.9612389239483,1219.9612389239483,1219.9612389239483,1219.9612389239483,l,1.233228826080449,1,697,2,1221.2125017639482,1222.7142228540033,,,,,,,,,,,,,,,,,,,,,,,,,,,,,,,,,,,,,,,,,,,,,,,,,,,,,,,,,,,,,,,,,,,,,,,45451,2022-12-01_11h17.39.129,vts_reward_expectancy_bt_OFFLINE,2022.2.4,60.204554261240915,
0,0,1,0,1,0,0,0,hexagon,triangle,2,0,2,0,1,4,16,6,,,,,,,,,,,,,,,,,,,,,,,,,,,,,,,,,,,,,,,,1223.214744286961,1223.214744286961,1223.214744286961,1223.214744286961,1223.214744286961,1223.214744286961,1223.214744286961,1223.214744286961,1223.214744286961,1223.214744286961,a,2.4558868191670626,1,698,2,1225.7010756449308,1227.2026007259265,,,,,,,,,,,,,,,,,,,,,,,,,,,,,,,,,,,,,,,,,,,,,,,,,,,,,,,,,,,,,,,,,,,,,,,45451,2022-12-01_11h17.39.129,vts_reward_expectancy_bt_OFFLINE,2022.2.4,60.204554261240915,
0,0,1,0,0,1,0,0,hexagon,circle,2,0,2,0,1,5,17,7,,,,,,,,,,,,,,,,,,,,,,,,,,,,,,,,,,,,,,,,1227.7031571709085,1227.7031571709085,1227.7031571709085,1227.7031571709085,1227.7031571709085,1227.7031571709085,1227.7031571709085,1227.7031571709085,1227.7031571709085,1227.7031571709085,l,1.3539878380252048,10,708,2,1229.088075884967,1230.5898337209364,,,,,,,,,,,,,,,,,,,,,,,,,,,,,,,,,,,,,,,,,,,,,,,,,,,,,,,,,,,,,,,,,,,,,,,45451,2022-12-01_11h17.39.129,vts_reward_expectancy_bt_OFFLINE,2022.2.4,60.204554261240915,
0,0,1,0,0,0,0,1,hexagon,star,2,0,2,0,1,6,18,8,,,,,,,,,,,,,,,,,,,,,,,,,,,,,,,,,,,,,,,,1231.090211693896,1231.090211693896,1231.090211693896,1231.090211693896,1231.090211693896,1231.090211693896,1231.090211693896,1231.090211693896,1231.090211693896,1231.090211693896,a,2.354691865039058,1,709,2,1233.4763481710106,1234.9780297059333,,,,,,,,,,,,,,,,,,,,,,,,,,,,,,,,,,,,,,,,,,,,,,,,,,,,,,,,,,,,,,,,,,,,,,,45451,2022-12-01_11h17.39.129,vts_reward_expectancy_bt_OFFLINE,2022.2.4,60.204554261240915,
0,1,0,0,0,0,1,0,circle,hexagon,2,0,2,0,1,7,19,4,,,,,,,,,,,,,,,,,,,,,,,,,,,,,,,,,,,,,,,,1235.4785766539862,1235.4785766539862,1235.4785766539862,1235.4785766539862,1235.4785766539862,1235.4785766539862,1235.4785766539862,1235.4785766539862,1235.4785766539862,1235.4785766539862,a,0.9838437519501895,10,719,2,1236.479531785939,1237.981386996922,1237.981386996922,,,,,,,,,,,,,,,,,,,,,,,,,,,,,,,,,,,,,,,,,,,,,,,,,,,,,,,,,,,,,,,,,,,,,,45451,2022-12-01_11h17.39.129,vts_reward_expectancy_bt_OFFLINE,2022.2.4,60.204554261240915,
0,1,0,0,1,0,0,0,circle,triangle,2,0,2,0,1,8,20,3,,,,,,,,,,,,,,,,,,,,,,,,,,,,,,,,,,,,,,,,1238.4816704340046,1238.4816704340046,1238.4816704340046,1238.4816704340046,1238.4816704340046,1238.4816704340046,1238.4816704340046,1238.4816704340046,1238.4816704340046,1238.4816704340046,l,0.71237499313429,1,720,2,1239.2156663939822,1240.7176377240103,,,,,,,,,,,,,,,,,,,,,,,,,,,,,,,,,,,,,,,,,,,,,,,,,,,,,,,,,,,,,,,,,,,,,,,45451,2022-12-01_11h17.39.129,vts_reward_expectancy_bt_OFFLINE,2022.2.4,60.204554261240915,
1,0,0,0,0,1,0,0,triangle,circle,2,0,2,0,1,9,21,0,,,,,,,,,,,,,,,,,,,,,,,,,,,,,,,,,,,,,,,,1241.2181352659827,1241.2181352659827,1241.2181352659827,1241.2181352659827,1241.2181352659827,1241.2181352659827,1241.2181352659827,1241.2181352659827,1241.2181352659827,1241.2181352659827,a,0.541784631088376,10,730,2,1241.7850786339259,1243.2869767219527,,,,,,,,,,,,,,,,,,,,,,,,,,,,,,,,,,,,,,,,,,,,,,,,,,,,,,,,,,,,,,,,,,,,,,,45451,2022-12-01_11h17.39.129,vts_reward_expectancy_bt_OFFLINE,2022.2.4,60.204554261240915,
0,1,0,0,0,0,0,1,circle,star,2,0,2,0,1,10,22,5,,,,,,,,,,,,,,,,,,,,,,,,,,,,,,,,,,,,,,,,1243.7874937419547,1243.7874937419547,1243.7874937419547,1243.7874937419547,1243.7874937419547,1243.7874937419547,1243.7874937419547,1243.7874937419547,1243.7874937419547,1243.7874937419547,a,0.8087369460845366,10,740,2,1244.6220345709007,1246.1235684659332,1246.1235684659332,1246.6239689849317,,,,,,,,,,,,,,,,,,,,,,,,,,,,,,,,,,,,,,,,,,,,,,,,,,,,,,,,,,,,,,,,,,,,,45451,2022-12-01_11h17.39.129,vts_reward_expectancy_bt_OFFLINE,2022.2.4,60.204554261240915,
0,0,0,1,1,0,0,0,star,triangle,2,0,2,0,1,11,23,9,,,,,,,,,,,,,,,,,,,,,,,,,,,,,,,,,,,,,,,,1246.6239689849317,1246.6239689849317,1246.6239689849317,1246.6239689849317,1246.6239689849317,1246.6239689849317,1246.6239689849317,1246.6239689849317,1246.6239689849317,1246.6239689849317,l,0.5135777100222185,1,741,2,1247.1578058389714,1248.6594089209102,,,,,,,,,,,,,,,,,,,,,,,,,,,,,,,,,,,,,,,,,,,,,,,,,,,,,,,,,,,,,,,,,,,,,,,45451,2022-12-01_11h17.39.129,vts_reward_expectancy_bt_OFFLINE,2022.2.4,60.204554261240915,
0,0,1,0,0,0,0,1,hexagon,star,2,0,2,0,2,0,24,8,,,,,,,,,,,,,,,,,,,,,,,,,,,,,,,,,,,,,,,,1249.1602633909788,1249.1602633909788,1249.1602633909788,1249.1602633909788,1249.1602633909788,1249.1602633909788,1249.1602633909788,1249.1602633909788,1249.1602633909788,1249.1602633909788,a,0.3176449660677463,10,751,2,1249.5104278259678,1251.0120632509934,,,,,,,,,,,,,,,,,,,,,,,,,,,,,,,,,,,,,,,,,,,,,,,,,,,,,,,,,,,,,,,,,,,,,,,45451,2022-12-01_11h17.39.129,vts_reward_expectancy_bt_OFFLINE,2022.2.4,60.204554261240915,
1,0,0,0,0,0,1,0,triangle,hexagon,2,0,2,0,2,1,25,1,,,,,,,,,,,,,,,,,,,,,,,,,,,,,,,,,,,,,,,,1251.5126166989794,1251.5126166989794,1251.5126166989794,1251.5126166989794,1251.5126166989794,1251.5126166989794,1251.5126166989794,1251.5126166989794,1251.5126166989794,1251.5126166989794,l,0.6428359630517662,1,752,2,1252.1801527709467,1253.681755403988,,,,,,,,,,,,,,,,,,,,,,,,,,,,,,,,,,,,,,,,,,,,,,,,,,,,,,,,,,,,,,,,,,,,,,,45451,2022-12-01_11h17.39.129,vts_reward_expectancy_bt_OFFLINE,2022.2.4,60.204554261240915,
0,0,1,0,1,0,0,0,hexagon,triangle,2,0,2,0,2,2,26,6,,,,,,,,,,,,,,,,,,,,,,,,,,,,,,,,,,,,,,,,1254.1823422689922,1254.1823422689922,1254.1823422689922,1254.1823422689922,1254.1823422689922,1254.1823422689922,1254.1823422689922,1254.1823422689922,1254.1823422689922,1254.1823422689922,a,0.5274202320724726,1,753,2,1254.7328909989446,1256.2344978039619,,,,,,,,,,,,,,,,,,,,,,,,,,,,,,,,,,,,,,,,,,,,,,,,,,,,,,,,,,,,,,,,,,,,,,,45451,2022-12-01_11h17.39.129,vts_reward_expectancy_bt_OFFLINE,2022.2.4,60.204554261240915,
0,0,1,0,0,1,0,0,hexagon,circle,2,0,2,0,2,3,27,7,,,,,,,,,,,,,,,,,,,,,,,,,,,,,,,,,,,,,,,,1256.7350839439314,1256.7350839439314,1256.7350839439314,1256.7350839439314,1256.7350839439314,1256.7350839439314,1256.7350839439314,1256.7350839439314,1256.7350839439314,1256.7350839439314,a,1.1250840639695525,1,754,2,1257.8863263889216,1259.3882444018964,,,,,,,,,,,,,,,,,,,,,,,,,,,,,,,,,,,,,,,,,,,,,,,,,,,,,,,,,,,,,,,,,,,,,,,45451,2022-12-01_11h17.39.129,vts_reward_expectancy_bt_OFFLINE,2022.2.4,60.204554261240915,
0,1,0,0,0,0,0,1,circle,star,2,0,2,0,2,4,28,5,,,,,,,,,,,,,,,,,,,,,,,,,,,,,,,,,,,,,,,,1259.8885467019863,1259.8885467019863,1259.8885467019863,1259.8885467019863,1259.8885467019863,1259.8885467019863,1259.8885467019863,1259.8885467019863,1259.8885467019863,1259.8885467019863,a,1.6186289170291275,1,755,2,1261.5236820959253,1263.0253756049788,1263.0253756049788,,,,,,,,,,,,,,,,,,,,,,,,,,,,,,,,,,,,,,,,,,,,,,,,,,,,,,,,,,,,,,,,,,,,,,45451,2022-12-01_11h17.39.129,vts_reward_expectancy_bt_OFFLINE,2022.2.4,60.204554261240915,
0,0,0,1,1,0,0,0,star,triangle,2,0,2,0,2,5,29,9,,,,,,,,,,,,,,,,,,,,,,,,,,,,,,,,,,,,,,,,1263.5260553109692,1263.5260553109692,1263.5260553109692,1263.5260553109692,1263.5260553109692,1263.5260553109692,1263.5260553109692,1263.5260553109692,1263.5260553109692,1263.5260553109692,l,1.1186432290123776,10,765,2,1264.6772271349328,1266.1789260549704,,,,,,,,,,,,,,,,,,,,,,,,,,,,,,,,,,,,,,,,,,,,,,,,,,,,,,,,,,,,,,,,,,,,,,,45451,2022-12-01_11h17.39.129,vts_reward_expectancy_bt_OFFLINE,2022.2.4,60.204554261240915,
0,0,0,1,0,1,0,0,star ,circle,2,0,2,0,2,6,30,10,,,,,,,,,,,,,,,,,,,,,,,,,,,,,,,,,,,,,,,,1266.679406681913,1266.679406681913,1266.679406681913,1266.679406681913,1266.679406681913,1266.679406681913,1266.679406681913,1266.679406681913,1266.679406681913,1266.679406681913,a,1.6207790210610256,10,775,2,1268.3312381069409,1269.8329114438966,,,,,,,,,,,,,,,,,,,,,,,,,,,,,,,,,,,,,,,,,,,,,,,,,,,,,,,,,,,,,,,,,,,,,,,45451,2022-12-01_11h17.39.129,vts_reward_expectancy_bt_OFFLINE,2022.2.4,60.204554261240915,
0,0,0,1,0,0,1,0,star,hexagon,2,0,2,0,2,7,31,11,,,,,,,,,,,,,,,,,,,,,,,,,,,,,,,,,,,,,,,,1270.3333884238964,1270.3333884238964,1270.3333884238964,1270.3333884238964,1270.3333884238964,1270.3333884238964,1270.3333884238964,1270.3333884238964,1270.3333884238964,1270.3333884238964,l,1.0606260230997577,1,776,2,1271.4179841709556,1272.9196298139868,,,,,,,,,,,,,,,,,,,,,,,,,,,,,,,,,,,,,,,,,,,,,,,,,,,,,,,,,,,,,,,,,,,,,,,45451,2022-12-01_11h17.39.129,vts_reward_expectancy_bt_OFFLINE,2022.2.4,60.204554261240915,
1,0,0,0,0,1,0,0,triangle,circle,2,0,2,0,2,8,32,0,,,,,,,,,,,,,,,,,,,,,,,,,,,,,,,,,,,,,,,,1273.4203973289113,1273.4203973289113,1273.4203973289113,1273.4203973289113,1273.4203973289113,1273.4203973289113,1273.4203973289113,1273.4203973289113,1273.4203973289113,1273.4203973289113,a,0.8677193890325725,10,786,2,1274.3047233849065,1275.8061815899564,1275.8061815899564,,,,,,,,,,,,,,,,,,,,,,,,,,,,,,,,,,,,,,,,,,,,,,,,,,,,,,,,,,,,,,,,,,,,,,45451,2022-12-01_11h17.39.129,vts_reward_expectancy_bt_OFFLINE,2022.2.4,60.204554261240915,
0,1,0,0,1,0,0,0,circle,triangle,2,0,2,0,2,9,33,3,,,,,,,,,,,,,,,,,,,,,,,,,,,,,,,,,,,,,,,,1276.306666805991,1276.306666805991,1276.306666805991,1276.306666805991,1276.306666805991,1276.306666805991,1276.306666805991,1276.306666805991,1276.306666805991,1276.306666805991,a,0.8365898469928652,10,796,2,1277.1745736149605,1278.6760024669347,,,,,,,,,,,,,,,,,,,,,,,,,,,,,,,,,,,,,,,,,,,,,,,,,,,,,,,,,,,,,,,,,,,,,,,45451,2022-12-01_11h17.39.129,vts_reward_expectancy_bt_OFFLINE,2022.2.4,60.204554261240915,
0,1,0,0,0,0,1,0,circle,hexagon,2,0,2,0,2,10,34,4,,,,,,,,,,,,,,,,,,,,,,,,,,,,,,,,,,,,,,,,1279.1765619999496,1279.1765619999496,1279.1765619999496,1279.1765619999496,1279.1765619999496,1279.1765619999496,1279.1765619999496,1279.1765619999496,1279.1765619999496,1279.1765619999496,l,1.0181709510507062,1,797,2,1280.2113225309877,1281.7127286900068,1281.7127286900068,,,,,,,,,,,,,,,,,,,,,,,,,,,,,,,,,,,,,,,,,,,,,,,,,,,,,,,,,,,,,,,,,,,,,,45451,2022-12-01_11h17.39.129,vts_reward_expectancy_bt_OFFLINE,2022.2.4,60.204554261240915,
1,0,0,0,0,0,0,1,triangle,star,2,0,2,0,2,11,35,2,,,,,,,,,,,,,,,,,,,,,,,,,,,,,,,,,,,,,,,,1282.2133996699704,1282.2133996699704,1282.2133996699704,1282.2133996699704,1282.2133996699704,1282.2133996699704,1282.2133996699704,1282.2133996699704,1282.2133996699704,1282.2133996699704,a,0.3420614569913596,10,807,2,1282.5805618339218,1284.0819707009941,,,,,,,,,,,,,,,,,,,,,,,,,,,,,,,,,,,,,,,,,,,,,,,,,,,,,,,,,,,,,,,,,,,,,,,45451,2022-12-01_11h17.39.129,vts_reward_expectancy_bt_OFFLINE,2022.2.4,60.204554261240915,
0,0,0,1,1,0,0,0,star,triangle,2,0,2,0,3,0,36,9,,,,,,,,,,,,,,,,,,,,,,,,,,,,,,,,,,,,,,,,1284.5826215519337,1284.5826215519337,1284.5826215519337,1284.5826215519337,1284.5826215519337,1284.5826215519337,1284.5826215519337,1284.5826215519337,1284.5826215519337,1284.5826215519337,l,0.674021483049728,1,808,2,1285.2831038219156,1286.7850179849193,,,,,,,,,,,,,,,,,,,,,,,,,,,,,,,,,,,,,,,,,,,,,,,,,,,,,,,,,,,,,,,,,,,,,,,45451,2022-12-01_11h17.39.129,vts_reward_expectancy_bt_OFFLINE,2022.2.4,60.204554261240915,
0,0,0,1,0,0,1,0,star,hexagon,2,0,2,0,3,1,37,11,,,,,,,,,,,,,,,,,,,,,,,,,,,,,,,,,,,,,,,,1287.2854994119843,1287.2854994119843,1287.2854994119843,1287.2854994119843,1287.2854994119843,1287.2854994119843,1287.2854994119843,1287.2854994119843,1287.2854994119843,1287.2854994119843,l,0.7710299401078373,1,809,2,1288.0863527009496,1289.5880672809435,,,,,,,,,,,,,,,,,,,,,,,,,,,,,,,,,,,,,,,,,,,,,,,,,,,,,,,,,,,,,,,,,,,,,,,45451,2022-12-01_11h17.39.129,vts_reward_expectancy_bt_OFFLINE,2022.2.4,60.204554261240915,
0,0,1,0,0,1,0,0,hexagon,circle,2,0,2,0,3,2,38,7,,,,,,,,,,,,,,,,,,,,,,,,,,,,,,,,,,,,,,,,1290.0888098789146,1290.0888098789146,1290.0888098789146,1290.0888098789146,1290.0888098789146,1290.0888098789146,1290.0888098789146,1290.0888098789146,1290.0888098789146,1290.0888098789146,a,0.43416528403759,1,810,2,1290.5556967789307,1292.0575642709155,,,,,,,,,,,,,,,,,,,,,,,,,,,,,,,,,,,,,,,,,,,,,,,,,,,,,,,,,,,,,,,,,,,,,,,45451,2022-12-01_11h17.39.129,vts_reward_expectancy_bt_OFFLINE,2022.2.4,60.204554261240915,
1,0,0,0,0,1,0,0,triangle,circle,2,0,2,0,3,3,39,0,,,,,,,,,,,,,,,,,,,,,,,,,,,,,,,,,,,,,,,,1292.5581513539655,1292.5581513539655,1292.5581513539655,1292.5581513539655,1292.5581513539655,1292.5581513539655,1292.5581513539655,1292.5581513539655,1292.5581513539655,1292.5581513539655,l,0.11183024710044265,10,820,2,1292.6917076898972,1294.193161329953,,,,,,,,,,,,,,,,,,,,,,,,,,,,,,,,,,,,,,,,,,,,,,,,,,,,,,,,,,,,,,,,,,,,,,,45451,2022-12-01_11h17.39.129,vts_reward_expectancy_bt_OFFLINE,2022.2.4,60.204554261240915,
1,0,0,0,0,0,0,1,triangle,star,2,0,2,0,3,4,40,2,,,,,,,,,,,,,,,,,,,,,,,,,,,,,,,,,,,,,,,,1294.693973608897,1294.693973608897,1294.693973608897,1294.693973608897,1294.693973608897,1294.693973608897,1294.693973608897,1294.693973608897,1294.693973608897,1294.693973608897,a,1.1367606500862166,10,830,2,1295.8618883159943,1297.363286193926,,,,,,,,,,,,,,,,,,,,,,,,,,,,,,,,,,,,,,,,,,,,,,,,,,,,,,,,,,,,,,,,,,,,,,,45451,2022-12-01_11h17.39.129,vts_reward_expectancy_bt_OFFLINE,2022.2.4,60.204554261240915,
1,0,0,0,0,0,1,0,triangle,hexagon,2,0,2,0,3,5,41,1,,,,,,,,,,,,,,,,,,,,,,,,,,,,,,,,,,,,,,,,1297.8638694069814,1297.8638694069814,1297.8638694069814,1297.8638694069814,1297.8638694069814,1297.8638694069814,1297.8638694069814,1297.8638694069814,1297.8638694069814,1297.8638694069814,a,2.8720922679640353,1,831,2,1300.7672179269139,1302.2690049009398,,,,,,,,,,,,,,,,,,,,,,,,,,,,,,,,,,,,,,,,,,,,,,,,,,,,,,,,,,,,,,,,,,,,,,,45451,2022-12-01_11h17.39.129,vts_reward_expectancy_bt_OFFLINE,2022.2.4,60.204554261240915,
0,0,1,0,1,0,0,0,hexagon,triangle,2,0,2,0,3,6,42,6,,,,,,,,,,,,,,,,,,,,,,,,,,,,,,,,,,,,,,,,1302.7692911819322,1302.7692911819322,1302.7692911819322,1302.7692911819322,1302.7692911819322,1302.7692911819322,1302.7692911819322,1302.7692911819322,1302.7692911819322,1302.7692911819322,l,1.2418646711157635,10,841,2,1304.0376075009117,1305.5390242859721,,,,,,,,,,,,,,,,,,,,,,,,,,,,,,,,,,,,,,,,,,,,,,,,,,,,,,,,,,,,,,,,,,,,,,,45451,2022-12-01_11h17.39.129,vts_reward_expectancy_bt_OFFLINE,2022.2.4,60.204554261240915,
0,1,0,0,0,0,0,1,circle,star,2,0,2,0,3,7,43,5,,,,,,,,,,,,,,,,,,,,,,,,,,,,,,,,,,,,,,,,1306.0397931009065,1306.0397931009065,1306.0397931009065,1306.0397931009065,1306.0397931009065,1306.0397931009065,1306.0397931009065,1306.0397931009065,1306.0397931009065,1306.0397931009065,a,0.6598393861204386,10,851,2,1306.7237052649725,1308.2253381699556,,,,,,,,,,,,,,,,,,,,,,,,,,,,,,,,,,,,,,,,,,,,,,,,,,,,,,,,,,,,,,,,,,,,,,,45451,2022-12-01_11h17.39.129,vts_reward_expectancy_bt_OFFLINE,2022.2.4,60.204554261240915,
0,1,0,0,1,0,0,0,circle,triangle,2,0,2,0,3,8,44,3,,,,,,,,,,,,,,,,,,,,,,,,,,,,,,,,,,,,,,,,1308.726063616923,1308.726063616923,1308.726063616923,1308.726063616923,1308.726063616923,1308.726063616923,1308.726063616923,1308.726063616923,1308.726063616923,1308.726063616923,l,0.33588338911067694,10,861,2,1309.0929921040079,1310.5946156069404,,,,,,,,,,,,,,,,,,,,,,,,,,,,,,,,,,,,,,,,,,,,,,,,,,,,,,,,,,,,,,,,,,,,,,,45451,2022-12-01_11h17.39.129,vts_reward_expectancy_bt_OFFLINE,2022.2.4,60.204554261240915,
0,0,1,0,0,0,0,1,hexagon,star,2,0,2,0,3,9,45,8,,,,,,,,,,,,,,,,,,,,,,,,,,,,,,,,,,,,,,,,1311.0952651669504,1311.0952651669504,1311.0952651669504,1311.0952651669504,1311.0952651669504,1311.0952651669504,1311.0952651669504,1311.0952651669504,1311.0952651669504,1311.0952651669504,l,1.8142739720642567,1,862,2,1312.9304676699685,1314.4321742840111,,,,,,,,,,,,,,,,,,,,,,,,,,,,,,,,,,,,,,,,,,,,,,,,,,,,,,,,,,,,,,,,,,,,,,,45451,2022-12-01_11h17.39.129,vts_reward_expectancy_bt_OFFLINE,2022.2.4,60.204554261240915,
0,1,0,0,0,0,1,0,circle,hexagon,2,0,2,0,3,10,46,4,,,,,,,,,,,,,,,,,,,,,,,,,,,,,,,,,,,,,,,,1314.932645508903,1314.932645508903,1314.932645508903,1314.932645508903,1314.932645508903,1314.932645508903,1314.932645508903,1314.932645508903,1314.932645508903,1314.932645508903,a,0.6893266510451213,10,872,2,1315.650401923922,1317.1518332469277,,,,,,,,,,,,,,,,,,,,,,,,,,,,,,,,,,,,,,,,,,,,,,,,,,,,,,,,,,,,,,,,,,,,,,,45451,2022-12-01_11h17.39.129,vts_reward_expectancy_bt_OFFLINE,2022.2.4,60.204554261240915,
0,0,0,1,0,1,0,0,star ,circle,2,0,2,0,3,11,47,10,,,,,,,,,,,,,,,,,,,,,,,,,,,,,,,,,,,,,,,,1317.6523667610018,1317.6523667610018,1317.6523667610018,1317.6523667610018,1317.6523667610018,1317.6523667610018,1317.6523667610018,1317.6523667610018,1317.6523667610018,1317.6523667610018,a,2.0197976250201464,10,882,2,1319.7047362159938,1321.2062301560072,,,,,,,,,,,,,,,,,,,,,,,,,,,,,,,,,,,,,,,,,,,,,,,,,,,,,,,,,,,,,,,,,,,,,,,45451,2022-12-01_11h17.39.129,vts_reward_expectancy_bt_OFFLINE,2022.2.4,60.204554261240915,
,,,,,,,,,,,,,,,,,,0,0,0,0,0,0,0,0,,,,,,,,,,,,,,,,,,,,,,,,,,,,,,,,,,,,,,,,,,,,,,,,1369.0926385089988,,,167,B,circle,0.002164454897865653,1363.2707049140008,1364.7710222359747,1364.7710222359747,1364.7710222359747,0,0,d,2.7955932159675285,0,1367.607564279926,,,,,,,,,,,,,,,,,,,,,,,,,,,,,,,,,,,,,,,,,,,,,,,,,,,,,,,45451,2022-12-01_11h17.39.129,vts_reward_expectancy_bt_OFFLINE,2022.2.4,60.204554261240915,
,,,,,,,,,,,,,,,,,,0,0,0,0,1,0,1,0,,,,,,,,,,,,,,,,,,,,,,,,,,,,,,,,,,,,,,,,,,,,,,,,1374.1646719069686,,,181,Y,hexagon,0.0011030429741367698,1370.0769499909366,1371.5784810920013,1371.5784810920013,1371.5784810920013,1,1,f,1.0521831361111253,0,1372.6629577999702,,,,,,,,,,,,,,,,,,,,,,,,,,,,,,,,,,,,,,,,,,,,,,,,,,,,,,,45451,2022-12-01_11h17.39.129,vts_reward_expectancy_bt_OFFLINE,2022.2.4,60.204554261240915,
,,,,,,,,,,,,,,,,,,0,0,0,0,2,0,2,0,,,,,,,,,,,,,,,,,,,,,,,,,,,,,,,,,,,,,,,,,,,,,,,,1379.2370445299894,,,132,F,star,0.001325353980064392,1375.1492737209192,1376.650743164937,1376.650743164937,1376.650743164937,1,0,d,1.0641498641343787,0,1377.7353001089068,,,,,,,,,,,,,,,,,,,,,,,,,,,,,,,,,,,,,,,,,,,,,,,,,,,,,,,45451,2022-12-01_11h17.39.129,vts_reward_expectancy_bt_OFFLINE,2022.2.4,60.204554261240915,
,,,,,,,,,,,,,,,,,,0,0,0,0,3,0,3,0,,,,,,,,,,,,,,,,,,,,,,,,,,,,,,,,,,,,,,,,,,,,,,,,1383.9922051959438,,,174,S,triangle,0.001369526027701795,1380.2381390439114,1381.7232449959265,1381.7232449959265,1381.7232449959265,1,0,f,0.7398855490610003,0,1382.4905591038987,,,,,,,,,,,,,,,,,,,,,,,,,,,,,,,,,,,,,,,,,,,,,,,,,,,,,,,45451,2022-12-01_11h17.39.129,vts_reward_expectancy_bt_OFFLINE,2022.2.4,60.204554261240915,
,,,,,,,,,,,,,,,,,,0,0,0,0,4,0,4,0,,,,,,,,,,,,,,,,,,,,,,,,,,,,,,,,,,,,,,,,,,,,,,,,1388.597434673924,,,160,H,hexagon,0.001273216912522912,1384.9768740519648,1386.478346759919,1386.478346759919,1386.478346759919,1,0,f,0.5862320481101051,0,1387.095699100988,,,,,,,,,,,,,,,,,,,,,,,,,,,,,,,,,,,,,,,,,,,,,,,,,,,,,,,45451,2022-12-01_11h17.39.129,vts_reward_expectancy_bt_OFFLINE,2022.2.4,60.204554261240915,
,,,,,,,,,,,,,,,,,,0,0,0,0,5,0,5,0,,,,,,,,,,,,,,,,,,,,,,,,,,,,,,,,,,,,,,,,,,,,,,,,1393.7029054749291,,,139,U,triangle,0.0013314749812707305,1389.5821263570106,1391.0834946869873,1391.0834946869873,1391.0834946869873,1,0,d,1.0890667180065066,0,1392.2011988419108,,,,,,,,,,,,,,,,,,,,,,,,,,,,,,,,,,,,,,,,,,,,,,,,,,,,,,,45451,2022-12-01_11h17.39.129,vts_reward_expectancy_bt_OFFLINE,2022.2.4,60.204554261240915,
,,,,,,,,,,,,,,,,,,0,0,0,0,6,0,6,0,,,,,,,,,,,,,,,,,,,,,,,,,,,,,,,,,,,,,,,,,,,,,,,,1398.5582484969636,,,146,W,star,0.0013558819191530347,1394.6872788119363,1396.189149529906,1396.189149529906,1396.189149529906,1,0,d,0.8438642040127888,0,1397.0566117760027,,,,,,,,,,,,,,,,,,,,,,,,,,,,,,,,,,,,,,,,,,,,,,,,,,,,,,,45451,2022-12-01_11h17.39.129,vts_reward_expectancy_bt_OFFLINE,2022.2.4,60.204554261240915,
,,,,,,,,,,,,,,,,,,0,0,0,0,7,0,7,0,,,,,,,,,,,,,,,,,,,,,,,,,,,,,,,,,,,,,,,,,,,,,,,,1403.2134383809753,,,125,D,circle,0.0014449399895966053,1399.5426749589387,1401.0528242709115,1401.0528242709115,1401.0528242709115,1,0,d,0.6372332400642335,0,1401.7118218299001,,,,,,,,,,,,,,,,,,,,,,,,,,,,,,,,,,,,,,,,,,,,,,,,,,,,,,,45451,2022-12-01_11h17.39.129,vts_reward_expectancy_bt_OFFLINE,2022.2.4,60.204554261240915,
,,,,,,,,,,,,,,,,,,0,0,0,0,8,0,8,0,,,,,,,,,,,,,,,,,,,,,,,,,,,,,,,,,,,,,,,,,,,,,,,,1407.935304929968,,,167,B,star,0.0014926859876140952,1404.1979867749615,1405.6995851489482,1405.6995851489482,1405.6995851489482,1,0,f,0.7056555191520602,0,1406.4337298839819,,,,,,,,,,,,,,,,,,,,,,,,,,,,,,,,,,,,,,,,,,,,,,,,,,,,,,,45451,2022-12-01_11h17.39.129,vts_reward_expectancy_bt_OFFLINE,2022.2.4,60.204554261240915,
,,,,,,,,,,,,,,,,,,0,0,0,0,9,0,9,0,,,,,,,,,,,,,,,,,,,,,,,,,,,,,,,,,,,,,,,,,,,,,,,,1412.6071230609668,,,181,Y,hexagon,0.0012905149487778544,1408.9197019159328,1410.4216689469758,1410.4216689469758,1410.4216689469758,1,0,f,0.6624167010886595,0,1411.1054879339645,,,,,,,,,,,,,,,,,,,,,,,,,,,,,,,,,,,,,,,,,,,,,,,,,,,,,,,45451,2022-12-01_11h17.39.129,vts_reward_expectancy_bt_OFFLINE,2022.2.4,60.204554261240915,
,,,,,,,,,,,,,,,,,,,,,,,,,,0,0,0,0,0,0,0,0,,,,,,,,,,,,,,,,,,,,,,,,,,,,,,,,,,,,,,,,1444.0751591169974,,,181,H,star,0.0019599220249801874,,,,,1,0,,,1,1442.5734646869823,1440.020855370909,1441.522431112011,1441.522431112011,1441.522431112011,j,1.030738260014914,,,,,,,,,,,,,,,,,,,,,,,,,,,,,,,,,,,,,,,,,,,,,,,,,45451,2022-12-01_11h17.39.129,vts_reward_expectancy_bt_OFFLINE,2022.2.4,60.204554261240915,
,,,,,,,,,,,,,,,,,,,,,,,,,,0,0,0,0,1,0,1,0,,,,,,,,,,,,,,,,,,,,,,,,,,,,,,,,,,,,,,,,1449.1642749599414,,,167,S,hexagon,0.001211472088471055,,,,,1,0,,,1,1447.6625876720063,1445.0596076939255,1446.5613949109102,1446.5613949109102,1446.5613949109102,k,1.0775819510454312,1449.1642749599414,,,,,,,,,,,,,,,,,,,,,,,,,,,,,,,,,,,,,,,,,,,,,,,,45451,2022-12-01_11h17.39.129,vts_reward_expectancy_bt_OFFLINE,2022.2.4,60.204554261240915,
,,,,,,,,,,,,,,,,,,,,,,,,,,0,0,0,0,2,0,2,0,,,,,,,,,,,,,,,,,,,,,,,,,,,,,,,,,,,,,,,,1454.0863637949806,,,139,Y,circle,0.001109926961362362,,,,,1,0,,,1,1452.5845981049351,1450.1486790439812,1451.6502207589801,1451.6502207589801,1451.6502207589801,k,0.9051558891078457,,,,,,,,,,,,,,,,,,,,,,,,,,,,,,,,,,,,,,,,,,,,,,,,,45451,2022-12-01_11h17.39.129,vts_reward_expectancy_bt_OFFLINE,2022.2.4,60.204554261240915,
,,,,,,,,,,,,,,,,,,,,,,,,,,0,0,0,0,3,0,3,0,,,,,,,,,,,,,,,,,,,,,,,,,,,,,,,,,,,,,,,,1458.8248545619426,,,174,D,triangle,0.001409062067978084,,,,,1,0,,,1,1457.3232221639482,1455.0706205419265,1456.572371999966,1456.572371999966,1456.572371999966,j,0.7190403850981966,,,,,,,,,,,,,,,,,,,,,,,,,,,,,,,,,,,,,,,,,,,,,,,,,45451,2022-12-01_11h17.39.129,vts_reward_expectancy_bt_OFFLINE,2022.2.4,60.204554261240915,
,,,,,,,,,,,,,,,,,,,,,,,,,,0,0,0,0,4,0,4,0,,,,,,,,,,,,,,,,,,,,,,,,,,,,,,,,,,,,,,,,1463.6301383539103,,,125,F,star,0.0012085550697520375,,,,,1,0,,,1,1462.128448309959,1459.8092931059655,1461.3108363469364,1461.3108363469364,1461.3108363469364,j,0.7853118920465931,,,,,,,,,,,,,,,,,,,,,,,,,,,,,,,,,,,,,,,,,,,,,,,,,45451,2022-12-01_11h17.39.129,vts_reward_expectancy_bt_OFFLINE,2022.2.4,60.204554261240915,
,,,,,,,,,,,,,,,,,,,,,,,,,,0,0,0,0,5,0,5,0,,,,,,,,,,,,,,,,,,,,,,,,,,,,,,,,,,,,,,,,1468.3187197908992,,,132,B,hexagon,0.0013809750089421868,,,,,1,0,,,1,1466.8168958259048,1464.6145888488973,1466.1161148039391,1466.1161148039391,1466.1161148039391,j,0.6717174960067496,,,,,,,,,,,,,,,,,,,,,,,,,,,,,,,,,,,,,,,,,,,,,,,,,45451,2022-12-01_11h17.39.129,vts_reward_expectancy_bt_OFFLINE,2022.2.4,60.204554261240915,
,,,,,,,,,,,,,,,,,,,,,,,,,,0,0,0,0,6,0,6,0,,,,,,,,,,,,,,,,,,,,,,,,,,,,,,,,,,,,,,,,1472.9905285739806,,,160,U,circle,0.0012596610467880964,,,,,1,0,,,1,1471.4887231349712,1469.3031736339908,1470.8048199559562,1470.8048199559562,1470.8048199559562,k,0.6517060011392459,,,,,,,,,,,,,,,,,,,,,,,,,,,,,,,,,,,,,,,,,,,,,,,,,45451,2022-12-01_11h17.39.129,vts_reward_expectancy_bt_OFFLINE,2022.2.4,60.204554261240915,
,,,,,,,,,,,,,,,,,,,,,,,,,,0,0,0,0,7,0,7,0,,,,,,,,,,,,,,,,,,,,,,,,,,,,,,,,,,,,,,,,1477.6455110670067,,,146,W,triangle,0.001186419976875186,,,,,1,0,,,1,1476.1439025260042,1473.974983921973,1475.4766617449932,1475.4766617449932,1475.4766617449932,k,0.6508204520214349,1477.6455110670067,,,,,,,,,,,,,,,,,,,,,,,,,,,,,,,,,,,,,,,,,,,,,,,,45451,2022-12-01_11h17.39.129,vts_reward_expectancy_bt_OFFLINE,2022.2.4,60.204554261240915,
,,,,,,,,,,,,,,,,,,,,,,,,,,0,0,0,0,8,0,8,0,,,,,,,,,,,,,,,,,,,,,,,,,,,,,,,,,,,,,,,,1483.118274790002,,,181,H,hexagon,0.0008167049381881952,,,,,1,0,,,1,1481.6166731789708,1478.6298949589254,1480.1315902359784,1480.1315902359784,1480.1315902359784,j,1.4626023961463943,,,,,,,,,,,,,,,,,,,,,,,,,,,,,,,,,,,,,,,,,,,,,,,,,45451,2022-12-01_11h17.39.129,vts_reward_expectancy_bt_OFFLINE,2022.2.4,60.204554261240915,
,,,,,,,,,,,,,,,,,,,,,,,,,,0,0,0,0,9,0,9,0,,,,,,,,,,,,,,,,,,,,,,,,,,,,,,,,,,,,,,,,1487.6900301189162,,,167,S,circle,0.0012298549991101027,,,,,1,0,,,1,1486.1883950969204,1484.1026687039994,1485.6044559539296,1485.6044559539296,1485.6044559539296,k,0.557852543075569,,,,,,,,,,,,,,,,,,,,,,,,,,,,,,,,,,,,,,,,,,,,,,,,,45451,2022-12-01_11h17.39.129,vts_reward_expectancy_bt_OFFLINE,2022.2.4,60.204554261240915,
,,,,,,,,,,,,,,,,,,,,,,,,,,,,,,,,,,0,0,0,0,0,0,0,0,,,,,,,,,,,,,,,,,,,,,,,,,,,,0,882,,,1531.1045882339822,,,160,H,star,0.002159697003662586,,,,,1,0,,,2,,,,,,,,,1526.1824965199921,1526.1824965199921,1526.1824965199921,1526.1824965199921,1527.6672964419704,1527.6672964419704,1527.6672964419704,1527.6672964419704,1527.6840012519388,1527.6840012519388,1527.6840012519388,1527.6840012519388,-1,letter,NA,j,1.9112049400573596,vtsPrac,1529.619551386917,,,,,,,,,,,,,,,,,,,,,,,,,,,,,45451,2022-12-01_11h17.39.129,vts_reward_expectancy_bt_OFFLINE,2022.2.4,60.204554261240915,
,,,,,,,,,,,,,,,,,,,,,,,,,,,,,,,,,,0,0,0,0,1,0,1,0,,,,,,,,,,,,,,,,,,,,,,,,,,,,0,882,,,1536.4269217769615,,,167,F,hexagon,0.0011073020286858082,,,,,1,0,,,2,,,,,,,,,1532.0893926739227,1532.0893926739227,1532.0893926739227,1532.0893926739227,1533.5903347639833,1533.5903347639833,1533.5903347639833,1533.5903347639833,1533.5903347639833,1533.5903347639833,1533.5903347639833,1533.5903347639833,repeat,letter,lettRpt,j,1.3091897640842944,vtsPrac,1534.9252893939847,,,,,,,,,,,,,,,,,,,,,,,,,,,,,45451,2022-12-01_11h17.39.129,vts_reward_expectancy_bt_OFFLINE,2022.2.4,60.204554261240915,
,,,,,,,,,,,,,,,,,,,,,,,,,,,,,,,,,,0,0,0,0,2,0,2,0,,,,,,,,,,,,,,,,,,,,,,,,,,,,0,882,,,1541.0655568699585,,,125,D,star,0.0010636249789968133,,,,,1,0,,,2,,,,,,,,,1537.4120686039096,1537.4120686039096,1537.4120686039096,1537.4120686039096,1538.913155909977,1538.913155909977,1538.913155909977,1538.913155909977,1538.913155909977,1538.913155909977,1538.913155909977,1538.913155909977,switch,number,numSwt,d,0.6234102310845628,vtsPrac,1539.5637082769535,,,,,,,,,,,,,,,,,,,,,,,,,,,,,45451,2022-12-01_11h17.39.129,vts_reward_expectancy_bt_OFFLINE,2022.2.4,60.204554261240915,
,,,,,,,,,,,,,,,,,,,,,,,,,,,,,,,,,,0,0,0,0,3,0,3,0,,,,,,,,,,,,,,,,,,,,,,,,,,,,0,882,,,1546.404795014998,,,181,Y,circle,0.0011433949694037437,,,,,1,0,,,2,,,,,,,,,1542.0498677549185,1542.0498677549185,1542.0498677549185,1542.0498677549185,1543.5516728399089,1543.5516728399089,1543.5516728399089,1543.5516728399089,1543.5516728399089,1543.5516728399089,1543.5516728399089,1543.5516728399089,switch,letter,lettSwt,k,1.3272493610857055,vtsPrac,1544.9031063759467,1546.404795014998,,,,,,,,,,,,,,,,,,,,,,,,,,,,45451,2022-12-01_11h17.39.129,vts_reward_expectancy_bt_OFFLINE,2022.2.4,60.204554261240915,
,,,,,,,,,,,,,,,,,,,,,,,,,,,,,,,,,,0,0,0,0,4,0,4,0,,,,,,,,,,,,,,,,,,,,,,,,,,,,0,882,,,1551.5437389709987,,,160,H,hexagon,0.0010106220142915845,,,,,1,0,,,2,,,,,,,,,1547.3892838339088,1547.3892838339088,1547.3892838339088,1547.3892838339088,1548.890839708969,1548.890839708969,1548.890839708969,1548.890839708969,1548.890839708969,1548.890839708969,1548.890839708969,1548.890839708969,repeat,letter,lettRpt,j,1.1297185430303216,vtsPrac,1550.042112284922,,,,,,,,,,,,,,,,,,,,,,,,,,,,,45451,2022-12-01_11h17.39.129,vts_reward_expectancy_bt_OFFLINE,2022.2.4,60.204554261240915,
,,,,,,,,,,,,,,,,,,,,,,,,,,,,,,,,,,0,0,0,0,5,0,5,0,,,,,,,,,,,,,,,,,,,,,,,,,,,,0,882,,,1556.3824488539249,,,167,F,star,0.001031504012644291,,,,,1,0,,,2,,,,,,,,,1552.5282495769206,1552.5282495769206,1552.5282495769206,1552.5282495769206,1554.029667984927,1554.029667984927,1554.029667984927,1554.029667984927,1554.029667984927,1554.029667984927,1554.029667984927,1554.029667984927,switch,number,numSwt,f,0.818372474052012,vtsPrac,1554.8807467959123,,,,,,,,,,,,,,,,,,,,,,,,,,,,,45451,2022-12-01_11h17.39.129,vts_reward_expectancy_bt_OFFLINE,2022.2.4,60.204554261240915,
,,,,,,,,,,,,,,,,,,,,,,,,,,,,,,,,,,0,0,0,0,6,0,6,0,,,,,,,,,,,,,,,,,,,,,,,,,,,,0,882,,,1561.8551490139216,,,125,D,hexagon,0.0012997000012546778,,,,,1,0,,,2,,,,,,,,,1557.3669012119062,1557.3669012119062,1557.3669012119062,1557.3669012119062,1558.8683610239532,1558.8683610239532,1558.8683610239532,1558.8683610239532,1558.8683610239532,1558.8683610239532,1558.8683610239532,1558.8683610239532,repeat,number,numRpt,d,1.4584893780993298,vtsPrac,1560.353404790978,1561.8551490139216,,,,,,,,,,,,,,,,,,,,,,,,,,,,45451,2022-12-01_11h17.39.129,vts_reward_expectancy_bt_OFFLINE,2022.2.4,60.204554261240915,
,,,,,,,,,,,,,,,,,,,,,,,,,,,,,,,,,,0,0,0,0,7,0,7,0,,,,,,,,,,,,,,,,,,,,,,,,,,,,0,882,,,1566.7271401499165,,,181,Y,circle,0.0010957620106637478,,,,,1,0,,,2,,,,,,,,,1562.8395119719207,1562.8395119719207,1562.8395119719207,1562.8395119719207,1564.3412788599962,1564.3412788599962,1564.3412788599962,1564.3412788599962,1564.3412788599962,1564.3412788599962,1564.3412788599962,1564.3412788599962,repeat,number,numRpt,f,0.8573708570329472,vtsPrac,1565.2253525349079,,,,,,,,,,,,,,,,,,,,,,,,,,,,,45451,2022-12-01_11h17.39.129,vts_reward_expectancy_bt_OFFLINE,2022.2.4,60.204554261240915,
,,,,,,,,,,,,,,,,,,,,,,,,,,,,,,,,,,0,0,0,0,8,0,8,0,,,,,,,,,,,,,,,,,,,,,,,,,,,,0,882,,,1571.4658103019465,,,167,D,triangle,0.0011665299534797668,,,,,1,0,,,2,,,,,,,,,1567.711569754989,1567.711569754989,1567.711569754989,1567.711569754989,1569.2131667039357,1569.2131667039357,1569.2131667039357,1569.2131667039357,1569.2131667039357,1569.2131667039357,1569.2131667039357,1569.2131667039357,switch,letter,lettSwt,j,0.7228845061035827,vtsPrac,1569.9639338139677,1571.4658103019465,,,,,,,,,,,,,,,,,,,,,,,,,,,,45451,2022-12-01_11h17.39.129,vts_reward_expectancy_bt_OFFLINE,2022.2.4,60.204554261240915,
,,,,,,,,,,,,,,,,,,,,,,,,,,,,,,,,,,0,0,0,0,9,0,9,0,,,,,,,,,,,,,,,,,,,,,,,,,,,,0,882,,,1576.2708343999693,,,125,F,star,0.0009701290400698781,,,,,1,0,,,2,,,,,,,,,1572.450358622009,1572.450358622009,1572.450358622009,1572.450358622009,1573.95164599095,1573.95164599095,1573.95164599095,1573.95164599095,1573.95164599095,1573.95164599095,1573.95164599095,1573.95164599095,repeat,letter,lettRpt,j,0.7876272021094337,vtsPrac,1574.7693889039801,,,,,,,,,,,,,,,,,,,,,,,,,,,,,45451,2022-12-01_11h17.39.129,vts_reward_expectancy_bt_OFFLINE,2022.2.4,60.204554261240915,
,,,,,,,,,,,,,,,,,,,,,,,,,,,,,,,,,,0,0,0,0,10,0,10,0,,,,,,,,,,,,,,,,,,,,,,,,,,,,0,882,,,1581.0429813059745,,,160,Y,triangle,0.0012355680810287595,,,,,1,0,,,2,,,,,,,,,1577.255345941987,1577.255345941987,1577.255345941987,1577.255345941987,1578.7571214420022,1578.7571214420022,1578.7571214420022,1578.7571214420022,1578.7571214420022,1578.7571214420022,1578.7571214420022,1578.7571214420022,switch,number,numSwt,f,0.7522805230692029,vtsPrac,1579.5412398040062,,,,,,,,,,,,,,,,,,,,,,,,,,,,,45451,2022-12-01_11h17.39.129,vts_reward_expectancy_bt_OFFLINE,2022.2.4,60.204554261240915,
,,,,,,,,,,,,,,,,,,,,,,,,,,,,,,,,,,0,0,0,0,11,0,11,0,,,,,,,,,,,,,,,,,,,,,,,,,,,,0,882,,,1585.9485706909327,,,174,S,star,0.001051334897056222,,,,,1,0,,,2,,,,,,,,,1582.027321786969,1582.027321786969,1582.027321786969,1582.027321786969,1583.529086038936,1583.529086038936,1583.529086038936,1583.529086038936,1583.529086038936,1583.529086038936,1583.529086038936,1583.529086038936,switch,letter,lettSwt,k,0.8964408570900559,vtsPrac,1584.4467457759893,,,,,,,,,,,,,,,,,,,,,,,,,,,,,45451,2022-12-01_11h17.39.129,vts_reward_expectancy_bt_OFFLINE,2022.2.4,60.204554261240915,
,,,,,,,,,,,,,,,,,,,,,,,,,,,,,,,,,,0,0,0,0,12,0,12,0,,,,,,,,,,,,,,,,,,,,,,,,,,,,0,882,,,1591.2375549669378,,,160,S,star,0.0013659310061484575,,,,,1,0,,,2,,,,,,,,,1586.9329300560057,1586.9329300560057,1586.9329300560057,1586.9329300560057,1588.4345202939585,1588.4345202939585,1588.4345202939585,1588.4345202939585,1588.4345202939585,1588.4345202939585,1588.4345202939585,1588.4345202939585,switch,number,numSwt,f,1.268792976043187,vtsPrac,1589.7359491039533,,,,,,,,,,,,,,,,,,,,,,,,,,,,,45451,2022-12-01_11h17.39.129,vts_reward_expectancy_bt_OFFLINE,2022.2.4,60.204554261240915,
,,,,,,,,,,,,,,,,,,,,,,,,,,,,,,,,,,0,0,0,0,13,0,13,0,,,,,,,,,,,,,,,,,,,,,,,,,,,,0,882,,,1596.109546298976,,,139,F,triangle,0.0014117970131337643,,,,,1,0,,,2,,,,,,,,,1592.2221284710104,1592.2221284710104,1592.2221284710104,1592.2221284710104,1593.72376678593,1593.72376678593,1593.72376678593,1593.72376678593,1593.72376678593,1593.72376678593,1593.72376678593,1593.72376678593,switch,letter,lettSwt,j,0.8516238121083006,vtsPrac,1594.608059859951,,,,,,,,,,,,,,,,,,,,,,,,,,,,,45451,2022-12-01_11h17.39.129,vts_reward_expectancy_bt_OFFLINE,2022.2.4,60.204554261240915,
,,,,,,,,,,,,,,,,,,,,,,,,,,,,,,,,,,0,0,0,0,14,0,14,0,,,,,,,,,,,,,,,,,,,,,,,,,,,,0,882,,,1600.948527970002,,,125,H,star,0.0014772299909964204,,,,,1,0,,,2,,,,,,,,,1597.0941004259512,1597.0941004259512,1597.0941004259512,1597.0941004259512,1598.5957824049983,1598.5957824049983,1598.5957824049983,1598.5957824049983,1598.5957824049983,1598.5957824049983,1598.5957824049983,1598.5957824049983,repeat,letter,lettRpt,j,0.8279631070327014,vtsPrac,1599.446597824921,,,,,,,,,,,,,,,,,,,,,,,,,,,,,45451,2022-12-01_11h17.39.129,vts_reward_expectancy_bt_OFFLINE,2022.2.4,60.204554261240915,
,,,,,,,,,,,,,,,,,,,,,,,,,,,,,,,,,,0,0,0,0,15,0,15,0,,,,,,,,,,,,,,,,,,,,,,,,,,,,0,882,,,1606.0371650609886,,,146,Y,hexagon,0.0015290520386770368,,,,,1,0,,,2,,,,,,,,,1601.9328359819483,1601.9328359819483,1601.9328359819483,1601.9328359819483,1603.4343736099545,1603.4343736099545,1603.4343736099545,1603.4343736099545,1603.4343736099545,1603.4343736099545,1603.4343736099545,1603.4343736099545,switch,number,numSwt,d,1.0743823930388317,vtsPrac,1604.5357505759457,,,,,,,,,,,,,,,,,,,,,,,,,,,,,45451,2022-12-01_11h17.39.129,vts_reward_expectancy_bt_OFFLINE,2022.2.4,60.204554261240915,
,,,,,,,,,,,,,,,,,,,,,,,,,,,,,,,,,,0,0,0,0,16,0,16,0,,,,,,,,,,,,,,,,,,,,,,,,,,,,0,882,,,1610.6758076539263,,,139,Y,star,0.0013921860372647643,,,,,1,0,,,2,,,,,,,,,1607.021698234952,1607.021698234952,1607.021698234952,1607.021698234952,1608.5234492699383,1608.5234492699383,1608.5234492699383,1608.5234492699383,1608.5234492699383,1608.5234492699383,1608.5234492699383,1608.5234492699383,repeat,number,numRpt,d,0.6335688880644739,vtsPrac,1609.1738828419475,1610.6758076539263,,,,,,,,,,,,,,,,,,,,,,,,,,,,45451,2022-12-01_11h17.39.129,vts_reward_expectancy_bt_OFFLINE,2022.2.4,60.204554261240915,
,,,,,,,,,,,,,,,,,,,,,,,,,,,,,,,,,,0,0,0,0,17,0,17,0,,,,,,,,,,,,,,,,,,,,,,,,,,,,0,882,,,1615.4142214509193,,,132,W,circle,0.0008921970147639513,,,,,1,0,,,2,,,,,,,,,1611.6600620559184,1611.6600620559184,1611.6600620559184,1611.6600620559184,1613.1619477319764,1613.1619477319764,1613.1619477319764,1613.1619477319764,1613.1619477319764,1613.1619477319764,1613.1619477319764,1613.1619477319764,switch,letter,lettSwt,k,0.718537351116538,vtsPrac,1613.9126562559977,1615.4142214509193,,,,,,,,,,,,,,,,,,,,,,,,,,,,45451,2022-12-01_11h17.39.129,vts_reward_expectancy_bt_OFFLINE,2022.2.4,60.204554261240915,
,,,,,,,,,,,,,,,,,,,,,,,,,,,,,,,,,,0,0,0,0,18,0,18,0,,,,,,,,,,,,,,,,,,,,,,,,,,,,0,882,,,1620.6032372269547,,,174,D,hexagon,0.0011572219664230943,,,,,1,0,,,2,,,,,,,,,1616.3986024908954,1616.3986024908954,1616.3986024908954,1616.3986024908954,1617.9001776099904,1617.9001776099904,1617.9001776099904,1617.9001776099904,1617.9001776099904,1617.9001776099904,1617.9001776099904,1617.9001776099904,switch,number,numSwt,f,1.1687129561323673,vtsPrac,1619.1014592959546,,,,,,,,,,,,,,,,,,,,,,,,,,,,,45451,2022-12-01_11h17.39.129,vts_reward_expectancy_bt_OFFLINE,2022.2.4,60.204554261240915,
,,,,,,,,,,,,,,,,,,,,,,,,,,,,,,,,,,0,0,0,0,19,0,19,0,,,,,,,,,,,,,,,,,,,,,,,,,,,,0,882,,,1625.4419269349892,,,146,H,circle,0.0012158770114183426,,,,,1,0,,,2,,,,,,,,,1621.5877381569007,1621.5877381569007,1621.5877381569007,1621.5877381569007,1623.089344989974,1623.089344989974,1623.089344989974,1623.089344989974,1623.089344989974,1623.089344989974,1623.089344989974,1623.089344989974,switch,letter,lettSwt,j,0.8271832810714841,vtsPrac,1623.9403385909973,,,,,,,,,,,,,,,,,,,,,,,,,,,,,45451,2022-12-01_11h17.39.129,vts_reward_expectancy_bt_OFFLINE,2022.2.4,60.204554261240915,
,,,,,,,,,,,,,,,,,,,,,,,,,,,,,,,,,,0,0,0,0,20,0,20,0,,,,,,,,,,,,,,,,,,,,,,,,,,,,0,882,,,1630.213816165924,,,167,F,triangle,0.0012440209975466132,,,,,1,0,,,2,,,,,,,,,1626.4262701559346,1626.4262701559346,1626.4262701559346,1626.4262701559346,1627.9281089099823,1627.9281089099823,1627.9281089099823,1627.9281089099823,1627.9281089099823,1627.9281089099823,1627.9281089099823,1627.9281089099823,switch,number,numSwt,f,0.7586300340481102,vtsPrac,1628.712174858898,,,,,,,,,,,,,,,,,,,,,,,,,,,,,45451,2022-12-01_11h17.39.129,vts_reward_expectancy_bt_OFFLINE,2022.2.4,60.204554261240915,
,,,,,,,,,,,,,,,,,,,,,,,,,,,,,,,,,,0,0,0,0,21,0,21,0,,,,,,,,,,,,,,,,,,,,,,,,,,,,0,882,,,1634.785661384929,,,132,U,hexagon,0.0013208070304244757,,,,,1,0,,,2,,,,,,,,,1631.1982675839681,1631.1982675839681,1631.1982675839681,1631.1982675839681,1632.6998051699484,1632.6998051699484,1632.6998051699484,1632.6998051699484,1632.6998051699484,1632.6998051699484,1632.6998051699484,1632.6998051699484,switch,letter,lettSwt,k,0.5552641290705651,vtsPrac,1633.2840534149436,,,,,,,,,,,,,,,,,,,,,,,,,,,,,45451,2022-12-01_11h17.39.129,vts_reward_expectancy_bt_OFFLINE,2022.2.4,60.204554261240915,
,,,,,,,,,,,,,,,,,,,,,,,,,,,,,,,,,,0,0,0,0,22,0,22,0,,,,,,,,,,,,,,,,,,,,,,,,,,,,0,882,,,1639.8079420659924,,,125,S,triangle,0.0014705599751323462,,,,,1,0,,,2,,,,,,,,,1635.7700743000023,1635.7700743000023,1635.7700743000023,1635.7700743000023,1637.2717414149083,1637.2717414149083,1637.2717414149083,1637.2717414149083,1637.2717414149083,1637.2717414149083,1637.2717414149083,1637.2717414149083,switch,number,numSwt,d,1.0116118030855432,vtsPrac,1638.3062513089972,,,,,,,,,,,,,,,,,,,,,,,,,,,,,45451,2022-12-01_11h17.39.129,vts_reward_expectancy_bt_OFFLINE,2022.2.4,60.204554261240915,
,,,,,,,,,,,,,,,,,,,,,,,,,,,,,,,,,,0,0,0,0,23,0,23,0,,,,,,,,,,,,,,,,,,,,,,,,,,,,0,882,,,1644.6799186849967,,,174,W,star,0.0012763700215145946,,,,,1,0,,,2,,,,,,,,,1640.79212637397,1640.79212637397,1640.79212637397,1640.79212637397,1642.2939378819428,1642.2939378819428,1642.2939378819428,1642.2939378819428,1642.2939378819428,1642.2939378819428,1642.2939378819428,1642.2939378819428,switch,letter,lettSwt,k,0.8608714730944484,vtsPrac,1643.1781429549446,,,,,,,,,,,,,,,,,,,,,,,,,,,,,45451,2022-12-01_11h17.39.129,vts_reward_expectancy_bt_OFFLINE,2022.2.4,60.204554261240915,
,,,,,,,,,,,,,,,,,,,,,,,,,,,,,,,,,,0,0,0,0,24,0,24,0,,,,,,,,,,,,,,,,,,,,,,,,,,,,0,882,,,1649.568496400956,,,167,W,triangle,0.0011754520237445831,,,,,1,0,,,2,,,,,,,,,1645.6643406869844,1645.6643406869844,1645.6643406869844,1645.6643406869844,1647.165789208957,1647.165789208957,1647.165789208957,1647.165789208957,1647.165789208957,1647.165789208957,1647.165789208957,1647.165789208957,repeat,letter,lettRpt,k,0.8734161710599437,vtsPrac,1648.0669356959406,,,,,,,,,,,,,,,,,,,,,,,,,,,,,45451,2022-12-01_11h17.39.129,vts_reward_expectancy_bt_OFFLINE,2022.2.4,60.204554261240915,
,,,,,,,,,,,,,,,,,,,,,,,,,,,,,,,,,,0,0,0,0,25,0,25,0,,,,,,,,,,,,,,,,,,,,,,,,,,,,0,882,,,1654.8911387069384,,1655.391861218959,125,B,hexagon,0.001078392961062491,,,,,1,0,,,2,,,,,,,,,1650.5528820839245,1650.5528820839245,1650.5528820839245,1650.5528820839245,1652.054483961896,1652.054483961896,1652.054483961896,1652.054483961896,1652.054483961896,1652.054483961896,1652.054483961896,1652.054483961896,switch,number,numSwt,d,1.3184820091119036,vtsPrac,1653.3895504059037,1654.8911387069384,,,,,,,,,,,,,,,,,,,,,,,,,,,,45451,2022-12-01_11h17.39.129,vts_reward_expectancy_bt_OFFLINE,2022.2.4,60.204554261240915,
,,,,,,,,,,,,,,,,,,,,,,,,,,,,,,,,,,0,0,0,0,26,0,26,0,,,,,,,,,,,,,,,,,,,,,,,,,,,,0,882,,,1659.8298153099604,,,174,H,hexagon,0.001107099000364542,,,,,1,0,,,2,,,,,,,,,1655.8756895340048,1655.8756895340048,1655.8756895340048,1655.8756895340048,1657.3767440849915,1657.3767440849915,1657.3767440849915,1657.3767440849915,1657.3767440849915,1657.3767440849915,1657.3767440849915,1657.3767440849915,switch,letter,lettSwt,j,0.9231520880712196,vtsPrac,1658.327706488897,,,,,,,,,,,,,,,,,,,,,,,,,,,,,45451,2022-12-01_11h17.39.129,vts_reward_expectancy_bt_OFFLINE,2022.2.4,60.204554261240915,
,,,,,,,,,,,,,,,,,,,,,,,,,,,,,,,,,,0,0,0,0,27,0,27,0,,,,,,,,,,,,,,,,,,,,,,,,,,,,0,882,,,1664.6684979769634,,,139,U,circle,0.0018883669981732965,,,,,1,0,,,2,,,,,,,,,1660.814225938986,1660.814225938986,1660.814225938986,1660.814225938986,1662.3158431259217,1662.3158431259217,1662.3158431259217,1662.3158431259217,1662.3158431259217,1662.3158431259217,1662.3158431259217,1662.3158431259217,repeat,letter,lettRpt,k,0.8330019731074572,vtsPrac,1663.166835694923,1664.6684979769634,,,,,,,,,,,,,,,,,,,,,,,,,,,,45451,2022-12-01_11h17.39.129,vts_reward_expectancy_bt_OFFLINE,2022.2.4,60.204554261240915,
