LTriangleOpac,LCircleOpac,LHexagonOpac,LStarOpac,RTriangleOpac,RCircleOpac,RHexagonOpac,RStarOpac,LShape_ID,RShape_ID,training_blocks.thisRepN,training_blocks.thisTrialN,training_blocks.thisN,training_blocks.thisIndex,training.thisRepN,training.thisTrialN,training.thisN,training.thisIndex,task1_prac_redo.thisRepN,task1_prac_redo.thisTrialN,task1_prac_redo.thisN,task1_prac_redo.thisIndex,task1_prac_trials.thisRepN,task1_prac_trials.thisTrialN,task1_prac_trials.thisN,task1_prac_trials.thisIndex,task2_prac_redo.thisRepN,task2_prac_redo.thisTrialN,task2_prac_redo.thisN,task2_prac_redo.thisIndex,task2_praac_trials.thisRepN,task2_praac_trials.thisTrialN,task2_praac_trials.thisN,task2_praac_trials.thisIndex,vts_prac_redo.thisRepN,vts_prac_redo.thisTrialN,vts_prac_redo.thisN,vts_prac_redo.thisIndex,vts_practice_trials.thisRepN,vts_practice_trials.thisTrialN,vts_practice_trials.thisN,vts_practice_trials.thisIndex,trials_norew.thisRepN,trials_norew.thisTrialN,trials_norew.thisN,trials_norew.thisIndex,block.thisRepN,block.thisTrialN,block.thisN,block.thisIndex,trials_rew.thisRepN,trials_rew.thisTrialN,trials_rew.thisN,trials_rew.thisIndex,key_resp.started,key_resp.keys,key_resp.rt,left_circle.started,right_circle.started,left_triangle.started,right_triangle.started,left_star.started,right_star.started,left_hexagon.started,right_hexagon.started,training_fix.started,training_resp.started,training_resp.keys,training_resp.rt,points_trial,points_cumul,trainBlock,training_feedback_txt.started,fix.started,training_feedback_txt.stopped,fix.stopped,curr_topStim,curr_bottStim,curr_shape,ISI.started,tgt_fix_prac1.started,top_target_prac1.started,bott_target_prac1.started,target_resp_prac1.started,acc,E1,target_resp_prac1.keys,target_resp_prac1.rt,pracBlock,prac_fback_text.started,prac_fback_text.stopped,tgt_fix_prac2.started,top_target_prac2.started,bott_target_prac2.started,target_resp_prac2.started,target_resp_prac2.keys,target_resp_prac2.rt,star.started,hegagon.started,triangle.started,circle.started,top_target.started,tgt_fix.started,bot_target.started,target_resp.started,star.stopped,hegagon.stopped,triangle.stopped,circle.stopped,alt,task,condition,target_resp.keys,target_resp.rt,rewCond,vts_fback.started,vts_fback.stopped,blockNum,norew_fback.started,norew_fback.stopped,top_target.stopped,tgt_fix.stopped,bot_target.stopped,target_resp.stopped,key_resp_2.keys,key_resp_2.rt,rewExpectancy,feedbk_text.started,feedbk_text.stopped,text_3.started,debrief.started,text_3.stopped,button.started,debrief.index,debrief.itemText,debrief.type,debrief.granularity,debrief.font,debrief.markerColor,debrief.response,debrief.rt,button.numClicks,button.timesOn,button.timesOff,participant,date,expName,psychopyVersion,frameRate,
,,,,,,,,,,,,,,,,,,,,,,,,,,,,,,,,,,,,,,,,,,,,,,,,,,,,,,48.42297788988799,space,10.723621384240687,,,,,,,,,,,,,,,,,,,,,,,,,,,,,,,,,,,,,,,,,,,,,,,,,,,,,,,,,,,,,,,,,,,,,,,,,,,,,,,,,,,,,,,,45561,2022-11-30_14h30.07.819,vts_reward_expectancy_bt_OFFLINE,2022.2.4,59.90253193877391,
1,0,0,0,0,0,0,1,triangle,star,0,0,0,0,0,0,0,2,,,,,,,,,,,,,,,,,,,,,,,,,,,,,,,,,,,,,,,,84.16345992311835,84.16345992311835,84.16345992311835,84.16345992311835,84.16345992311835,84.16345992311835,84.16345992311835,84.16345992311835,84.16345992311835,84.16345992311835,l,1.8952414141967893,10,10,0,86.07844455121085,87.59328192519024,,,,,,,,,,,,,,,,,,,,,,,,,,,,,,,,,,,,,,,,,,,,,,,,,,,,,,,,,,,,,,,,,,,,,,,45561,2022-11-30_14h30.07.819,vts_reward_expectancy_bt_OFFLINE,2022.2.4,59.90253193877391,
0,0,0,1,0,1,0,0,star ,circle,0,0,0,0,0,1,1,10,,,,,,,,,,,,,,,,,,,,,,,,,,,,,,,,,,,,,,,,88.0933838468045,88.0933838468045,88.0933838468045,88.0933838468045,88.0933838468045,88.0933838468045,88.0933838468045,88.0933838468045,88.0933838468045,88.0933838468045,a,1.8916533067822456,10,20,0,90.01306862011552,91.5137860327959,91.5137860327959,,,,,,,,,,,,,,,,,,,,,,,,,,,,,,,,,,,,,,,,,,,,,,,,,,,,,,,,,,,,,,,,,,,,,,45561,2022-11-30_14h30.07.819,vts_reward_expectancy_bt_OFFLINE,2022.2.4,59.90253193877391,
0,0,1,0,0,1,0,0,hexagon,circle,0,0,0,0,0,2,2,7,,,,,,,,,,,,,,,,,,,,,,,,,,,,,,,,,,,,,,,,92.01384364999831,92.01384364999831,92.01384364999831,92.01384364999831,92.01384364999831,92.01384364999831,92.01384364999831,92.01384364999831,92.01384364999831,92.01384364999831,a,1.9653825289569795,1,21,0,93.99815264390782,95.49985005892813,,,,,,,,,,,,,,,,,,,,,,,,,,,,,,,,,,,,,,,,,,,,,,,,,,,,,,,,,,,,,,,,,,,,,,,45561,2022-11-30_14h30.07.819,vts_reward_expectancy_bt_OFFLINE,2022.2.4,59.90253193877391,
0,0,0,1,1,0,0,0,star,triangle,0,0,0,0,0,3,3,9,,,,,,,,,,,,,,,,,,,,,,,,,,,,,,,,,,,,,,,,96.00020794197917,96.00020794197917,96.00020794197917,96.00020794197917,96.00020794197917,96.00020794197917,96.00020794197917,96.00020794197917,96.00020794197917,96.00020794197917,a,0.9484510309994221,10,31,0,96.9674931038171,98.46790097421035,98.46790097421035,98.96812883578241,,,,,,,,,,,,,,,,,,,,,,,,,,,,,,,,,,,,,,,,,,,,,,,,,,,,,,,,,,,,,,,,,,,,,45561,2022-11-30_14h30.07.819,vts_reward_expectancy_bt_OFFLINE,2022.2.4,59.90253193877391,
0,0,1,0,1,0,0,0,hexagon,triangle,0,0,0,0,0,4,4,6,,,,,,,,,,,,,,,,,,,,,,,,,,,,,,,,,,,,,,,,98.96812883578241,98.96812883578241,98.96812883578241,98.96812883578241,98.96812883578241,98.96812883578241,98.96812883578241,98.96812883578241,98.96812883578241,98.96812883578241,l,2.1778151621110737,1,32,0,101.17098146723583,102.6712099048309,102.6712099048309,103.1715051298961,,,,,,,,,,,,,,,,,,,,,,,,,,,,,,,,,,,,,,,,,,,,,,,,,,,,,,,,,,,,,,,,,,,,,45561,2022-11-30_14h30.07.819,vts_reward_expectancy_bt_OFFLINE,2022.2.4,59.90253193877391,
1,0,0,0,0,0,1,0,triangle,hexagon,0,0,0,0,0,5,5,1,,,,,,,,,,,,,,,,,,,,,,,,,,,,,,,,,,,,,,,,103.1715051298961,103.1715051298961,103.1715051298961,103.1715051298961,103.1715051298961,103.1715051298961,103.1715051298961,103.1715051298961,103.1715051298961,103.1715051298961,l,3.6211749743670225,1,33,0,106.82483982620761,108.3253127289936,108.3253127289936,108.82546149520203,,,,,,,,,,,,,,,,,,,,,,,,,,,,,,,,,,,,,,,,,,,,,,,,,,,,,,,,,,,,,,,,,,,,,45561,2022-11-30_14h30.07.819,vts_reward_expectancy_bt_OFFLINE,2022.2.4,59.90253193877391,
0,1,0,0,1,0,0,0,circle,triangle,0,0,0,0,0,6,6,3,,,,,,,,,,,,,,,,,,,,,,,,,,,,,,,,,,,,,,,,108.82546149520203,108.82546149520203,108.82546149520203,108.82546149520203,108.82546149520203,108.82546149520203,108.82546149520203,108.82546149520203,108.82546149520203,108.82546149520203,a,1.8944080909714103,10,43,0,110.74481059983373,112.24480116320774,112.24480116320774,112.74485138384625,,,,,,,,,,,,,,,,,,,,,,,,,,,,,,,,,,,,,,,,,,,,,,,,,,,,,,,,,,,,,,,,,,,,,45561,2022-11-30_14h30.07.819,vts_reward_expectancy_bt_OFFLINE,2022.2.4,59.90253193877391,
0,0,0,1,0,0,1,0,star,hexagon,0,0,0,0,0,7,7,11,,,,,,,,,,,,,,,,,,,,,,,,,,,,,,,,,,,,,,,,112.74485138384625,112.74485138384625,112.74485138384625,112.74485138384625,112.74485138384625,112.74485138384625,112.74485138384625,112.74485138384625,112.74485138384625,112.74485138384625,a,1.2483057626523077,1,44,0,114.01233226200566,115.51430842420086,,,,,,,,,,,,,,,,,,,,,,,,,,,,,,,,,,,,,,,,,,,,,,,,,,,,,,,,,,,,,,,,,,,,,,,45561,2022-11-30_14h30.07.819,vts_reward_expectancy_bt_OFFLINE,2022.2.4,59.90253193877391,
0,1,0,0,0,0,1,0,circle,hexagon,0,0,0,0,0,8,8,4,,,,,,,,,,,,,,,,,,,,,,,,,,,,,,,,,,,,,,,,116.0146396132186,116.0146396132186,116.0146396132186,116.0146396132186,116.0146396132186,116.0146396132186,116.0146396132186,116.0146396132186,116.0146396132186,116.0146396132186,a,3.4696621070615947,1,45,0,119.51581519283354,121.01818485418335,,,,,,,,,,,,,,,,,,,,,,,,,,,,,,,,,,,,,,,,,,,,,,,,,,,,,,,,,,,,,,,,,,,,,,,45561,2022-11-30_14h30.07.819,vts_reward_expectancy_bt_OFFLINE,2022.2.4,59.90253193877391,
0,0,1,0,0,0,0,1,hexagon,star,0,0,0,0,0,9,9,8,,,,,,,,,,,,,,,,,,,,,,,,,,,,,,,,,,,,,,,,121.51851013209671,121.51851013209671,121.51851013209671,121.51851013209671,121.51851013209671,121.51851013209671,121.51851013209671,121.51851013209671,121.51851013209671,121.51851013209671,l,1.5658989236690104,10,55,0,123.10240304796025,124.60270957602188,124.60270957602188,,,,,,,,,,,,,,,,,,,,,,,,,,,,,,,,,,,,,,,,,,,,,,,,,,,,,,,,,,,,,,,,,,,,,,45561,2022-11-30_14h30.07.819,vts_reward_expectancy_bt_OFFLINE,2022.2.4,59.90253193877391,
0,1,0,0,0,0,0,1,circle,star,0,0,0,0,0,10,10,5,,,,,,,,,,,,,,,,,,,,,,,,,,,,,,,,,,,,,,,,125.10484643513337,125.10484643513337,125.10484643513337,125.10484643513337,125.10484643513337,125.10484643513337,125.10484643513337,125.10484643513337,125.10484643513337,125.10484643513337,l,1.1971674477681518,10,65,0,126.32196806091815,127.8223084420897,127.8223084420897,128.32262808689848,,,,,,,,,,,,,,,,,,,,,,,,,,,,,,,,,,,,,,,,,,,,,,,,,,,,,,,,,,,,,,,,,,,,,45561,2022-11-30_14h30.07.819,vts_reward_expectancy_bt_OFFLINE,2022.2.4,59.90253193877391,
1,0,0,0,0,1,0,0,triangle,circle,0,0,0,0,0,11,11,0,,,,,,,,,,,,,,,,,,,,,,,,,,,,,,,,,,,,,,,,128.32262808689848,128.32262808689848,128.32262808689848,128.32262808689848,128.32262808689848,128.32262808689848,128.32262808689848,128.32262808689848,128.32262808689848,128.32262808689848,l,1.7934547602199018,10,75,0,130.14216325012967,131.642715674825,131.642715674825,,,,,,,,,,,,,,,,,,,,,,,,,,,,,,,,,,,,,,,,,,,,,,,,,,,,,,,,,,,,,,,,,,,,,,45561,2022-11-30_14h30.07.819,vts_reward_expectancy_bt_OFFLINE,2022.2.4,59.90253193877391,
0,0,1,0,0,0,0,1,hexagon,star,0,0,0,0,1,0,12,8,,,,,,,,,,,,,,,,,,,,,,,,,,,,,,,,,,,,,,,,132.14304133877158,132.14304133877158,132.14304133877158,132.14304133877158,132.14304133877158,132.14304133877158,132.14304133877158,132.14304133877158,132.14304133877158,132.14304133877158,l,0.8636081060394645,10,85,0,133.02598182111979,134.5265032891184,,,,,,,,,,,,,,,,,,,,,,,,,,,,,,,,,,,,,,,,,,,,,,,,,,,,,,,,,,,,,,,,,,,,,,,45561,2022-11-30_14h30.07.819,vts_reward_expectancy_bt_OFFLINE,2022.2.4,59.90253193877391,
0,1,0,0,1,0,0,0,circle,triangle,0,0,0,0,1,1,13,3,,,,,,,,,,,,,,,,,,,,,,,,,,,,,,,,,,,,,,,,135.02881283406168,135.02881283406168,135.02881283406168,135.02881283406168,135.02881283406168,135.02881283406168,135.02881283406168,135.02881283406168,135.02881283406168,135.02881283406168,a,2.1742817778140306,10,95,0,137.22968409582973,138.73019924480468,138.73019924480468,139.23049281910062,,,,,,,,,,,,,,,,,,,,,,,,,,,,,,,,,,,,,,,,,,,,,,,,,,,,,,,,,,,,,,,,,,,,,45561,2022-11-30_14h30.07.819,vts_reward_expectancy_bt_OFFLINE,2022.2.4,59.90253193877391,
1,0,0,0,0,0,0,1,triangle,star,0,0,0,0,1,2,14,2,,,,,,,,,,,,,,,,,,,,,,,,,,,,,,,,,,,,,,,,139.23049281910062,139.23049281910062,139.23049281910062,139.23049281910062,139.23049281910062,139.23049281910062,139.23049281910062,139.23049281910062,139.23049281910062,139.23049281910062,l,1.2802555481903255,10,105,0,140.5327262771316,142.03343740478158,142.03343740478158,142.5332257160917,,,,,,,,,,,,,,,,,,,,,,,,,,,,,,,,,,,,,,,,,,,,,,,,,,,,,,,,,,,,,,,,,,,,,45561,2022-11-30_14h30.07.819,vts_reward_expectancy_bt_OFFLINE,2022.2.4,59.90253193877391,
1,0,0,0,0,1,0,0,triangle,circle,0,0,0,0,1,3,15,0,,,,,,,,,,,,,,,,,,,,,,,,,,,,,,,,,,,,,,,,142.5332257160917,142.5332257160917,142.5332257160917,142.5332257160917,142.5332257160917,142.5332257160917,142.5332257160917,142.5332257160917,142.5332257160917,142.5332257160917,l,1.8602995360270143,10,115,0,144.41739475913346,145.9196410770528,,,,,,,,,,,,,,,,,,,,,,,,,,,,,,,,,,,,,,,,,,,,,,,,,,,,,,,,,,,,,,,,,,,,,,,45561,2022-11-30_14h30.07.819,vts_reward_expectancy_bt_OFFLINE,2022.2.4,59.90253193877391,
0,1,0,0,0,0,1,0,circle,hexagon,0,0,0,0,1,4,16,4,,,,,,,,,,,,,,,,,,,,,,,,,,,,,,,,,,,,,,,,146.4199736667797,146.4199736667797,146.4199736667797,146.4199736667797,146.4199736667797,146.4199736667797,146.4199736667797,146.4199736667797,146.4199736667797,146.4199736667797,a,1.6626012427732348,10,125,0,148.10418009292334,149.60464328015223,149.60464328015223,,,,,,,,,,,,,,,,,,,,,,,,,,,,,,,,,,,,,,,,,,,,,,,,,,,,,,,,,,,,,,,,,,,,,,45561,2022-11-30_14h30.07.819,vts_reward_expectancy_bt_OFFLINE,2022.2.4,59.90253193877391,
0,1,0,0,0,0,0,1,circle,star,0,0,0,0,1,5,17,5,,,,,,,,,,,,,,,,,,,,,,,,,,,,,,,,,,,,,,,,150.1066546868533,150.1066546868533,150.1066546868533,150.1066546868533,150.1066546868533,150.1066546868533,150.1066546868533,150.1066546868533,150.1066546868533,150.1066546868533,l,0.7321477648802102,10,135,0,150.85715431394055,152.35755684785545,152.35755684785545,152.8576736007817,,,,,,,,,,,,,,,,,,,,,,,,,,,,,,,,,,,,,,,,,,,,,,,,,,,,,,,,,,,,,,,,,,,,,45561,2022-11-30_14h30.07.819,vts_reward_expectancy_bt_OFFLINE,2022.2.4,59.90253193877391,
0,0,0,1,0,0,1,0,star,hexagon,0,0,0,0,1,6,18,11,,,,,,,,,,,,,,,,,,,,,,,,,,,,,,,,,,,,,,,,152.8576736007817,152.8576736007817,152.8576736007817,152.8576736007817,152.8576736007817,152.8576736007817,152.8576736007817,152.8576736007817,152.8576736007817,152.8576736007817,a,0.9062724029645324,1,136,0,153.79150417307392,155.29360680282116,,,,,,,,,,,,,,,,,,,,,,,,,,,,,,,,,,,,,,,,,,,,,,,,,,,,,,,,,,,,,,,,,,,,,,,45561,2022-11-30_14h30.07.819,vts_reward_expectancy_bt_OFFLINE,2022.2.4,59.90253193877391,
1,0,0,0,0,0,1,0,triangle,hexagon,0,0,0,0,1,7,19,1,,,,,,,,,,,,,,,,,,,,,,,,,,,,,,,,,,,,,,,,155.79385803313926,155.79385803313926,155.79385803313926,155.79385803313926,155.79385803313926,155.79385803313926,155.79385803313926,155.79385803313926,155.79385803313926,155.79385803313926,l,2.639202319085598,10,146,0,158.46228003501892,159.96410598699003,,,,,,,,,,,,,,,,,,,,,,,,,,,,,,,,,,,,,,,,,,,,,,,,,,,,,,,,,,,,,,,,,,,,,,,45561,2022-11-30_14h30.07.819,vts_reward_expectancy_bt_OFFLINE,2022.2.4,59.90253193877391,
0,0,1,0,1,0,0,0,hexagon,triangle,0,0,0,0,1,8,20,6,,,,,,,,,,,,,,,,,,,,,,,,,,,,,,,,,,,,,,,,160.46389919193462,160.46389919193462,160.46389919193462,160.46389919193462,160.46389919193462,160.46389919193462,160.46389919193462,160.46389919193462,160.46389919193462,160.46389919193462,a,1.716314613353461,1,147,0,162.19847951922566,163.69850302208215,163.69850302208215,164.19860984385014,,,,,,,,,,,,,,,,,,,,,,,,,,,,,,,,,,,,,,,,,,,,,,,,,,,,,,,,,,,,,,,,,,,,,45561,2022-11-30_14h30.07.819,vts_reward_expectancy_bt_OFFLINE,2022.2.4,59.90253193877391,
0,0,0,1,1,0,0,0,star,triangle,0,0,0,0,1,9,21,9,,,,,,,,,,,,,,,,,,,,,,,,,,,,,,,,,,,,,,,,164.19860984385014,164.19860984385014,164.19860984385014,164.19860984385014,164.19860984385014,164.19860984385014,164.19860984385014,164.19860984385014,164.19860984385014,164.19860984385014,a,1.2659817291423678,10,157,0,165.48507939605042,166.98477855697274,166.98477855697274,167.48468972416595,,,,,,,,,,,,,,,,,,,,,,,,,,,,,,,,,,,,,,,,,,,,,,,,,,,,,,,,,,,,,,,,,,,,,45561,2022-11-30_14h30.07.819,vts_reward_expectancy_bt_OFFLINE,2022.2.4,59.90253193877391,
0,0,1,0,0,1,0,0,hexagon,circle,0,0,0,0,1,10,22,7,,,,,,,,,,,,,,,,,,,,,,,,,,,,,,,,,,,,,,,,167.48468972416595,167.48468972416595,167.48468972416595,167.48468972416595,167.48468972416595,167.48468972416595,167.48468972416595,167.48468972416595,167.48468972416595,167.48468972416595,l,3.121391068212688,10,167,0,170.63787788897753,172.1384884561412,172.1384884561412,172.6384536512196,,,,,,,,,,,,,,,,,,,,,,,,,,,,,,,,,,,,,,,,,,,,,,,,,,,,,,,,,,,,,,,,,,,,,45561,2022-11-30_14h30.07.819,vts_reward_expectancy_bt_OFFLINE,2022.2.4,59.90253193877391,
0,0,0,1,0,1,0,0,star ,circle,0,0,0,0,1,11,23,10,,,,,,,,,,,,,,,,,,,,,,,,,,,,,,,,,,,,,,,,172.6384536512196,172.6384536512196,172.6384536512196,172.6384536512196,172.6384536512196,172.6384536512196,172.6384536512196,172.6384536512196,172.6384536512196,172.6384536512196,l,2.952490484341979,10,177,0,175.60819543385878,177.10886756703258,177.10886756703258,177.60899375006557,,,,,,,,,,,,,,,,,,,,,,,,,,,,,,,,,,,,,,,,,,,,,,,,,,,,,,,,,,,,,,,,,,,,,45561,2022-11-30_14h30.07.819,vts_reward_expectancy_bt_OFFLINE,2022.2.4,59.90253193877391,
0,1,0,0,0,0,1,0,circle,hexagon,0,0,0,0,2,0,24,4,,,,,,,,,,,,,,,,,,,,,,,,,,,,,,,,,,,,,,,,177.60899375006557,177.60899375006557,177.60899375006557,177.60899375006557,177.60899375006557,177.60899375006557,177.60899375006557,177.60899375006557,177.60899375006557,177.60899375006557,a,1.4350632480345666,10,187,0,179.07623313413933,180.57860664417967,,,,,,,,,,,,,,,,,,,,,,,,,,,,,,,,,,,,,,,,,,,,,,,,,,,,,,,,,,,,,,,,,,,,,,,45561,2022-11-30_14h30.07.819,vts_reward_expectancy_bt_OFFLINE,2022.2.4,59.90253193877391,
0,0,1,0,0,0,0,1,hexagon,star,0,0,0,0,2,1,25,8,,,,,,,,,,,,,,,,,,,,,,,,,,,,,,,,,,,,,,,,181.07898047519848,181.07898047519848,181.07898047519848,181.07898047519848,181.07898047519848,181.07898047519848,181.07898047519848,181.07898047519848,181.07898047519848,181.07898047519848,l,1.284037185832858,10,197,0,182.3958147848025,183.89605842204764,183.89605842204764,184.39634984498844,,,,,,,,,,,,,,,,,,,,,,,,,,,,,,,,,,,,,,,,,,,,,,,,,,,,,,,,,,,,,,,,,,,,,45561,2022-11-30_14h30.07.819,vts_reward_expectancy_bt_OFFLINE,2022.2.4,59.90253193877391,
0,0,1,0,0,1,0,0,hexagon,circle,0,0,0,0,2,2,26,7,,,,,,,,,,,,,,,,,,,,,,,,,,,,,,,,,,,,,,,,184.39634984498844,184.39634984498844,184.39634984498844,184.39634984498844,184.39634984498844,184.39634984498844,184.39634984498844,184.39634984498844,184.39634984498844,184.39634984498844,l,1.196282995864749,10,207,0,185.61536542512476,187.11599049996585,,187.6161325168796,,,,,,,,,,,,,,,,,,,,,,,,,,,,,,,,,,,,,,,,,,,,,,,,,,,,,,,,,,,,,,,,,,,,,45561,2022-11-30_14h30.07.819,vts_reward_expectancy_bt_OFFLINE,2022.2.4,59.90253193877391,
0,1,0,0,1,0,0,0,circle,triangle,0,0,0,0,2,3,27,3,,,,,,,,,,,,,,,,,,,,,,,,,,,,,,,,,,,,,,,,187.6161325168796,187.6161325168796,187.6161325168796,187.6161325168796,187.6161325168796,187.6161325168796,187.6161325168796,187.6161325168796,187.6161325168796,187.6161325168796,a,1.5881673679687083,10,217,0,189.23360882280394,190.7360834418796,,,,,,,,,,,,,,,,,,,,,,,,,,,,,,,,,,,,,,,,,,,,,,,,,,,,,,,,,,,,,,,,,,,,,,,45561,2022-11-30_14h30.07.819,vts_reward_expectancy_bt_OFFLINE,2022.2.4,59.90253193877391,
0,1,0,0,0,0,0,1,circle,star,0,0,0,0,2,4,28,5,,,,,,,,,,,,,,,,,,,,,,,,,,,,,,,,,,,,,,,,191.23636763403192,191.23636763403192,191.23636763403192,191.23636763403192,191.23636763403192,191.23636763403192,191.23636763403192,191.23636763403192,191.23636763403192,191.23636763403192,l,1.2418001350015402,10,227,0,192.5031981980428,194.0034033600241,194.0034033600241,194.50384093122557,,,,,,,,,,,,,,,,,,,,,,,,,,,,,,,,,,,,,,,,,,,,,,,,,,,,,,,,,,,,,,,,,,,,,45561,2022-11-30_14h30.07.819,vts_reward_expectancy_bt_OFFLINE,2022.2.4,59.90253193877391,
0,0,0,1,0,0,1,0,star,hexagon,0,0,0,0,2,5,29,11,,,,,,,,,,,,,,,,,,,,,,,,,,,,,,,,,,,,,,,,194.50384093122557,194.50384093122557,194.50384093122557,194.50384093122557,194.50384093122557,194.50384093122557,194.50384093122557,194.50384093122557,194.50384093122557,194.50384093122557,a,1.2700769770890474,10,237,0,195.8057257309556,197.30661649582908,197.30661649582908,197.80697391787544,,,,,,,,,,,,,,,,,,,,,,,,,,,,,,,,,,,,,,,,,,,,,,,,,,,,,,,,,,,,,,,,,,,,,45561,2022-11-30_14h30.07.819,vts_reward_expectancy_bt_OFFLINE,2022.2.4,59.90253193877391,
1,0,0,0,0,0,0,1,triangle,star,0,0,0,0,2,6,30,2,,,,,,,,,,,,,,,,,,,,,,,,,,,,,,,,,,,,,,,,197.80697391787544,197.80697391787544,197.80697391787544,197.80697391787544,197.80697391787544,197.80697391787544,197.80697391787544,197.80697391787544,197.80697391787544,197.80697391787544,a,1.3427080158144236,10,247,0,199.17644408904016,200.67636084603146,,,,,,,,,,,,,,,,,,,,,,,,,,,,,,,,,,,,,,,,,,,,,,,,,,,,,,,,,,,,,,,,,,,,,,,45561,2022-11-30_14h30.07.819,vts_reward_expectancy_bt_OFFLINE,2022.2.4,59.90253193877391,
1,0,0,0,0,1,0,0,triangle,circle,0,0,0,0,2,7,31,0,,,,,,,,,,,,,,,,,,,,,,,,,,,,,,,,,,,,,,,,201.17681642994285,201.17681642994285,201.17681642994285,201.17681642994285,201.17681642994285,201.17681642994285,201.17681642994285,201.17681642994285,201.17681642994285,201.17681642994285,l,1.3809970021247864,10,257,0,202.5769330789335,204.07749110693112,204.07749110693112,204.5778748211451,,,,,,,,,,,,,,,,,,,,,,,,,,,,,,,,,,,,,,,,,,,,,,,,,,,,,,,,,,,,,,,,,,,,,45561,2022-11-30_14h30.07.819,vts_reward_expectancy_bt_OFFLINE,2022.2.4,59.90253193877391,
0,0,0,1,0,1,0,0,star ,circle,0,0,0,0,2,8,32,10,,,,,,,,,,,,,,,,,,,,,,,,,,,,,,,,,,,,,,,,204.5778748211451,204.5778748211451,204.5778748211451,204.5778748211451,204.5778748211451,204.5778748211451,204.5778748211451,204.5778748211451,204.5778748211451,204.5778748211451,l,2.5372960520908237,10,267,0,207.147480674088,208.64781907619908,208.64781907619908,209.14812955493107,,,,,,,,,,,,,,,,,,,,,,,,,,,,,,,,,,,,,,,,,,,,,,,,,,,,,,,,,,,,,,,,,,,,,45561,2022-11-30_14h30.07.819,vts_reward_expectancy_bt_OFFLINE,2022.2.4,59.90253193877391,
1,0,0,0,0,0,1,0,triangle,hexagon,0,0,0,0,2,9,33,1,,,,,,,,,,,,,,,,,,,,,,,,,,,,,,,,,,,,,,,,209.14812955493107,209.14812955493107,209.14812955493107,209.14812955493107,209.14812955493107,209.14812955493107,209.14812955493107,209.14812955493107,209.14812955493107,209.14812955493107,a,2.444799861870706,1,268,0,211.61810106877238,213.11771558783948,213.11771558783948,213.61814773781225,,,,,,,,,,,,,,,,,,,,,,,,,,,,,,,,,,,,,,,,,,,,,,,,,,,,,,,,,,,,,,,,,,,,,45561,2022-11-30_14h30.07.819,vts_reward_expectancy_bt_OFFLINE,2022.2.4,59.90253193877391,
0,0,1,0,1,0,0,0,hexagon,triangle,0,0,0,0,2,10,34,6,,,,,,,,,,,,,,,,,,,,,,,,,,,,,,,,,,,,,,,,213.61814773781225,213.61814773781225,213.61814773781225,213.61814773781225,213.61814773781225,213.61814773781225,213.61814773781225,213.61814773781225,213.61814773781225,213.61814773781225,a,3.1376139763742685,10,278,0,216.79003505501896,218.304798072204,,,,,,,,,,,,,,,,,,,,,,,,,,,,,,,,,,,,,,,,,,,,,,,,,,,,,,,,,,,,,,,,,,,,,,,45561,2022-11-30_14h30.07.819,vts_reward_expectancy_bt_OFFLINE,2022.2.4,59.90253193877391,
0,0,0,1,1,0,0,0,star,triangle,0,0,0,0,2,11,35,9,,,,,,,,,,,,,,,,,,,,,,,,,,,,,,,,,,,,,,,,218.8051122277975,218.8051122277975,218.8051122277975,218.8051122277975,218.8051122277975,218.8051122277975,218.8051122277975,218.8051122277975,218.8051122277975,218.8051122277975,a,2.743686228990555,10,288,0,221.57486006896943,223.0749642048031,223.0749642048031,223.5751948938705,,,,,,,,,,,,,,,,,,,,,,,,,,,,,,,,,,,,,,,,,,,,,,,,,,,,,,,,,,,,,,,,,,,,,45561,2022-11-30_14h30.07.819,vts_reward_expectancy_bt_OFFLINE,2022.2.4,59.90253193877391,
0,0,0,1,1,0,0,0,star,triangle,0,0,0,0,3,0,36,9,,,,,,,,,,,,,,,,,,,,,,,,,,,,,,,,,,,,,,,,223.5751948938705,223.5751948938705,223.5751948938705,223.5751948938705,223.5751948938705,223.5751948938705,223.5751948938705,223.5751948938705,223.5751948938705,223.5751948938705,a,1.5175561211071908,10,298,0,225.11118239723146,226.61197693180293,226.61197693180293,227.11199339386076,,,,,,,,,,,,,,,,,,,,,,,,,,,,,,,,,,,,,,,,,,,,,,,,,,,,,,,,,,,,,,,,,,,,,45561,2022-11-30_14h30.07.819,vts_reward_expectancy_bt_OFFLINE,2022.2.4,59.90253193877391,
0,0,1,0,0,1,0,0,hexagon,circle,0,0,0,0,3,1,37,7,,,,,,,,,,,,,,,,,,,,,,,,,,,,,,,,,,,,,,,,227.11199339386076,227.11199339386076,227.11199339386076,227.11199339386076,227.11199339386076,227.11199339386076,227.11199339386076,227.11199339386076,227.11199339386076,227.11199339386076,l,1.085883461870253,10,308,0,228.22877285210416,229.72935679508373,229.72935679508373,,,,,,,,,,,,,,,,,,,,,,,,,,,,,,,,,,,,,,,,,,,,,,,,,,,,,,,,,,,,,,,,,,,,,,45561,2022-11-30_14h30.07.819,vts_reward_expectancy_bt_OFFLINE,2022.2.4,59.90253193877391,
0,0,0,1,0,1,0,0,star ,circle,0,0,0,0,3,2,38,10,,,,,,,,,,,,,,,,,,,,,,,,,,,,,,,,,,,,,,,,230.2311923969537,230.2311923969537,230.2311923969537,230.2311923969537,230.2311923969537,230.2311923969537,230.2311923969537,230.2311923969537,230.2311923969537,230.2311923969537,l,1.2969569973647594,10,318,0,231.54857007600367,233.04896540520713,233.04896540520713,233.54946903698146,,,,,,,,,,,,,,,,,,,,,,,,,,,,,,,,,,,,,,,,,,,,,,,,,,,,,,,,,,,,,,,,,,,,,45561,2022-11-30_14h30.07.819,vts_reward_expectancy_bt_OFFLINE,2022.2.4,59.90253193877391,
0,1,0,0,0,0,1,0,circle,hexagon,0,0,0,0,3,3,39,4,,,,,,,,,,,,,,,,,,,,,,,,,,,,,,,,,,,,,,,,233.54946903698146,233.54946903698146,233.54946903698146,233.54946903698146,233.54946903698146,233.54946903698146,233.54946903698146,233.54946903698146,233.54946903698146,233.54946903698146,a,1.8945245160721242,10,328,0,235.4683181680739,236.9689995967783,236.9689995967783,237.46963489614427,,,,,,,,,,,,,,,,,,,,,,,,,,,,,,,,,,,,,,,,,,,,,,,,,,,,,,,,,,,,,,,,,,,,,45561,2022-11-30_14h30.07.819,vts_reward_expectancy_bt_OFFLINE,2022.2.4,59.90253193877391,
0,1,0,0,1,0,0,0,circle,triangle,0,0,0,0,3,4,40,3,,,,,,,,,,,,,,,,,,,,,,,,,,,,,,,,,,,,,,,,237.46963489614427,237.46963489614427,237.46963489614427,237.46963489614427,237.46963489614427,237.46963489614427,237.46963489614427,237.46963489614427,237.46963489614427,237.46963489614427,a,1.2142623872496188,10,338,0,238.70262583019212,240.2052919040434,,,,,,,,,,,,,,,,,,,,,,,,,,,,,,,,,,,,,,,,,,,,,,,,,,,,,,,,,,,,,,,,,,,,,,,45561,2022-11-30_14h30.07.819,vts_reward_expectancy_bt_OFFLINE,2022.2.4,59.90253193877391,
0,0,1,0,0,0,0,1,hexagon,star,0,0,0,0,3,5,41,8,,,,,,,,,,,,,,,,,,,,,,,,,,,,,,,,,,,,,,,,240.70547210704535,240.70547210704535,240.70547210704535,240.70547210704535,240.70547210704535,240.70547210704535,240.70547210704535,240.70547210704535,240.70547210704535,240.70547210704535,l,1.0270461402833462,10,348,0,241.75801659887657,243.27329309098423,,,,,,,,,,,,,,,,,,,,,,,,,,,,,,,,,,,,,,,,,,,,,,,,,,,,,,,,,,,,,,,,,,,,,,,45561,2022-11-30_14h30.07.819,vts_reward_expectancy_bt_OFFLINE,2022.2.4,59.90253193877391,
1,0,0,0,0,1,0,0,triangle,circle,0,0,0,0,3,6,42,0,,,,,,,,,,,,,,,,,,,,,,,,,,,,,,,,,,,,,,,,243.77349094115198,243.77349094115198,243.77349094115198,243.77349094115198,243.77349094115198,243.77349094115198,243.77349094115198,243.77349094115198,243.77349094115198,243.77349094115198,l,2.111357808113098,1,349,0,245.91071312502027,247.40960405906662,247.40960405906662,247.9098230767995,,,,,,,,,,,,,,,,,,,,,,,,,,,,,,,,,,,,,,,,,,,,,,,,,,,,,,,,,,,,,,,,,,,,,45561,2022-11-30_14h30.07.819,vts_reward_expectancy_bt_OFFLINE,2022.2.4,59.90253193877391,
0,0,1,0,1,0,0,0,hexagon,triangle,0,0,0,0,3,7,43,6,,,,,,,,,,,,,,,,,,,,,,,,,,,,,,,,,,,,,,,,247.9098230767995,247.9098230767995,247.9098230767995,247.9098230767995,247.9098230767995,247.9098230767995,247.9098230767995,247.9098230767995,247.9098230767995,247.9098230767995,l,5.55670821107924,10,359,0,253.50050098309293,254.99944403301924,,,,,,,,,,,,,,,,,,,,,,,,,,,,,,,,,,,,,,,,,,,,,,,,,,,,,,,,,,,,,,,,,,,,,,,45561,2022-11-30_14h30.07.819,vts_reward_expectancy_bt_OFFLINE,2022.2.4,59.90253193877391,
0,0,0,1,0,0,1,0,star,hexagon,0,0,0,0,3,8,44,11,,,,,,,,,,,,,,,,,,,,,,,,,,,,,,,,,,,,,,,,255.49960281699896,255.49960281699896,255.49960281699896,255.49960281699896,255.49960281699896,255.49960281699896,255.49960281699896,255.49960281699896,255.49960281699896,255.49960281699896,a,1.0957403043285012,1,360,0,256.6199582112022,258.13427312485874,,,,,,,,,,,,,,,,,,,,,,,,,,,,,,,,,,,,,,,,,,,,,,,,,,,,,,,,,,,,,,,,,,,,,,,45561,2022-11-30_14h30.07.819,vts_reward_expectancy_bt_OFFLINE,2022.2.4,59.90253193877391,
1,0,0,0,0,0,0,1,triangle,star,0,0,0,0,3,9,45,2,,,,,,,,,,,,,,,,,,,,,,,,,,,,,,,,,,,,,,,,258.6344171189703,258.6344171189703,258.6344171189703,258.6344171189703,258.6344171189703,258.6344171189703,258.6344171189703,258.6344171189703,258.6344171189703,258.6344171189703,l,1.6622188440524042,10,370,0,260.32358501292765,261.8373020081781,,,,,,,,,,,,,,,,,,,,,,,,,,,,,,,,,,,,,,,,,,,,,,,,,,,,,,,,,,,,,,,,,,,,,,,45561,2022-11-30_14h30.07.819,vts_reward_expectancy_bt_OFFLINE,2022.2.4,59.90253193877391,
0,1,0,0,0,0,0,1,circle,star,0,0,0,0,3,10,46,5,,,,,,,,,,,,,,,,,,,,,,,,,,,,,,,,,,,,,,,,262.33770906878635,262.33770906878635,262.33770906878635,262.33770906878635,262.33770906878635,262.33770906878635,262.33770906878635,262.33770906878635,262.33770906878635,262.33770906878635,l,0.8832347942516208,10,380,0,263.237836393062,264.73800072306767,264.73800072306767,,,,,,,,,,,,,,,,,,,,,,,,,,,,,,,,,,,,,,,,,,,,,,,,,,,,,,,,,,,,,,,,,,,,,,45561,2022-11-30_14h30.07.819,vts_reward_expectancy_bt_OFFLINE,2022.2.4,59.90253193877391,
1,0,0,0,0,0,1,0,triangle,hexagon,0,0,0,0,3,11,47,1,,,,,,,,,,,,,,,,,,,,,,,,,,,,,,,,,,,,,,,,265.240364595782,265.240364595782,265.240364595782,265.240364595782,265.240364595782,265.240364595782,265.240364595782,265.240364595782,265.240364595782,265.240364595782,a,2.739352960139513,1,381,0,268.01135658705607,269.52530807303265,,,,,,,,,,,,,,,,,,,,,,,,,,,,,,,,,,,,,,,,,,,,,,,,,,,,,,,,,,,,,,,,,,,,,,,45561,2022-11-30_14h30.07.819,vts_reward_expectancy_bt_OFFLINE,2022.2.4,59.90253193877391,
0,1,0,0,0,0,0,1,circle,star,1,0,1,0,0,0,0,5,,,,,,,,,,,,,,,,,,,,,,,,,,,,,,,,,,,,,,,,285.6532343351282,285.6532343351282,285.6532343351282,285.6532343351282,285.6532343351282,285.6532343351282,285.6532343351282,285.6532343351282,285.6532343351282,285.6532343351282,a,1.9364709188230336,10,391,1,287.6222944520414,289.1228542388417,289.1228542388417,289.62311429111287,,,,,,,,,,,,,,,,,,,,,,,,,,,,,,,,,,,,,,,,,,,,,,,,,,,,,,,,,,,,,,,,,,,,,45561,2022-11-30_14h30.07.819,vts_reward_expectancy_bt_OFFLINE,2022.2.4,59.90253193877391,
1,0,0,0,0,0,1,0,triangle,hexagon,1,0,1,0,0,1,1,1,,,,,,,,,,,,,,,,,,,,,,,,,,,,,,,,,,,,,,,,289.62311429111287,289.62311429111287,289.62311429111287,289.62311429111287,289.62311429111287,289.62311429111287,289.62311429111287,289.62311429111287,289.62311429111287,289.62311429111287,a,4.300922478083521,10,401,1,293.9451043019071,295.445308777038,,,,,,,,,,,,,,,,,,,,,,,,,,,,,,,,,,,,,,,,,,,,,,,,,,,,,,,,,,,,,,,,,,,,,,,45561,2022-11-30_14h30.07.819,vts_reward_expectancy_bt_OFFLINE,2022.2.4,59.90253193877391,
0,0,0,1,0,0,1,0,star,hexagon,1,0,1,0,0,2,2,11,,,,,,,,,,,,,,,,,,,,,,,,,,,,,,,,,,,,,,,,295.9456865959801,295.9456865959801,295.9456865959801,295.9456865959801,295.9456865959801,295.9456865959801,295.9456865959801,295.9456865959801,295.9456865959801,295.9456865959801,a,0.9258063221350312,10,411,1,296.8982206219807,298.4132747980766,,,,,,,,,,,,,,,,,,,,,,,,,,,,,,,,,,,,,,,,,,,,,,,,,,,,,,,,,,,,,,,,,,,,,,,45561,2022-11-30_14h30.07.819,vts_reward_expectancy_bt_OFFLINE,2022.2.4,59.90253193877391,
0,0,1,0,0,1,0,0,hexagon,circle,1,0,1,0,0,3,3,7,,,,,,,,,,,,,,,,,,,,,,,,,,,,,,,,,,,,,,,,298.9135680939071,298.9135680939071,298.9135680939071,298.9135680939071,298.9135680939071,298.9135680939071,298.9135680939071,298.9135680939071,298.9135680939071,298.9135680939071,l,1.512978009879589,1,412,1,300.45246899314225,301.9664935199544,,,,,,,,,,,,,,,,,,,,,,,,,,,,,,,,,,,,,,,,,,,,,,,,,,,,,,,,,,,,,,,,,,,,,,,45561,2022-11-30_14h30.07.819,vts_reward_expectancy_bt_OFFLINE,2022.2.4,59.90253193877391,
0,1,0,0,0,0,1,0,circle,hexagon,1,0,1,0,0,4,4,4,,,,,,,,,,,,,,,,,,,,,,,,,,,,,,,,,,,,,,,,302.4500135118142,302.4500135118142,302.4500135118142,302.4500135118142,302.4500135118142,302.4500135118142,302.4500135118142,302.4500135118142,302.4500135118142,302.4500135118142,a,2.679772859904915,1,413,1,305.15443213516846,306.67010377021506,,,,,,,,,,,,,,,,,,,,,,,,,,,,,,,,,,,,,,,,,,,,,,,,,,,,,,,,,,,,,,,,,,,,,,,45561,2022-11-30_14h30.07.819,vts_reward_expectancy_bt_OFFLINE,2022.2.4,59.90253193877391,
0,0,0,1,0,1,0,0,star ,circle,1,0,1,0,0,5,5,10,,,,,,,,,,,,,,,,,,,,,,,,,,,,,,,,,,,,,,,,307.17048155423254,307.17048155423254,307.17048155423254,307.17048155423254,307.17048155423254,307.17048155423254,307.17048155423254,307.17048155423254,307.17048155423254,307.17048155423254,a,1.2214730391278863,1,414,1,308.42346056504175,309.9231481621973,,,,,,,,,,,,,,,,,,,,,,,,,,,,,,,,,,,,,,,,,,,,,,,,,,,,,,,,,,,,,,,,,,,,,,,45561,2022-11-30_14h30.07.819,vts_reward_expectancy_bt_OFFLINE,2022.2.4,59.90253193877391,
0,1,0,0,1,0,0,0,circle,triangle,1,0,1,0,0,6,6,3,,,,,,,,,,,,,,,,,,,,,,,,,,,,,,,,,,,,,,,,310.42315263301134,310.42315263301134,310.42315263301134,310.42315263301134,310.42315263301134,310.42315263301134,310.42315263301134,310.42315263301134,310.42315263301134,310.42315263301134,a,1.2089106040075421,10,424,1,311.6601610928774,313.17424306692556,,,,,,,,,,,,,,,,,,,,,,,,,,,,,,,,,,,,,,,,,,,,,,,,,,,,,,,,,,,,,,,,,,,,,,,45561,2022-11-30_14h30.07.819,vts_reward_expectancy_bt_OFFLINE,2022.2.4,59.90253193877391,
1,0,0,0,0,1,0,0,triangle,circle,1,0,1,0,0,7,7,0,,,,,,,,,,,,,,,,,,,,,,,,,,,,,,,,,,,,,,,,313.6575575429015,313.6575575429015,313.6575575429015,313.6575575429015,313.6575575429015,313.6575575429015,313.6575575429015,313.6575575429015,313.6575575429015,313.6575575429015,l,1.2831488782539964,10,434,1,314.96185691608116,316.47733333706856,,,,,,,,,,,,,,,,,,,,,,,,,,,,,,,,,,,,,,,,,,,,,,,,,,,,,,,,,,,,,,,,,,,,,,,45561,2022-11-30_14h30.07.819,vts_reward_expectancy_bt_OFFLINE,2022.2.4,59.90253193877391,
0,0,0,1,1,0,0,0,star,triangle,1,0,1,0,0,8,8,9,,,,,,,,,,,,,,,,,,,,,,,,,,,,,,,,,,,,,,,,316.9605690841563,316.9605690841563,316.9605690841563,316.9605690841563,316.9605690841563,316.9605690841563,316.9605690841563,316.9605690841563,316.9605690841563,316.9605690841563,a,1.0963786179199815,10,444,1,318.07769012078643,319.578308316879,,,,,,,,,,,,,,,,,,,,,,,,,,,,,,,,,,,,,,,,,,,,,,,,,,,,,,,,,,,,,,,,,,,,,,,45561,2022-11-30_14h30.07.819,vts_reward_expectancy_bt_OFFLINE,2022.2.4,59.90253193877391,
0,0,1,0,0,0,0,1,hexagon,star,1,0,1,0,0,9,9,8,,,,,,,,,,,,,,,,,,,,,,,,,,,,,,,,,,,,,,,,320.0805809381418,320.0805809381418,320.0805809381418,320.0805809381418,320.0805809381418,320.0805809381418,320.0805809381418,320.0805809381418,320.0805809381418,320.0805809381418,a,1.8008773657493293,1,445,1,321.9165088539012,323.4314580829814,,,,,,,,,,,,,,,,,,,,,,,,,,,,,,,,,,,,,,,,,,,,,,,,,,,,,,,,,,,,,,,,,,,,,,,45561,2022-11-30_14h30.07.819,vts_reward_expectancy_bt_OFFLINE,2022.2.4,59.90253193877391,
1,0,0,0,0,0,0,1,triangle,star,1,0,1,0,0,10,10,2,,,,,,,,,,,,,,,,,,,,,,,,,,,,,,,,,,,,,,,,323.93159295991063,323.93159295991063,323.93159295991063,323.93159295991063,323.93159295991063,323.93159295991063,323.93159295991063,323.93159295991063,323.93159295991063,323.93159295991063,l,1.4150144662708044,10,455,1,325.37079008482397,326.88447452289984,,,,,,,,,,,,,,,,,,,,,,,,,,,,,,,,,,,,,,,,,,,,,,,,,,,,,,,,,,,,,,,,,,,,,,,45561,2022-11-30_14h30.07.819,vts_reward_expectancy_bt_OFFLINE,2022.2.4,59.90253193877391,
0,0,1,0,1,0,0,0,hexagon,triangle,1,0,1,0,0,11,11,6,,,,,,,,,,,,,,,,,,,,,,,,,,,,,,,,,,,,,,,,327.3848002590239,327.3848002590239,327.3848002590239,327.3848002590239,327.3848002590239,327.3848002590239,327.3848002590239,327.3848002590239,327.3848002590239,327.3848002590239,l,1.1688985917717218,1,456,1,328.58533010911196,330.08771507116035,,,,,,,,,,,,,,,,,,,,,,,,,,,,,,,,,,,,,,,,,,,,,,,,,,,,,,,,,,,,,,,,,,,,,,,45561,2022-11-30_14h30.07.819,vts_reward_expectancy_bt_OFFLINE,2022.2.4,59.90253193877391,
1,0,0,0,0,0,0,1,triangle,star,1,0,1,0,1,0,12,2,,,,,,,,,,,,,,,,,,,,,,,,,,,,,,,,,,,,,,,,330.58767888182774,330.58767888182774,330.58767888182774,330.58767888182774,330.58767888182774,330.58767888182774,330.58767888182774,330.58767888182774,330.58767888182774,330.58767888182774,l,1.611078348942101,10,466,1,332.2248820317909,333.738964645192,,,,,,,,,,,,,,,,,,,,,,,,,,,,,,,,,,,,,,,,,,,,,,,,,,,,,,,,,,,,,,,,,,,,,,,45561,2022-11-30_14h30.07.819,vts_reward_expectancy_bt_OFFLINE,2022.2.4,59.90253193877391,
0,0,0,1,0,1,0,0,star ,circle,1,0,1,0,1,1,13,10,,,,,,,,,,,,,,,,,,,,,,,,,,,,,,,,,,,,,,,,334.239301207941,334.239301207941,334.239301207941,334.239301207941,334.239301207941,334.239301207941,334.239301207941,334.239301207941,334.239301207941,334.239301207941,l,2.4365630438551307,10,476,1,336.70834004692733,338.2085773679428,338.2085773679428,338.70878863008693,,,,,,,,,,,,,,,,,,,,,,,,,,,,,,,,,,,,,,,,,,,,,,,,,,,,,,,,,,,,,,,,,,,,,45561,2022-11-30_14h30.07.819,vts_reward_expectancy_bt_OFFLINE,2022.2.4,59.90253193877391,
0,0,0,1,1,0,0,0,star,triangle,1,0,1,0,1,2,14,9,,,,,,,,,,,,,,,,,,,,,,,,,,,,,,,,,,,,,,,,338.70878863008693,338.70878863008693,338.70878863008693,338.70878863008693,338.70878863008693,338.70878863008693,338.70878863008693,338.70878863008693,338.70878863008693,338.70878863008693,a,1.0162748540751636,10,486,1,339.74286550004035,341.2455172580667,,,,,,,,,,,,,,,,,,,,,,,,,,,,,,,,,,,,,,,,,,,,,,,,,,,,,,,,,,,,,,,,,,,,,,,45561,2022-11-30_14h30.07.819,vts_reward_expectancy_bt_OFFLINE,2022.2.4,59.90253193877391,
0,0,1,0,1,0,0,0,hexagon,triangle,1,0,1,0,1,3,15,6,,,,,,,,,,,,,,,,,,,,,,,,,,,,,,,,,,,,,,,,341.74575733114034,341.74575733114034,341.74575733114034,341.74575733114034,341.74575733114034,341.74575733114034,341.74575733114034,341.74575733114034,341.74575733114034,341.74575733114034,a,3.2219048752449453,10,496,1,344.99860263615847,346.49910240713507,346.49910240713507,,,,,,,,,,,,,,,,,,,,,,,,,,,,,,,,,,,,,,,,,,,,,,,,,,,,,,,,,,,,,,,,,,,,,,45561,2022-11-30_14h30.07.819,vts_reward_expectancy_bt_OFFLINE,2022.2.4,59.90253193877391,
0,1,0,0,1,0,0,0,circle,triangle,1,0,1,0,1,4,16,3,,,,,,,,,,,,,,,,,,,,,,,,,,,,,,,,,,,,,,,,346.99917862704024,346.99917862704024,346.99917862704024,346.99917862704024,346.99917862704024,346.99917862704024,346.99917862704024,346.99917862704024,346.99917862704024,346.99917862704024,a,1.5912466207519174,10,506,1,348.6188060180284,350.11865243315697,,,,,,,,,,,,,,,,,,,,,,,,,,,,,,,,,,,,,,,,,,,,,,,,,,,,,,,,,,,,,,,,,,,,,,,45561,2022-11-30_14h30.07.819,vts_reward_expectancy_bt_OFFLINE,2022.2.4,59.90253193877391,
1,0,0,0,0,0,1,0,triangle,hexagon,1,0,1,0,1,5,17,1,,,,,,,,,,,,,,,,,,,,,,,,,,,,,,,,,,,,,,,,350.61872264090925,350.61872264090925,350.61872264090925,350.61872264090925,350.61872264090925,350.61872264090925,350.61872264090925,350.61872264090925,350.61872264090925,350.61872264090925,l,2.5737678059376776,1,507,1,353.2211423488334,354.72031206591055,,,,,,,,,,,,,,,,,,,,,,,,,,,,,,,,,,,,,,,,,,,,,,,,,,,,,,,,,,,,,,,,,,,,,,,45561,2022-11-30_14h30.07.819,vts_reward_expectancy_bt_OFFLINE,2022.2.4,59.90253193877391,
1,0,0,0,0,1,0,0,triangle,circle,1,0,1,0,1,6,18,0,,,,,,,,,,,,,,,,,,,,,,,,,,,,,,,,,,,,,,,,355.2221657880582,355.2221657880582,355.2221657880582,355.2221657880582,355.2221657880582,355.2221657880582,355.2221657880582,355.2221657880582,355.2221657880582,355.2221657880582,l,2.1445716763846576,10,517,1,357.391048762016,358.8904066318646,358.8904066318646,359.3906890018843,,,,,,,,,,,,,,,,,,,,,,,,,,,,,,,,,,,,,,,,,,,,,,,,,,,,,,,,,,,,,,,,,,,,,45561,2022-11-30_14h30.07.819,vts_reward_expectancy_bt_OFFLINE,2022.2.4,59.90253193877391,
0,0,0,1,0,0,1,0,star,hexagon,1,0,1,0,1,7,19,11,,,,,,,,,,,,,,,,,,,,,,,,,,,,,,,,,,,,,,,,359.3906890018843,359.3906890018843,359.3906890018843,359.3906890018843,359.3906890018843,359.3906890018843,359.3906890018843,359.3906890018843,359.3906890018843,359.3906890018843,a,1.2163114729337394,10,527,1,360.6258550779894,362.12671198602766,,,,,,,,,,,,,,,,,,,,,,,,,,,,,,,,,,,,,,,,,,,,,,,,,,,,,,,,,,,,,,,,,,,,,,,45561,2022-11-30_14h30.07.819,vts_reward_expectancy_bt_OFFLINE,2022.2.4,59.90253193877391,
0,1,0,0,0,0,1,0,circle,hexagon,1,0,1,0,1,8,20,4,,,,,,,,,,,,,,,,,,,,,,,,,,,,,,,,,,,,,,,,362.6267919600941,362.6267919600941,362.6267919600941,362.6267919600941,362.6267919600941,362.6267919600941,362.6267919600941,362.6267919600941,362.6267919600941,362.6267919600941,a,1.2198818023316562,10,537,1,363.88039198191836,365.3795080371201,,,,,,,,,,,,,,,,,,,,,,,,,,,,,,,,,,,,,,,,,,,,,,,,,,,,,,,,,,,,,,,,,,,,,,,45561,2022-11-30_14h30.07.819,vts_reward_expectancy_bt_OFFLINE,2022.2.4,59.90253193877391,
0,0,1,0,0,0,0,1,hexagon,star,1,0,1,0,1,9,21,8,,,,,,,,,,,,,,,,,,,,,,,,,,,,,,,,,,,,,,,,365.8796686339192,365.8796686339192,365.8796686339192,365.8796686339192,365.8796686339192,365.8796686339192,365.8796686339192,365.8796686339192,365.8796686339192,365.8796686339192,l,0.9711528643965721,1,538,1,366.8812758740969,368.3805072051473,368.3805072051473,368.8807711158879,,,,,,,,,,,,,,,,,,,,,,,,,,,,,,,,,,,,,,,,,,,,,,,,,,,,,,,,,,,,,,,,,,,,,45561,2022-11-30_14h30.07.819,vts_reward_expectancy_bt_OFFLINE,2022.2.4,59.90253193877391,
0,1,0,0,0,0,0,1,circle,star,1,0,1,0,1,10,22,5,,,,,,,,,,,,,,,,,,,,,,,,,,,,,,,,,,,,,,,,368.8807711158879,368.8807711158879,368.8807711158879,368.8807711158879,368.8807711158879,368.8807711158879,368.8807711158879,368.8807711158879,368.8807711158879,368.8807711158879,a,2.0992003241553903,10,548,1,371.0036185341887,372.5175450257957,,,,,,,,,,,,,,,,,,,,,,,,,,,,,,,,,,,,,,,,,,,,,,,,,,,,,,,,,,,,,,,,,,,,,,,45561,2022-11-30_14h30.07.819,vts_reward_expectancy_bt_OFFLINE,2022.2.4,59.90253193877391,
0,0,1,0,0,1,0,0,hexagon,circle,1,0,1,0,1,11,23,7,,,,,,,,,,,,,,,,,,,,,,,,,,,,,,,,,,,,,,,,373.01745367096737,373.01745367096737,373.01745367096737,373.01745367096737,373.01745367096737,373.01745367096737,373.01745367096737,373.01745367096737,373.01745367096737,373.01745367096737,l,1.0891732489690185,10,558,1,374.13687930908054,375.63686599303037,,,,,,,,,,,,,,,,,,,,,,,,,,,,,,,,,,,,,,,,,,,,,,,,,,,,,,,,,,,,,,,,,,,,,,,45561,2022-11-30_14h30.07.819,vts_reward_expectancy_bt_OFFLINE,2022.2.4,59.90253193877391,
0,0,0,1,1,0,0,0,star,triangle,1,0,1,0,2,0,24,9,,,,,,,,,,,,,,,,,,,,,,,,,,,,,,,,,,,,,,,,376.13718993216753,376.13718993216753,376.13718993216753,376.13718993216753,376.13718993216753,376.13718993216753,376.13718993216753,376.13718993216753,376.13718993216753,376.13718993216753,a,1.1983371302485466,10,568,1,377.35635554092005,378.87176099885255,,,,,,,,,,,,,,,,,,,,,,,,,,,,,,,,,,,,,,,,,,,,,,,,,,,,,,,,,,,,,,,,,,,,,,,45561,2022-11-30_14h30.07.819,vts_reward_expectancy_bt_OFFLINE,2022.2.4,59.90253193877391,
0,0,1,0,1,0,0,0,hexagon,triangle,1,0,1,0,2,1,25,6,,,,,,,,,,,,,,,,,,,,,,,,,,,,,,,,,,,,,,,,379.3719461718574,379.3719461718574,379.3719461718574,379.3719461718574,379.3719461718574,379.3719461718574,379.3719461718574,379.3719461718574,379.3719461718574,379.3719461718574,a,3.6787640708498657,1,569,1,383.0764172449708,384.57559383893386,384.57559383893386,,,,,,,,,,,,,,,,,,,,,,,,,,,,,,,,,,,,,,,,,,,,,,,,,,,,,,,,,,,,,,,,,,,,,,45561,2022-11-30_14h30.07.819,vts_reward_expectancy_bt_OFFLINE,2022.2.4,59.90253193877391,
1,0,0,0,0,1,0,0,triangle,circle,1,0,1,0,2,2,26,0,,,,,,,,,,,,,,,,,,,,,,,,,,,,,,,,,,,,,,,,385.07768518896773,385.07768518896773,385.07768518896773,385.07768518896773,385.07768518896773,385.07768518896773,385.07768518896773,385.07768518896773,385.07768518896773,385.07768518896773,l,0.9894206910394132,1,570,1,386.09433844080195,387.59508883720264,387.59508883720264,,,,,,,,,,,,,,,,,,,,,,,,,,,,,,,,,,,,,,,,,,,,,,,,,,,,,,,,,,,,,,,,,,,,,,45561,2022-11-30_14h30.07.819,vts_reward_expectancy_bt_OFFLINE,2022.2.4,59.90253193877391,
0,0,1,0,0,0,0,1,hexagon,star,1,0,1,0,2,3,27,8,,,,,,,,,,,,,,,,,,,,,,,,,,,,,,,,,,,,,,,,388.095036953222,388.095036953222,388.095036953222,388.095036953222,388.095036953222,388.095036953222,388.095036953222,388.095036953222,388.095036953222,388.095036953222,l,3.314958503935486,10,580,1,391.4329072609544,392.9323920030147,392.9323920030147,393.4324592179619,,,,,,,,,,,,,,,,,,,,,,,,,,,,,,,,,,,,,,,,,,,,,,,,,,,,,,,,,,,,,,,,,,,,,45561,2022-11-30_14h30.07.819,vts_reward_expectancy_bt_OFFLINE,2022.2.4,59.90253193877391,
0,1,0,0,1,0,0,0,circle,triangle,1,0,1,0,2,4,28,3,,,,,,,,,,,,,,,,,,,,,,,,,,,,,,,,,,,,,,,,393.4324592179619,393.4324592179619,393.4324592179619,393.4324592179619,393.4324592179619,393.4324592179619,393.4324592179619,393.4324592179619,393.4324592179619,393.4324592179619,a,0.9701045393012464,10,590,1,394.4330186052248,395.9352484359406,,,,,,,,,,,,,,,,,,,,,,,,,,,,,,,,,,,,,,,,,,,,,,,,,,,,,,,,,,,,,,,,,,,,,,,45561,2022-11-30_14h30.07.819,vts_reward_expectancy_bt_OFFLINE,2022.2.4,59.90253193877391,
0,1,0,0,0,0,0,1,circle,star,1,0,1,0,2,5,29,5,,,,,,,,,,,,,,,,,,,,,,,,,,,,,,,,,,,,,,,,396.4357550861314,396.4357550861314,396.4357550861314,396.4357550861314,396.4357550861314,396.4357550861314,396.4357550861314,396.4357550861314,396.4357550861314,396.4357550861314,l,0.9370861947536469,10,600,1,397.4177157417871,398.9198494851589,,,,,,,,,,,,,,,,,,,,,,,,,,,,,,,,,,,,,,,,,,,,,,,,,,,,,,,,,,,,,,,,,,,,,,,45561,2022-11-30_14h30.07.819,vts_reward_expectancy_bt_OFFLINE,2022.2.4,59.90253193877391,
0,0,1,0,0,1,0,0,hexagon,circle,1,0,1,0,2,6,30,7,,,,,,,,,,,,,,,,,,,,,,,,,,,,,,,,,,,,,,,,399.4198002368212,399.4198002368212,399.4198002368212,399.4198002368212,399.4198002368212,399.4198002368212,399.4198002368212,399.4198002368212,399.4198002368212,399.4198002368212,l,4.557033823337406,1,601,1,404.00785884819925,405.50873115379363,,,,,,,,,,,,,,,,,,,,,,,,,,,,,,,,,,,,,,,,,,,,,,,,,,,,,,,,,,,,,,,,,,,,,,,45561,2022-11-30_14h30.07.819,vts_reward_expectancy_bt_OFFLINE,2022.2.4,59.90253193877391,
1,0,0,0,0,0,1,0,triangle,hexagon,1,0,1,0,2,7,31,1,,,,,,,,,,,,,,,,,,,,,,,,,,,,,,,,,,,,,,,,406.00908505078405,406.00908505078405,406.00908505078405,406.00908505078405,406.00908505078405,406.00908505078405,406.00908505078405,406.00908505078405,406.00908505078405,406.00908505078405,l,3.548586266115308,1,602,1,409.57950970111415,411.0792781948112,,,,,,,,,,,,,,,,,,,,,,,,,,,,,,,,,,,,,,,,,,,,,,,,,,,,,,,,,,,,,,,,,,,,,,,45561,2022-11-30_14h30.07.819,vts_reward_expectancy_bt_OFFLINE,2022.2.4,59.90253193877391,
1,0,0,0,0,0,0,1,triangle,star,1,0,1,0,2,8,32,2,,,,,,,,,,,,,,,,,,,,,,,,,,,,,,,,,,,,,,,,411.5795313329436,411.5795313329436,411.5795313329436,411.5795313329436,411.5795313329436,411.5795313329436,411.5795313329436,411.5795313329436,411.5795313329436,411.5795313329436,l,1.4211740233004093,10,612,1,413.03331783320755,414.5474637937732,,,,,,,,,,,,,,,,,,,,,,,,,,,,,,,,,,,,,,,,,,,,,,,,,,,,,,,,,,,,,,,,,,,,,,,45561,2022-11-30_14h30.07.819,vts_reward_expectancy_bt_OFFLINE,2022.2.4,59.90253193877391,
0,1,0,0,0,0,1,0,circle,hexagon,1,0,1,0,2,9,33,4,,,,,,,,,,,,,,,,,,,,,,,,,,,,,,,,,,,,,,,,415.03252633986995,415.03252633986995,415.03252633986995,415.03252633986995,415.03252633986995,415.03252633986995,415.03252633986995,415.03252633986995,415.03252633986995,415.03252633986995,a,0.8699991763569415,10,622,1,415.9329120782204,417.43322809413075,417.43322809413075,417.93350876821205,,,,,,,,,,,,,,,,,,,,,,,,,,,,,,,,,,,,,,,,,,,,,,,,,,,,,,,,,,,,,,,,,,,,,45561,2022-11-30_14h30.07.819,vts_reward_expectancy_bt_OFFLINE,2022.2.4,59.90253193877391,
0,0,0,1,0,1,0,0,star ,circle,1,0,1,0,2,10,34,10,,,,,,,,,,,,,,,,,,,,,,,,,,,,,,,,,,,,,,,,417.93350876821205,417.93350876821205,417.93350876821205,417.93350876821205,417.93350876821205,417.93350876821205,417.93350876821205,417.93350876821205,417.93350876821205,417.93350876821205,l,0.7364336331374943,10,632,1,418.7160221040249,420.2031133468263,,,,,,,,,,,,,,,,,,,,,,,,,,,,,,,,,,,,,,,,,,,,,,,,,,,,,,,,,,,,,,,,,,,,,,,45561,2022-11-30_14h30.07.819,vts_reward_expectancy_bt_OFFLINE,2022.2.4,59.90253193877391,
0,0,0,1,0,0,1,0,star,hexagon,1,0,1,0,2,11,35,11,,,,,,,,,,,,,,,,,,,,,,,,,,,,,,,,,,,,,,,,420.70305875502527,420.70305875502527,420.70305875502527,420.70305875502527,420.70305875502527,420.70305875502527,420.70305875502527,420.70305875502527,420.70305875502527,420.70305875502527,l,1.6918125203810632,1,633,1,422.4221490989439,423.92084801988676,423.92084801988676,,,,,,,,,,,,,,,,,,,,,,,,,,,,,,,,,,,,,,,,,,,,,,,,,,,,,,,,,,,,,,,,,,,,,,45561,2022-11-30_14h30.07.819,vts_reward_expectancy_bt_OFFLINE,2022.2.4,59.90253193877391,
0,1,0,0,0,0,0,1,circle,star,1,0,1,0,3,0,36,5,,,,,,,,,,,,,,,,,,,,,,,,,,,,,,,,,,,,,,,,424.4211064670235,424.4211064670235,424.4211064670235,424.4211064670235,424.4211064670235,424.4211064670235,424.4211064670235,424.4211064670235,424.4211064670235,424.4211064670235,a,1.2807219098322093,1,634,1,425.72637969022617,427.2405415959656,,,,,,,,,,,,,,,,,,,,,,,,,,,,,,,,,,,,,,,,,,,,,,,,,,,,,,,,,,,,,,,,,,,,,,,45561,2022-11-30_14h30.07.819,vts_reward_expectancy_bt_OFFLINE,2022.2.4,59.90253193877391,
1,0,0,0,0,1,0,0,triangle,circle,1,0,1,0,3,1,37,0,,,,,,,,,,,,,,,,,,,,,,,,,,,,,,,,,,,,,,,,427.7406494622119,427.7406494622119,427.7406494622119,427.7406494622119,427.7406494622119,427.7406494622119,427.7406494622119,427.7406494622119,427.7406494622119,427.7406494622119,l,1.010743800085038,10,644,1,428.7780144959688,430.2766093830578,,,,,,,,,,,,,,,,,,,,,,,,,,,,,,,,,,,,,,,,,,,,,,,,,,,,,,,,,,,,,,,,,,,,,,,45561,2022-11-30_14h30.07.819,vts_reward_expectancy_bt_OFFLINE,2022.2.4,59.90253193877391,
0,1,0,0,0,0,1,0,circle,hexagon,1,0,1,0,3,2,38,4,,,,,,,,,,,,,,,,,,,,,,,,,,,,,,,,,,,,,,,,430.7769823400304,430.7769823400304,430.7769823400304,430.7769823400304,430.7769823400304,430.7769823400304,430.7769823400304,430.7769823400304,430.7769823400304,430.7769823400304,a,4.65742585202679,10,654,1,435.4641863461584,436.9646692601964,436.9646692601964,437.46511861821637,,,,,,,,,,,,,,,,,,,,,,,,,,,,,,,,,,,,,,,,,,,,,,,,,,,,,,,,,,,,,,,,,,,,,45561,2022-11-30_14h30.07.819,vts_reward_expectancy_bt_OFFLINE,2022.2.4,59.90253193877391,
1,0,0,0,0,0,1,0,triangle,hexagon,1,0,1,0,3,3,39,1,,,,,,,,,,,,,,,,,,,,,,,,,,,,,,,,,,,,,,,,437.46511861821637,437.46511861821637,437.46511861821637,437.46511861821637,437.46511861821637,437.46511861821637,437.46511861821637,437.46511861821637,437.46511861821637,437.46511861821637,a,7.127493774984032,10,664,1,444.6192649928853,446.1215649158694,,,,,,,,,,,,,,,,,,,,,,,,,,,,,,,,,,,,,,,,,,,,,,,,,,,,,,,,,,,,,,,,,,,,,,,45561,2022-11-30_14h30.07.819,vts_reward_expectancy_bt_OFFLINE,2022.2.4,59.90253193877391,
1,0,0,0,0,0,0,1,triangle,star,1,0,1,0,3,4,40,2,,,,,,,,,,,,,,,,,,,,,,,,,,,,,,,,,,,,,,,,446.6220033830032,446.6220033830032,446.6220033830032,446.6220033830032,446.6220033830032,446.6220033830032,446.6220033830032,446.6220033830032,446.6220033830032,446.6220033830032,l,1.165435170289129,10,674,1,447.80539320316166,449.3057393860072,449.3057393860072,449.8059830139391,,,,,,,,,,,,,,,,,,,,,,,,,,,,,,,,,,,,,,,,,,,,,,,,,,,,,,,,,,,,,,,,,,,,,45561,2022-11-30_14h30.07.819,vts_reward_expectancy_bt_OFFLINE,2022.2.4,59.90253193877391,
0,0,1,0,1,0,0,0,hexagon,triangle,1,0,1,0,3,5,41,6,,,,,,,,,,,,,,,,,,,,,,,,,,,,,,,,,,,,,,,,449.8059830139391,449.8059830139391,449.8059830139391,449.8059830139391,449.8059830139391,449.8059830139391,449.8059830139391,449.8059830139391,449.8059830139391,449.8059830139391,l,1.8170599420554936,10,684,1,451.6418467601761,453.1424372601323,453.1424372601323,453.6423953571357,,,,,,,,,,,,,,,,,,,,,,,,,,,,,,,,,,,,,,,,,,,,,,,,,,,,,,,,,,,,,,,,,,,,,45561,2022-11-30_14h30.07.819,vts_reward_expectancy_bt_OFFLINE,2022.2.4,59.90253193877391,
0,0,0,1,0,0,1,0,star,hexagon,1,0,1,0,3,6,42,11,,,,,,,,,,,,,,,,,,,,,,,,,,,,,,,,,,,,,,,,453.6423953571357,453.6423953571357,453.6423953571357,453.6423953571357,453.6423953571357,453.6423953571357,453.6423953571357,453.6423953571357,453.6423953571357,453.6423953571357,a,1.2444689208641648,10,694,1,454.9075013799593,456.41201078891754,,,,,,,,,,,,,,,,,,,,,,,,,,,,,,,,,,,,,,,,,,,,,,,,,,,,,,,,,,,,,,,,,,,,,,,45561,2022-11-30_14h30.07.819,vts_reward_expectancy_bt_OFFLINE,2022.2.4,59.90253193877391,
0,1,0,0,1,0,0,0,circle,triangle,1,0,1,0,3,7,43,3,,,,,,,,,,,,,,,,,,,,,,,,,,,,,,,,,,,,,,,,456.9123326218687,456.9123326218687,456.9123326218687,456.9123326218687,456.9123326218687,456.9123326218687,456.9123326218687,456.9123326218687,456.9123326218687,456.9123326218687,a,1.3159024687483907,10,704,1,458.2495445101522,459.7633686149493,,,,,,,,,,,,,,,,,,,,,,,,,,,,,,,,,,,,,,,,,,,,,,,,,,,,,,,,,,,,,,,,,,,,,,,45561,2022-11-30_14h30.07.819,vts_reward_expectancy_bt_OFFLINE,2022.2.4,59.90253193877391,
0,0,1,0,0,1,0,0,hexagon,circle,1,0,1,0,3,8,44,7,,,,,,,,,,,,,,,,,,,,,,,,,,,,,,,,,,,,,,,,460.24852355383337,460.24852355383337,460.24852355383337,460.24852355383337,460.24852355383337,460.24852355383337,460.24852355383337,460.24852355383337,460.24852355383337,460.24852355383337,l,1.4444547751918435,10,714,1,461.71893797116354,463.23324252292514,,,,,,,,,,,,,,,,,,,,,,,,,,,,,,,,,,,,,,,,,,,,,,,,,,,,,,,,,,,,,,,,,,,,,,,45561,2022-11-30_14h30.07.819,vts_reward_expectancy_bt_OFFLINE,2022.2.4,59.90253193877391,
0,0,1,0,0,0,0,1,hexagon,star,1,0,1,0,3,9,45,8,,,,,,,,,,,,,,,,,,,,,,,,,,,,,,,,,,,,,,,,463.73332142084837,463.73332142084837,463.73332142084837,463.73332142084837,463.73332142084837,463.73332142084837,463.73332142084837,463.73332142084837,463.73332142084837,463.73332142084837,l,1.5031629498116672,10,724,1,465.2689720601775,466.7695578071289,466.7695578071289,467.2696179258637,,,,,,,,,,,,,,,,,,,,,,,,,,,,,,,,,,,,,,,,,,,,,,,,,,,,,,,,,,,,,,,,,,,,,45561,2022-11-30_14h30.07.819,vts_reward_expectancy_bt_OFFLINE,2022.2.4,59.90253193877391,
0,0,0,1,1,0,0,0,star,triangle,1,0,1,0,3,10,46,9,,,,,,,,,,,,,,,,,,,,,,,,,,,,,,,,,,,,,,,,467.2696179258637,467.2696179258637,467.2696179258637,467.2696179258637,467.2696179258637,467.2696179258637,467.2696179258637,467.2696179258637,467.2696179258637,467.2696179258637,a,2.489871044177562,10,734,1,469.78758126404136,471.2897141240537,,,,,,,,,,,,,,,,,,,,,,,,,,,,,,,,,,,,,,,,,,,,,,,,,,,,,,,,,,,,,,,,,,,,,,,45561,2022-11-30_14h30.07.819,vts_reward_expectancy_bt_OFFLINE,2022.2.4,59.90253193877391,
0,0,0,1,0,1,0,0,star ,circle,1,0,1,0,3,11,47,10,,,,,,,,,,,,,,,,,,,,,,,,,,,,,,,,,,,,,,,,471.789943382144,471.789943382144,471.789943382144,471.789943382144,471.789943382144,471.789943382144,471.789943382144,471.789943382144,471.789943382144,471.789943382144,l,2.2225931552238762,1,735,1,474.0437555927783,475.54304468119517,,,,,,,,,,,,,,,,,,,,,,,,,,,,,,,,,,,,,,,,,,,,,,,,,,,,,,,,,,,,,,,,,,,,,,,45561,2022-11-30_14h30.07.819,vts_reward_expectancy_bt_OFFLINE,2022.2.4,59.90253193877391,
0,1,0,0,0,0,0,1,circle,star,2,0,2,0,0,0,0,5,,,,,,,,,,,,,,,,,,,,,,,,,,,,,,,,,,,,,,,,479.9089992372319,479.9089992372319,479.9089992372319,479.9089992372319,479.9089992372319,479.9089992372319,479.9089992372319,479.9089992372319,479.9089992372319,479.9089992372319,a,2.1242149909958243,10,745,2,482.06386125599965,483.56444278918207,483.56444278918207,484.06450680084527,,,,,,,,,,,,,,,,,,,,,,,,,,,,,,,,,,,,,,,,,,,,,,,,,,,,,,,,,,,,,,,,,,,,,45561,2022-11-30_14h30.07.819,vts_reward_expectancy_bt_OFFLINE,2022.2.4,59.90253193877391,
0,0,1,0,0,1,0,0,hexagon,circle,2,0,2,0,0,1,1,7,,,,,,,,,,,,,,,,,,,,,,,,,,,,,,,,,,,,,,,,484.06450680084527,484.06450680084527,484.06450680084527,484.06450680084527,484.06450680084527,484.06450680084527,484.06450680084527,484.06450680084527,484.06450680084527,484.06450680084527,l,1.0522709330543876,10,755,2,485.13681380590424,486.6509315120056,,,,,,,,,,,,,,,,,,,,,,,,,,,,,,,,,,,,,,,,,,,,,,,,,,,,,,,,,,,,,,,,,,,,,,,45561,2022-11-30_14h30.07.819,vts_reward_expectancy_bt_OFFLINE,2022.2.4,59.90253193877391,
0,1,0,0,0,0,1,0,circle,hexagon,2,0,2,0,0,2,2,4,,,,,,,,,,,,,,,,,,,,,,,,,,,,,,,,,,,,,,,,487.15131918899715,487.15131918899715,487.15131918899715,487.15131918899715,487.15131918899715,487.15131918899715,487.15131918899715,487.15131918899715,487.15131918899715,487.15131918899715,a,0.9242959413677454,10,765,2,488.1015436151065,489.602075480856,489.602075480856,,,,,,,,,,,,,,,,,,,,,,,,,,,,,,,,,,,,,,,,,,,,,,,,,,,,,,,,,,,,,,,,,,,,,,45561,2022-11-30_14h30.07.819,vts_reward_expectancy_bt_OFFLINE,2022.2.4,59.90253193877391,
0,1,0,0,1,0,0,0,circle,triangle,2,0,2,0,0,3,3,3,,,,,,,,,,,,,,,,,,,,,,,,,,,,,,,,,,,,,,,,490.1038153441623,490.1038153441623,490.1038153441623,490.1038153441623,490.1038153441623,490.1038153441623,490.1038153441623,490.1038153441623,490.1038153441623,490.1038153441623,a,0.6947422199882567,1,766,2,490.8241275739856,492.33829044597223,,,,,,,,,,,,,,,,,,,,,,,,,,,,,,,,,,,,,,,,,,,,,,,,,,,,,,,,,,,,,,,,,,,,,,,45561,2022-11-30_14h30.07.819,vts_reward_expectancy_bt_OFFLINE,2022.2.4,59.90253193877391,
0,0,0,1,0,1,0,0,star ,circle,2,0,2,0,0,4,4,10,,,,,,,,,,,,,,,,,,,,,,,,,,,,,,,,,,,,,,,,492.8384576588869,492.8384576588869,492.8384576588869,492.8384576588869,492.8384576588869,492.8384576588869,492.8384576588869,492.8384576588869,492.8384576588869,492.8384576588869,l,1.8862876486964524,10,776,2,494.7588991462253,496.2582457768731,,,,,,,,,,,,,,,,,,,,,,,,,,,,,,,,,,,,,,,,,,,,,,,,,,,,,,,,,,,,,,,,,,,,,,,45561,2022-11-30_14h30.07.819,vts_reward_expectancy_bt_OFFLINE,2022.2.4,59.90253193877391,
1,0,0,0,0,1,0,0,triangle,circle,2,0,2,0,0,5,5,0,,,,,,,,,,,,,,,,,,,,,,,,,,,,,,,,,,,,,,,,496.75848418381065,496.75848418381065,496.75848418381065,496.75848418381065,496.75848418381065,496.75848418381065,496.75848418381065,496.75848418381065,496.75848418381065,496.75848418381065,a,2.207121452782303,1,777,2,498.993614426814,500.49439664697275,,,,,,,,,,,,,,,,,,,,,,,,,,,,,,,,,,,,,,,,,,,,,,,,,,,,,,,,,,,,,,,,,,,,,,,45561,2022-11-30_14h30.07.819,vts_reward_expectancy_bt_OFFLINE,2022.2.4,59.90253193877391,
0,0,0,1,0,0,1,0,star,hexagon,2,0,2,0,0,6,6,11,,,,,,,,,,,,,,,,,,,,,,,,,,,,,,,,,,,,,,,,500.9946190142073,500.9946190142073,500.9946190142073,500.9946190142073,500.9946190142073,500.9946190142073,500.9946190142073,500.9946190142073,500.9946190142073,500.9946190142073,a,1.9085183469578624,10,787,2,502.93210623180494,504.4458975759335,,,,,,,,,,,,,,,,,,,,,,,,,,,,,,,,,,,,,,,,,,,,,,,,,,,,,,,,,,,,,,,,,,,,,,,45561,2022-11-30_14h30.07.819,vts_reward_expectancy_bt_OFFLINE,2022.2.4,59.90253193877391,
1,0,0,0,0,0,1,0,triangle,hexagon,2,0,2,0,0,7,7,1,,,,,,,,,,,,,,,,,,,,,,,,,,,,,,,,,,,,,,,,504.94364972319454,504.94364972319454,504.94364972319454,504.94364972319454,504.94364972319454,504.94364972319454,504.94364972319454,504.94364972319454,504.94364972319454,504.94364972319454,a,1.7511405050754547,1,788,2,506.71735220309347,508.23249604320154,,,,,,,,,,,,,,,,,,,,,,,,,,,,,,,,,,,,,,,,,,,,,,,,,,,,,,,,,,,,,,,,,,,,,,,45561,2022-11-30_14h30.07.819,vts_reward_expectancy_bt_OFFLINE,2022.2.4,59.90253193877391,
0,0,1,0,1,0,0,0,hexagon,triangle,2,0,2,0,0,8,8,6,,,,,,,,,,,,,,,,,,,,,,,,,,,,,,,,,,,,,,,,508.73263791482896,508.73263791482896,508.73263791482896,508.73263791482896,508.73263791482896,508.73263791482896,508.73263791482896,508.73263791482896,508.73263791482896,508.73263791482896,a,1.4383437628857791,10,798,2,510.2050574668683,511.718993477989,,,,,,,,,,,,,,,,,,,,,,,,,,,,,,,,,,,,,,,,,,,,,,,,,,,,,,,,,,,,,,,,,,,,,,,45561,2022-11-30_14h30.07.819,vts_reward_expectancy_bt_OFFLINE,2022.2.4,59.90253193877391,
1,0,0,0,0,0,0,1,triangle,star,2,0,2,0,0,9,9,2,,,,,,,,,,,,,,,,,,,,,,,,,,,,,,,,,,,,,,,,512.2195024979301,512.2195024979301,512.2195024979301,512.2195024979301,512.2195024979301,512.2195024979301,512.2195024979301,512.2195024979301,512.2195024979301,512.2195024979301,l,2.958544267807156,10,808,2,515.2208286961541,516.7058933400549,,,,,,,,,,,,,,,,,,,,,,,,,,,,,,,,,,,,,,,,,,,,,,,,,,,,,,,,,,,,,,,,,,,,,,,45561,2022-11-30_14h30.07.819,vts_reward_expectancy_bt_OFFLINE,2022.2.4,59.90253193877391,
0,0,1,0,0,0,0,1,hexagon,star,2,0,2,0,0,10,10,8,,,,,,,,,,,,,,,,,,,,,,,,,,,,,,,,,,,,,,,,517.2059965580702,517.2059965580702,517.2059965580702,517.2059965580702,517.2059965580702,517.2059965580702,517.2059965580702,517.2059965580702,517.2059965580702,517.2059965580702,l,2.967679171357304,10,818,2,520.1923072920181,521.6928257658146,521.6928257658146,522.1929600317962,,,,,,,,,,,,,,,,,,,,,,,,,,,,,,,,,,,,,,,,,,,,,,,,,,,,,,,,,,,,,,,,,,,,,45561,2022-11-30_14h30.07.819,vts_reward_expectancy_bt_OFFLINE,2022.2.4,59.90253193877391,
0,0,0,1,1,0,0,0,star,triangle,2,0,2,0,0,11,11,9,,,,,,,,,,,,,,,,,,,,,,,,,,,,,,,,,,,,,,,,522.1929600317962,522.1929600317962,522.1929600317962,522.1929600317962,522.1929600317962,522.1929600317962,522.1929600317962,522.1929600317962,522.1929600317962,522.1929600317962,a,1.4912024638615549,1,819,2,523.7116289371625,525.2127358890139,,,,,,,,,,,,,,,,,,,,,,,,,,,,,,,,,,,,,,,,,,,,,,,,,,,,,,,,,,,,,,,,,,,,,,,45561,2022-11-30_14h30.07.819,vts_reward_expectancy_bt_OFFLINE,2022.2.4,59.90253193877391,
0,0,1,0,0,1,0,0,hexagon,circle,2,0,2,0,1,0,12,7,,,,,,,,,,,,,,,,,,,,,,,,,,,,,,,,,,,,,,,,525.7126319659874,525.7126319659874,525.7126319659874,525.7126319659874,525.7126319659874,525.7126319659874,525.7126319659874,525.7126319659874,525.7126319659874,525.7126319659874,l,1.6168168932199478,10,829,2,527.3502312358469,528.8640007241629,,,,,,,,,,,,,,,,,,,,,,,,,,,,,,,,,,,,,,,,,,,,,,,,,,,,,,,,,,,,,,,,,,,,,,,45561,2022-11-30_14h30.07.819,vts_reward_expectancy_bt_OFFLINE,2022.2.4,59.90253193877391,
0,0,1,0,1,0,0,0,hexagon,triangle,2,0,2,0,1,1,13,6,,,,,,,,,,,,,,,,,,,,,,,,,,,,,,,,,,,,,,,,529.3639985988848,529.3639985988848,529.3639985988848,529.3639985988848,529.3639985988848,529.3639985988848,529.3639985988848,529.3639985988848,529.3639985988848,529.3639985988848,l,3.1853515873663127,1,830,2,532.5690278639086,534.0844676089473,,,,,,,,,,,,,,,,,,,,,,,,,,,,,,,,,,,,,,,,,,,,,,,,,,,,,,,,,,,,,,,,,,,,,,,45561,2022-11-30_14h30.07.819,vts_reward_expectancy_bt_OFFLINE,2022.2.4,59.90253193877391,
1,0,0,0,0,0,1,0,triangle,hexagon,2,0,2,0,1,2,14,1,,,,,,,,,,,,,,,,,,,,,,,,,,,,,,,,,,,,,,,,534.5847807531245,534.5847807531245,534.5847807531245,534.5847807531245,534.5847807531245,534.5847807531245,534.5847807531245,534.5847807531245,534.5847807531245,534.5847807531245,a,1.1596641428768635,1,831,2,535.7725847619586,537.2876830268651,,,,,,,,,,,,,,,,,,,,,,,,,,,,,,,,,,,,,,,,,,,,,,,,,,,,,,,,,,,,,,,,,,,,,,,45561,2022-11-30_14h30.07.819,vts_reward_expectancy_bt_OFFLINE,2022.2.4,59.90253193877391,
0,0,0,1,0,1,0,0,star ,circle,2,0,2,0,1,3,15,10,,,,,,,,,,,,,,,,,,,,,,,,,,,,,,,,,,,,,,,,537.7876397641376,537.7876397641376,537.7876397641376,537.7876397641376,537.7876397641376,537.7876397641376,537.7876397641376,537.7876397641376,537.7876397641376,537.7876397641376,a,0.9940965650603175,1,832,2,538.8077461430803,540.3068423629738,,,,,,,,,,,,,,,,,,,,,,,,,,,,,,,,,,,,,,,,,,,,,,,,,,,,,,,,,,,,,,,,,,,,,,,45561,2022-11-30_14h30.07.819,vts_reward_expectancy_bt_OFFLINE,2022.2.4,59.90253193877391,
0,0,1,0,0,0,0,1,hexagon,star,2,0,2,0,1,4,16,8,,,,,,,,,,,,,,,,,,,,,,,,,,,,,,,,,,,,,,,,540.8070171149448,540.8070171149448,540.8070171149448,540.8070171149448,540.8070171149448,540.8070171149448,540.8070171149448,540.8070171149448,540.8070171149448,540.8070171149448,a,1.1932226312346756,1,833,2,542.0270492350683,543.541297481861,,,,,,,,,,,,,,,,,,,,,,,,,,,,,,,,,,,,,,,,,,,,,,,,,,,,,,,,,,,,,,,,,,,,,,,45561,2022-11-30_14h30.07.819,vts_reward_expectancy_bt_OFFLINE,2022.2.4,59.90253193877391,
1,0,0,0,0,1,0,0,triangle,circle,2,0,2,0,1,5,17,0,,,,,,,,,,,,,,,,,,,,,,,,,,,,,,,,,,,,,,,,544.0249243760481,544.0249243760481,544.0249243760481,544.0249243760481,544.0249243760481,544.0249243760481,544.0249243760481,544.0249243760481,544.0249243760481,544.0249243760481,l,1.3378947358578444,10,843,2,545.3974726730958,546.9110825029202,,,,,,,,,,,,,,,,,,,,,,,,,,,,,,,,,,,,,,,,,,,,,,,,,,,,,,,,,,,,,,,,,,,,,,,45561,2022-11-30_14h30.07.819,vts_reward_expectancy_bt_OFFLINE,2022.2.4,59.90253193877391,
1,0,0,0,0,0,0,1,triangle,star,2,0,2,0,1,6,18,2,,,,,,,,,,,,,,,,,,,,,,,,,,,,,,,,,,,,,,,,547.3949682028033,547.3949682028033,547.3949682028033,547.3949682028033,547.3949682028033,547.3949682028033,547.3949682028033,547.3949682028033,547.3949682028033,547.3949682028033,l,1.7029262939468026,10,853,2,549.1288501061499,550.6307921279222,,,,,,,,,,,,,,,,,,,,,,,,,,,,,,,,,,,,,,,,,,,,,,,,,,,,,,,,,,,,,,,,,,,,,,,45561,2022-11-30_14h30.07.819,vts_reward_expectancy_bt_OFFLINE,2022.2.4,59.90253193877391,
0,1,0,0,1,0,0,0,circle,triangle,2,0,2,0,1,7,19,3,,,,,,,,,,,,,,,,,,,,,,,,,,,,,,,,,,,,,,,,551.131096273195,551.131096273195,551.131096273195,551.131096273195,551.131096273195,551.131096273195,551.131096273195,551.131096273195,551.131096273195,551.131096273195,a,1.3094117413274944,10,863,2,552.4650143398903,553.9653410972096,553.9653410972096,554.4655484650284,,,,,,,,,,,,,,,,,,,,,,,,,,,,,,,,,,,,,,,,,,,,,,,,,,,,,,,,,,,,,,,,,,,,,45561,2022-11-30_14h30.07.819,vts_reward_expectancy_bt_OFFLINE,2022.2.4,59.90253193877391,
0,0,0,1,0,0,1,0,star,hexagon,2,0,2,0,1,8,20,11,,,,,,,,,,,,,,,,,,,,,,,,,,,,,,,,,,,,,,,,554.4655484650284,554.4655484650284,554.4655484650284,554.4655484650284,554.4655484650284,554.4655484650284,554.4655484650284,554.4655484650284,554.4655484650284,554.4655484650284,a,0.8660022751428187,10,873,2,555.351505573839,556.8520306581631,556.8520306581631,,,,,,,,,,,,,,,,,,,,,,,,,,,,,,,,,,,,,,,,,,,,,,,,,,,,,,,,,,,,,,,,,,,,,,45561,2022-11-30_14h30.07.819,vts_reward_expectancy_bt_OFFLINE,2022.2.4,59.90253193877391,
0,0,0,1,1,0,0,0,star,triangle,2,0,2,0,1,9,21,9,,,,,,,,,,,,,,,,,,,,,,,,,,,,,,,,,,,,,,,,557.3520167130046,557.3520167130046,557.3520167130046,557.3520167130046,557.3520167130046,557.3520167130046,557.3520167130046,557.3520167130046,557.3520167130046,557.3520167130046,a,2.0518850120715797,1,874,2,559.4360086601228,560.9383664461784,,,,,,,,,,,,,,,,,,,,,,,,,,,,,,,,,,,,,,,,,,,,,,,,,,,,,,,,,,,,,,,,,,,,,,,45561,2022-11-30_14h30.07.819,vts_reward_expectancy_bt_OFFLINE,2022.2.4,59.90253193877391,
0,1,0,0,0,0,0,1,circle,star,2,0,2,0,1,10,22,5,,,,,,,,,,,,,,,,,,,,,,,,,,,,,,,,,,,,,,,,561.4385567810386,561.4385567810386,561.4385567810386,561.4385567810386,561.4385567810386,561.4385567810386,561.4385567810386,561.4385567810386,561.4385567810386,561.4385567810386,a,1.7236915989778936,10,884,2,563.1910875970498,564.7066284311004,,,,,,,,,,,,,,,,,,,,,,,,,,,,,,,,,,,,,,,,,,,,,,,,,,,,,,,,,,,,,,,,,,,,,,,45561,2022-11-30_14h30.07.819,vts_reward_expectancy_bt_OFFLINE,2022.2.4,59.90253193877391,
0,1,0,0,0,0,1,0,circle,hexagon,2,0,2,0,1,11,23,4,,,,,,,,,,,,,,,,,,,,,,,,,,,,,,,,,,,,,,,,565.1915431818925,565.1915431818925,565.1915431818925,565.1915431818925,565.1915431818925,565.1915431818925,565.1915431818925,565.1915431818925,565.1915431818925,565.1915431818925,a,0.7938872519880533,10,894,2,566.0089984899387,567.5096111069433,567.5096111069433,,,,,,,,,,,,,,,,,,,,,,,,,,,,,,,,,,,,,,,,,,,,,,,,,,,,,,,,,,,,,,,,,,,,,,45561,2022-11-30_14h30.07.819,vts_reward_expectancy_bt_OFFLINE,2022.2.4,59.90253193877391,
0,0,0,1,0,0,1,0,star,hexagon,2,0,2,0,2,0,24,11,,,,,,,,,,,,,,,,,,,,,,,,,,,,,,,,,,,,,,,,568.0095152659342,568.0095152659342,568.0095152659342,568.0095152659342,568.0095152659342,568.0095152659342,568.0095152659342,568.0095152659342,568.0095152659342,568.0095152659342,a,1.2280138251371682,10,904,2,569.2598810209893,570.7626081351191,,,,,,,,,,,,,,,,,,,,,,,,,,,,,,,,,,,,,,,,,,,,,,,,,,,,,,,,,,,,,,,,,,,,,,,45561,2022-11-30_14h30.07.819,vts_reward_expectancy_bt_OFFLINE,2022.2.4,59.90253193877391,
1,0,0,0,0,0,0,1,triangle,star,2,0,2,0,2,1,25,2,,,,,,,,,,,,,,,,,,,,,,,,,,,,,,,,,,,,,,,,571.2627378897741,571.2627378897741,571.2627378897741,571.2627378897741,571.2627378897741,571.2627378897741,571.2627378897741,571.2627378897741,571.2627378897741,571.2627378897741,l,1.4952823841013014,10,914,2,572.7830580659211,574.2967317258008,,,,,,,,,,,,,,,,,,,,,,,,,,,,,,,,,,,,,,,,,,,,,,,,,,,,,,,,,,,,,,,,,,,,,,,45561,2022-11-30_14h30.07.819,vts_reward_expectancy_bt_OFFLINE,2022.2.4,59.90253193877391,
0,0,1,0,0,1,0,0,hexagon,circle,2,0,2,0,2,2,26,7,,,,,,,,,,,,,,,,,,,,,,,,,,,,,,,,,,,,,,,,574.7968435958028,574.7968435958028,574.7968435958028,574.7968435958028,574.7968435958028,574.7968435958028,574.7968435958028,574.7968435958028,574.7968435958028,574.7968435958028,l,1.8655868410132825,10,924,2,576.683349867817,578.1832093629055,578.1832093629055,578.683345137164,,,,,,,,,,,,,,,,,,,,,,,,,,,,,,,,,,,,,,,,,,,,,,,,,,,,,,,,,,,,,,,,,,,,,45561,2022-11-30_14h30.07.819,vts_reward_expectancy_bt_OFFLINE,2022.2.4,59.90253193877391,
1,0,0,0,0,1,0,0,triangle,circle,2,0,2,0,2,3,27,0,,,,,,,,,,,,,,,,,,,,,,,,,,,,,,,,,,,,,,,,578.683345137164,578.683345137164,578.683345137164,578.683345137164,578.683345137164,578.683345137164,578.683345137164,578.683345137164,578.683345137164,578.683345137164,l,1.1968628000468016,10,934,2,579.900630151853,581.4030480938964,,,,,,,,,,,,,,,,,,,,,,,,,,,,,,,,,,,,,,,,,,,,,,,,,,,,,,,,,,,,,,,,,,,,,,,45561,2022-11-30_14h30.07.819,vts_reward_expectancy_bt_OFFLINE,2022.2.4,59.90253193877391,
0,0,1,0,1,0,0,0,hexagon,triangle,2,0,2,0,2,4,28,6,,,,,,,,,,,,,,,,,,,,,,,,,,,,,,,,,,,,,,,,581.9034043191932,581.9034043191932,581.9034043191932,581.9034043191932,581.9034043191932,581.9034043191932,581.9034043191932,581.9034043191932,581.9034043191932,581.9034043191932,l,3.084626601077616,1,935,2,585.0170644489117,586.5238676401787,,,,,,,,,,,,,,,,,,,,,,,,,,,,,,,,,,,,,,,,,,,,,,,,,,,,,,,,,,,,,,,,,,,,,,,45561,2022-11-30_14h30.07.819,vts_reward_expectancy_bt_OFFLINE,2022.2.4,59.90253193877391,
0,0,1,0,0,0,0,1,hexagon,star,2,0,2,0,2,5,29,8,,,,,,,,,,,,,,,,,,,,,,,,,,,,,,,,,,,,,,,,587.0238147969358,587.0238147969358,587.0238147969358,587.0238147969358,587.0238147969358,587.0238147969358,587.0238147969358,587.0238147969358,587.0238147969358,587.0238147969358,l,1.2939612432383,10,945,2,588.3440205729567,589.8578244000673,,,,,,,,,,,,,,,,,,,,,,,,,,,,,,,,,,,,,,,,,,,,,,,,,,,,,,,,,,,,,,,,,,,,,,,45561,2022-11-30_14h30.07.819,vts_reward_expectancy_bt_OFFLINE,2022.2.4,59.90253193877391,
0,1,0,0,0,0,0,1,circle,star,2,0,2,0,2,6,30,5,,,,,,,,,,,,,,,,,,,,,,,,,,,,,,,,,,,,,,,,590.3430754179135,590.3430754179135,590.3430754179135,590.3430754179135,590.3430754179135,590.3430754179135,590.3430754179135,590.3430754179135,590.3430754179135,590.3430754179135,a,1.6997196772135794,10,955,2,592.0606036549434,593.5609797597863,593.5609797597863,,,,,,,,,,,,,,,,,,,,,,,,,,,,,,,,,,,,,,,,,,,,,,,,,,,,,,,,,,,,,,,,,,,,,,45561,2022-11-30_14h30.07.819,vts_reward_expectancy_bt_OFFLINE,2022.2.4,59.90253193877391,
0,0,0,1,0,1,0,0,star ,circle,2,0,2,0,2,7,31,10,,,,,,,,,,,,,,,,,,,,,,,,,,,,,,,,,,,,,,,,594.0613419250585,594.0613419250585,594.0613419250585,594.0613419250585,594.0613419250585,594.0613419250585,594.0613419250585,594.0613419250585,594.0613419250585,594.0613419250585,l,2.54799269605428,10,965,2,596.6309774359688,598.1314291520976,598.1314291520976,598.6315652150661,,,,,,,,,,,,,,,,,,,,,,,,,,,,,,,,,,,,,,,,,,,,,,,,,,,,,,,,,,,,,,,,,,,,,45561,2022-11-30_14h30.07.819,vts_reward_expectancy_bt_OFFLINE,2022.2.4,59.90253193877391,
1,0,0,0,0,0,1,0,triangle,hexagon,2,0,2,0,2,8,32,1,,,,,,,,,,,,,,,,,,,,,,,,,,,,,,,,,,,,,,,,598.6315652150661,598.6315652150661,598.6315652150661,598.6315652150661,598.6315652150661,598.6315652150661,598.6315652150661,598.6315652150661,598.6315652150661,598.6315652150661,a,2.0740257939323783,1,966,2,600.7363000661135,602.2511344770901,,,,,,,,,,,,,,,,,,,,,,,,,,,,,,,,,,,,,,,,,,,,,,,,,,,,,,,,,,,,,,,,,,,,,,,45561,2022-11-30_14h30.07.819,vts_reward_expectancy_bt_OFFLINE,2022.2.4,59.90253193877391,
0,1,0,0,0,0,1,0,circle,hexagon,2,0,2,0,2,9,33,4,,,,,,,,,,,,,,,,,,,,,,,,,,,,,,,,,,,,,,,,602.7513525458053,602.7513525458053,602.7513525458053,602.7513525458053,602.7513525458053,602.7513525458053,602.7513525458053,602.7513525458053,602.7513525458053,602.7513525458053,a,0.8339065443724394,10,976,2,603.6054716170765,605.1040431340225,,,,,,,,,,,,,,,,,,,,,,,,,,,,,,,,,,,,,,,,,,,,,,,,,,,,,,,,,,,,,,,,,,,,,,,45561,2022-11-30_14h30.07.819,vts_reward_expectancy_bt_OFFLINE,2022.2.4,59.90253193877391,
0,0,0,1,1,0,0,0,star,triangle,2,0,2,0,2,10,34,9,,,,,,,,,,,,,,,,,,,,,,,,,,,,,,,,,,,,,,,,605.603941229172,605.603941229172,605.603941229172,605.603941229172,605.603941229172,605.603941229172,605.603941229172,605.603941229172,605.603941229172,605.603941229172,a,2.86467343615368,10,986,2,608.4890454788692,609.9894155818038,609.9894155818038,,,,,,,,,,,,,,,,,,,,,,,,,,,,,,,,,,,,,,,,,,,,,,,,,,,,,,,,,,,,,,,,,,,,,,45561,2022-11-30_14h30.07.819,vts_reward_expectancy_bt_OFFLINE,2022.2.4,59.90253193877391,
0,1,0,0,1,0,0,0,circle,triangle,2,0,2,0,2,11,35,3,,,,,,,,,,,,,,,,,,,,,,,,,,,,,,,,,,,,,,,,610.4913064669818,610.4913064669818,610.4913064669818,610.4913064669818,610.4913064669818,610.4913064669818,610.4913064669818,610.4913064669818,610.4913064669818,610.4913064669818,a,1.104591656010598,1,987,2,611.6274140728638,613.142467183061,,,,,,,,,,,,,,,,,,,,,,,,,,,,,,,,,,,,,,,,,,,,,,,,,,,,,,,,,,,,,,,,,,,,,,,45561,2022-11-30_14h30.07.819,vts_reward_expectancy_bt_OFFLINE,2022.2.4,59.90253193877391,
0,0,1,0,1,0,0,0,hexagon,triangle,2,0,2,0,3,0,36,6,,,,,,,,,,,,,,,,,,,,,,,,,,,,,,,,,,,,,,,,613.6426242240705,613.6426242240705,613.6426242240705,613.6426242240705,613.6426242240705,613.6426242240705,613.6426242240705,613.6426242240705,613.6426242240705,613.6426242240705,l,1.3846969068981707,10,997,2,615.0535372467712,616.5621948759072,,,,,,,,,,,,,,,,,,,,,,,,,,,,,,,,,,,,,,,,,,,,,,,,,,,,,,,,,,,,,,,,,,,,,,,45561,2022-11-30_14h30.07.819,vts_reward_expectancy_bt_OFFLINE,2022.2.4,59.90253193877391,
0,0,0,1,0,0,1,0,star,hexagon,2,0,2,0,3,1,37,11,,,,,,,,,,,,,,,,,,,,,,,,,,,,,,,,,,,,,,,,617.0624141842127,617.0624141842127,617.0624141842127,617.0624141842127,617.0624141842127,617.0624141842127,617.0624141842127,617.0624141842127,617.0624141842127,617.0624141842127,a,2.1607781248167157,10,1007,2,619.2464017048478,620.7487804209813,,,,,,,,,,,,,,,,,,,,,,,,,,,,,,,,,,,,,,,,,,,,,,,,,,,,,,,,,,,,,,,,,,,,,,,45561,2022-11-30_14h30.07.819,vts_reward_expectancy_bt_OFFLINE,2022.2.4,59.90253193877391,
0,0,1,0,0,1,0,0,hexagon,circle,2,0,2,0,3,2,38,7,,,,,,,,,,,,,,,,,,,,,,,,,,,,,,,,,,,,,,,,621.2489636600949,621.2489636600949,621.2489636600949,621.2489636600949,621.2489636600949,621.2489636600949,621.2489636600949,621.2489636600949,621.2489636600949,621.2489636600949,l,0.821002365089953,1,1008,2,622.10152380215,623.6161033599637,,,,,,,,,,,,,,,,,,,,,,,,,,,,,,,,,,,,,,,,,,,,,,,,,,,,,,,,,,,,,,,,,,,,,,,45561,2022-11-30_14h30.07.819,vts_reward_expectancy_bt_OFFLINE,2022.2.4,59.90253193877391,
0,0,1,0,0,0,0,1,hexagon,star,2,0,2,0,3,3,39,8,,,,,,,,,,,,,,,,,,,,,,,,,,,,,,,,,,,,,,,,624.1160812368616,624.1160812368616,624.1160812368616,624.1160812368616,624.1160812368616,624.1160812368616,624.1160812368616,624.1160812368616,624.1160812368616,624.1160812368616,l,1.7898722561076283,10,1018,2,625.9377575549297,627.4531947141513,,,,,,,,,,,,,,,,,,,,,,,,,,,,,,,,,,,,,,,,,,,,,,,,,,,,,,,,,,,,,,,,,,,,,,,45561,2022-11-30_14h30.07.819,vts_reward_expectancy_bt_OFFLINE,2022.2.4,59.90253193877391,
0,0,0,1,0,1,0,0,star ,circle,2,0,2,0,3,4,40,10,,,,,,,,,,,,,,,,,,,,,,,,,,,,,,,,,,,,,,,,627.936178245116,627.936178245116,627.936178245116,627.936178245116,627.936178245116,627.936178245116,627.936178245116,627.936178245116,627.936178245116,627.936178245116,l,1.9304963662289083,10,1028,2,629.8872727490962,631.3894527112134,,,,,,,,,,,,,,,,,,,,,,,,,,,,,,,,,,,,,,,,,,,,,,,,,,,,,,,,,,,,,,,,,,,,,,,45561,2022-11-30_14h30.07.819,vts_reward_expectancy_bt_OFFLINE,2022.2.4,59.90253193877391,
1,0,0,0,0,0,1,0,triangle,hexagon,2,0,2,0,3,5,41,1,,,,,,,,,,,,,,,,,,,,,,,,,,,,,,,,,,,,,,,,631.8895841510966,631.8895841510966,631.8895841510966,631.8895841510966,631.8895841510966,631.8895841510966,631.8895841510966,631.8895841510966,631.8895841510966,631.8895841510966,l,2.0378692941740155,1,1029,2,633.959450871218,635.4595184652135,,,,,,,,,,,,,,,,,,,,,,,,,,,,,,,,,,,,,,,,,,,,,,,,,,,,,,,,,,,,,,,,,,,,,,,45561,2022-11-30_14h30.07.819,vts_reward_expectancy_bt_OFFLINE,2022.2.4,59.90253193877391,
0,1,0,0,0,0,0,1,circle,star,2,0,2,0,3,6,42,5,,,,,,,,,,,,,,,,,,,,,,,,,,,,,,,,,,,,,,,,635.9596935431473,635.9596935431473,635.9596935431473,635.9596935431473,635.9596935431473,635.9596935431473,635.9596935431473,635.9596935431473,635.9596935431473,635.9596935431473,l,1.5682766628451645,10,1039,2,637.5608900701627,639.0606274041347,639.0606274041347,639.5608628671616,,,,,,,,,,,,,,,,,,,,,,,,,,,,,,,,,,,,,,,,,,,,,,,,,,,,,,,,,,,,,,,,,,,,,45561,2022-11-30_14h30.07.819,vts_reward_expectancy_bt_OFFLINE,2022.2.4,59.90253193877391,
1,0,0,0,0,0,0,1,triangle,star,2,0,2,0,3,7,43,2,,,,,,,,,,,,,,,,,,,,,,,,,,,,,,,,,,,,,,,,639.5608628671616,639.5608628671616,639.5608628671616,639.5608628671616,639.5608628671616,639.5608628671616,639.5608628671616,639.5608628671616,639.5608628671616,639.5608628671616,l,1.814384686294943,10,1049,2,641.3968665869907,642.8971851980314,642.8971851980314,643.3968974291347,,,,,,,,,,,,,,,,,,,,,,,,,,,,,,,,,,,,,,,,,,,,,,,,,,,,,,,,,,,,,,,,,,,,,45561,2022-11-30_14h30.07.819,vts_reward_expectancy_bt_OFFLINE,2022.2.4,59.90253193877391,
0,1,0,0,1,0,0,0,circle,triangle,2,0,2,0,3,8,44,3,,,,,,,,,,,,,,,,,,,,,,,,,,,,,,,,,,,,,,,,643.3968974291347,643.3968974291347,643.3968974291347,643.3968974291347,643.3968974291347,643.3968974291347,643.3968974291347,643.3968974291347,643.3968974291347,643.3968974291347,a,0.8604103559628129,1,1050,2,644.2835076721385,645.783285416197,,,,,,,,,,,,,,,,,,,,,,,,,,,,,,,,,,,,,,,,,,,,,,,,,,,,,,,,,,,,,,,,,,,,,,,45561,2022-11-30_14h30.07.819,vts_reward_expectancy_bt_OFFLINE,2022.2.4,59.90253193877391,
0,0,0,1,1,0,0,0,star,triangle,2,0,2,0,3,9,45,9,,,,,,,,,,,,,,,,,,,,,,,,,,,,,,,,,,,,,,,,646.2835314758122,646.2835314758122,646.2835314758122,646.2835314758122,646.2835314758122,646.2835314758122,646.2835314758122,646.2835314758122,646.2835314758122,646.2835314758122,a,0.8297216589562595,1,1051,2,647.1345209442079,648.6344327800907,648.6344327800907,649.1343997088261,,,,,,,,,,,,,,,,,,,,,,,,,,,,,,,,,,,,,,,,,,,,,,,,,,,,,,,,,,,,,,,,,,,,,45561,2022-11-30_14h30.07.819,vts_reward_expectancy_bt_OFFLINE,2022.2.4,59.90253193877391,
0,1,0,0,0,0,1,0,circle,hexagon,2,0,2,0,3,10,46,4,,,,,,,,,,,,,,,,,,,,,,,,,,,,,,,,,,,,,,,,649.1343997088261,649.1343997088261,649.1343997088261,649.1343997088261,649.1343997088261,649.1343997088261,649.1343997088261,649.1343997088261,649.1343997088261,649.1343997088261,a,1.1861491529271007,10,1061,2,650.3402213258669,651.8541589300148,,,,,,,,,,,,,,,,,,,,,,,,,,,,,,,,,,,,,,,,,,,,,,,,,,,,,,,,,,,,,,,,,,,,,,,45561,2022-11-30_14h30.07.819,vts_reward_expectancy_bt_OFFLINE,2022.2.4,59.90253193877391,
1,0,0,0,0,1,0,0,triangle,circle,2,0,2,0,3,11,47,0,,,,,,,,,,,,,,,,,,,,,,,,,,,,,,,,,,,,,,,,652.3541660471819,652.3541660471819,652.3541660471819,652.3541660471819,652.3541660471819,652.3541660471819,652.3541660471819,652.3541660471819,652.3541660471819,652.3541660471819,l,1.3299487084150314,10,1071,2,653.7052074139938,655.2069192570634,,,,,,,,,,,,,,,,,,,,,,,,,,,,,,,,,,,,,,,,,,,,,,,,,,,,,,,,,,,,,,,,,,,,,,,45561,2022-11-30_14h30.07.819,vts_reward_expectancy_bt_OFFLINE,2022.2.4,59.90253193877391,
,,,,,,,,,,,,,,,,,,0,0,0,0,0,0,0,0,,,,,,,,,,,,,,,,,,,,,,,,,,,,,,,,,,,,,,,,,,,,,,,,701.3737188298255,,,U,181,triangle,0.0021932199597358704,696.3326432420872,697.8204943020828,697.8204943020828,697.8204943020828,1,0,f,2.025166967883706,0,699.874807361979,,,,,,,,,,,,,,,,,,,,,,,,,,,,,,,,,,,,,,,,,,,,,,,,,,,,,,,45561,2022-11-30_14h30.07.819,vts_reward_expectancy_bt_OFFLINE,2022.2.4,59.90253193877391,
,,,,,,,,,,,,,,,,,,0,0,0,0,1,0,1,0,,,,,,,,,,,,,,,,,,,,,,,,,,,,,,,,,,,,,,,,,,,,,,,,706.4936742312275,,,H,160,hexagon,0.002216366119682789,702.3704735138454,703.8578652129509,703.8578652129509,703.8578652129509,1,0,d,1.117088162805885,0,704.9927071970887,,,,,,,,,,,,,,,,,,,,,,,,,,,,,,,,,,,,,,,,,,,,,,,,,,,,,,,45561,2022-11-30_14h30.07.819,vts_reward_expectancy_bt_OFFLINE,2022.2.4,59.90253193877391,
,,,,,,,,,,,,,,,,,,0,0,0,0,2,0,2,0,,,,,,,,,,,,,,,,,,,,,,,,,,,,,,,,,,,,,,,,,,,,,,,,711.3807898070663,,,Y,125,star,0.0015968610532581806,707.4904766660184,708.9781672111712,708.9781672111712,708.9781672111712,1,0,f,0.8801362528465688,0,709.8793044569902,,,,,,,,,,,,,,,,,,,,,,,,,,,,,,,,,,,,,,,,,,,,,,,,,,,,,,,45561,2022-11-30_14h30.07.819,vts_reward_expectancy_bt_OFFLINE,2022.2.4,59.90253193877391,
,,,,,,,,,,,,,,,,,,0,0,0,0,3,0,3,0,,,,,,,,,,,,,,,,,,,,,,,,,,,,,,,,,,,,,,,,,,,,,,,,716.5181679781526,,,S,167,circle,0.0021216399036347866,712.3770775999874,713.8651598012075,713.8651598012075,713.8651598012075,1,0,f,1.1228700154460967,0,715.0163552849554,,,,,,,,,,,,,,,,,,,,,,,,,,,,,,,,,,,,,,,,,,,,,,,,,,,,,,,45561,2022-11-30_14h30.07.819,vts_reward_expectancy_bt_OFFLINE,2022.2.4,59.90253193877391,
,,,,,,,,,,,,,,,,,,0,0,0,0,4,0,4,0,,,,,,,,,,,,,,,,,,,,,,,,,,,,,,,,,,,,,,,,,,,,,,,,721.3880662131123,,,F,139,star,0.0019171247258782387,717.5146464807913,719.0022541689686,719.0022541689686,719.0022541689686,1,0,d,0.8579203779809177,0,719.8864920279011,,,,,,,,,,,,,,,,,,,,,,,,,,,,,,,,,,,,,,,,,,,,,,,,,,,,,,,45561,2022-11-30_14h30.07.819,vts_reward_expectancy_bt_OFFLINE,2022.2.4,59.90253193877391,
,,,,,,,,,,,,,,,,,,0,0,0,0,5,0,5,0,,,,,,,,,,,,,,,,,,,,,,,,,,,,,,,,,,,,,,,,,,,,,,,,726.525380463805,,,D,174,triangle,0.0024749687872827053,722.3848995980807,723.8724066200666,723.8724066200666,723.8724066200666,1,0,d,1.1287135551683605,0,725.0237970408052,,,,,,,,,,,,,,,,,,,,,,,,,,,,,,,,,,,,,,,,,,,,,,,,,,,,,,,45561,2022-11-30_14h30.07.819,vts_reward_expectancy_bt_OFFLINE,2022.2.4,59.90253193877391,
,,,,,,,,,,,,,,,,,,0,0,0,0,6,0,6,0,,,,,,,,,,,,,,,,,,,,,,,,,,,,,,,,,,,,,,,,,,,,,,,,731.4452913068235,,,B,132,circle,0.001634345855563879,727.5215075919405,729.0094074318185,729.0094074318185,729.0094074318185,1,0,d,0.9095010212622583,0,729.94386153901,,,,,,,,,,,,,,,,,,,,,,,,,,,,,,,,,,,,,,,,,,,,,,,,,,,,,,,45561,2022-11-30_14h30.07.819,vts_reward_expectancy_bt_OFFLINE,2022.2.4,59.90253193877391,
,,,,,,,,,,,,,,,,,,0,0,0,0,7,0,7,0,,,,,,,,,,,,,,,,,,,,,,,,,,,,,,,,,,,,,,,,,,,,,,,,737.0994635592215,,737.5995201319456,W,146,hexagon,0.0022288691252470016,732.4417909667827,733.9294468560256,733.9294468560256,733.9294468560256,1,0,f,1.6472647967748344,0,735.5994967408478,737.0994635592215,,,,,,,,,,,,,,,,,,,,,,,,,,,,,,,,,,,,,,,,,,,,,,,,,,,,,,45561,2022-11-30_14h30.07.819,vts_reward_expectancy_bt_OFFLINE,2022.2.4,59.90253193877391,
,,,,,,,,,,,,,,,,,,0,0,0,0,8,0,8,0,,,,,,,,,,,,,,,,,,,,,,,,,,,,,,,,,,,,,,,,,,,,,,,,743.0698411348276,,743.5697273327969,U,181,star,0.0005687596276402473,738.0952949300408,739.5834877770394,739.5834877770394,739.5834877770394,1,0,f,1.967480103019625,0,741.5699225421995,743.0698411348276,,,,,,,,,,,,,,,,,,,,,,,,,,,,,,,,,,,,,,,,,,,,,,,,,,,,,,45561,2022-11-30_14h30.07.819,vts_reward_expectancy_bt_OFFLINE,2022.2.4,59.90253193877391,
,,,,,,,,,,,,,,,,,,0,0,0,0,9,0,9,0,,,,,,,,,,,,,,,,,,,,,,,,,,,,,,,,,,,,,,,,,,,,,,,,748.8406081120484,,749.3506079898216,H,160,hexagon,0.0004003872163593769,744.0661992998794,745.5561413541436,745.5561413541436,745.5561413541436,1,0,d,1.7660404010675848,0,747.3409888441674,748.8406081120484,,,,,,,,,,,,,,,,,,,,,,,,,,,,,,,,,,,,,,,,,,,,,,,,,,,,,,45561,2022-11-30_14h30.07.819,vts_reward_expectancy_bt_OFFLINE,2022.2.4,59.90253193877391,
,,,,,,,,,,,,,,,,,,,,,,,,,,0,0,0,0,0,0,0,0,,,,,,,,,,,,,,,,,,,,,,,,,,,,,,,,,,,,,,,,771.0578715610318,,,F,146,star,0.002503326628357172,,,,,1,0,,,1,769.5565118500963,,766.4003476579674,767.8878106549382,767.8878106549382,767.8878106549382,j,1.6434251861646771,,,,,,,,,,,,,,,,,,,,,,,,,,,,,,,,,,,,,,,,,,,,,,,,45561,2022-11-30_14h30.07.819,vts_reward_expectancy_bt_OFFLINE,2022.2.4,59.90253193877391,
,,,,,,,,,,,,,,,,,,,,,,,,,,0,0,0,0,1,0,1,0,,,,,,,,,,,,,,,,,,,,,,,,,,,,,,,,,,,,,,,,776.2617152519524,,,H,132,hexagon,0.001810580026358366,,,,,1,0,,,1,774.759505236987,,772.0539178419858,773.5417044488713,773.5417044488713,773.5417044488713,j,1.1980187320150435,,,,,,,,,,,,,,,,,,,,,,,,,,,,,,,,,,,,,,,,,,,,,,,,45561,2022-11-30_14h30.07.819,vts_reward_expectancy_bt_OFFLINE,2022.2.4,59.90253193877391,
,,,,,,,,,,,,,,,,,,,,,,,,,,0,0,0,0,2,0,2,0,,,,,,,,,,,,,,,,,,,,,,,,,,,,,,,,,,,,,,,,781.5155044337735,,,W,139,circle,0.002251904923468828,,,,,1,0,,,1,780.0139467199333,,777.2576520461589,778.7456342759542,778.7456342759542,778.7456342759542,j,1.236727075651288,,,,,,,,,,,,,,,,,,,,,,,,,,,,,,,,,,,,,,,,,,,,,,,,45561,2022-11-30_14h30.07.819,vts_reward_expectancy_bt_OFFLINE,2022.2.4,59.90253193877391,
,,,,,,,,,,,,,,,,,,,,,,,,,,0,0,0,0,3,0,3,0,,,,,,,,,,,,,,,,,,,,,,,,,,,,,,,,,,,,,,,,786.6190044931136,,,Y,181,triangle,0.0017439397051930428,,,,,1,0,,,1,785.1172471521422,,782.5111491451971,783.9993554838002,783.9993554838002,783.9993554838002,k,1.0909233093261719,,,,,,,,,,,,,,,,,,,,,,,,,,,,,,,,,,,,,,,,,,,,,,,,45561,2022-11-30_14h30.07.819,vts_reward_expectancy_bt_OFFLINE,2022.2.4,59.90253193877391,
,,,,,,,,,,,,,,,,,,,,,,,,,,0,0,0,0,4,0,4,0,,,,,,,,,,,,,,,,,,,,,,,,,,,,,,,,,,,,,,,,791.6229517380707,,,B,167,circle,0.0020737191662192345,,,,,1,0,,,1,790.1207943828776,,787.61480299104,789.1033405382186,789.1033405382186,789.1033405382186,k,0.993728875182569,,,,,,,,,,,,,,,,,,,,,,,,,,,,,,,,,,,,,,,,,,,,,,,,45561,2022-11-30_14h30.07.819,vts_reward_expectancy_bt_OFFLINE,2022.2.4,59.90253193877391,
,,,,,,,,,,,,,,,,,,,,,,,,,,0,0,0,0,5,0,5,0,,,,,,,,,,,,,,,,,,,,,,,,,,,,,,,,,,,,,,,,796.5926886131056,,,U,160,hexagon,0.002155840862542391,,,,,1,0,,,1,795.09116481198,,792.6184682869352,794.1066332571208,794.1066332571208,794.1066332571208,k,0.9522342029958963,,,,,,,,,,,,,,,,,,,,,,,,,,,,,,,,,,,,,,,,,,,,,,,,45561,2022-11-30_14h30.07.819,vts_reward_expectancy_bt_OFFLINE,2022.2.4,59.90253193877391,
,,,,,,,,,,,,,,,,,,,,,,,,,,0,0,0,0,6,0,6,0,,,,,,,,,,,,,,,,,,,,,,,,,,,,,,,,,,,,,,,,802.5634755748324,,803.0636222357862,D,125,star,0.0026326109655201435,,,,,1,0,,,1,801.0635806778446,802.5634755748324,797.5889451690018,799.0770144457929,799.0770144457929,799.0770144457929,j,1.966586782131344,,,,,,,,,,,,,,,,,,,,,,,,,,,,,,,,,,,,,,,,,,,,,,,,45561,2022-11-30_14h30.07.819,vts_reward_expectancy_bt_OFFLINE,2022.2.4,59.90253193877391,
,,,,,,,,,,,,,,,,,,,,,,,,,,0,0,0,0,7,0,7,0,,,,,,,,,,,,,,,,,,,,,,,,,,,,,,,,,,,,,,,,807.500272939913,,808.0004504420795,S,174,triangle,0.0004813680425286293,,,,,1,0,,,1,806.0006170608103,807.500272939913,803.5594061790034,805.0477166362107,805.0477166362107,805.0477166362107,k,0.9350997591391206,,,,,,,,,,,,,,,,,,,,,,,,,,,,,,,,,,,,,,,,,,,,,,,,45561,2022-11-30_14h30.07.819,vts_reward_expectancy_bt_OFFLINE,2022.2.4,59.90253193877391,
,,,,,,,,,,,,,,,,,,,,,,,,,,0,0,0,0,8,0,8,0,,,,,,,,,,,,,,,,,,,,,,,,,,,,,,,,,,,,,,,,813.3208792167716,,813.8211105098017,F,146,circle,0.0005228393711149693,,,,,1,0,,,1,811.82053416688,813.3208792167716,808.4965637251735,809.9844353981316,809.9844353981316,809.9844353981316,j,1.8041382087394595,,,,,,,,,,,,,,,,,,,,,,,,,,,,,,,,,,,,,,,,,,,,,,,,45561,2022-11-30_14h30.07.819,vts_reward_expectancy_bt_OFFLINE,2022.2.4,59.90253193877391,
,,,,,,,,,,,,,,,,,,,,,,,,,,0,0,0,0,9,0,9,0,,,,,,,,,,,,,,,,,,,,,,,,,,,,,,,,,,,,,,,,818.7079220628366,,,H,132,star,-0.0008219461888074875,,,,,1,0,,,1,817.2080866731703,818.7079220628366,814.3285534158349,815.8071693340316,815.8071693340316,815.8071693340316,j,1.3810674510896206,,,,,,,,,,,,,,,,,,,,,,,,,,,,,,,,,,,,,,,,,,,,,,,,45561,2022-11-30_14h30.07.819,vts_reward_expectancy_bt_OFFLINE,2022.2.4,59.90253193877391,
,,,,,,,,,,,,,,,,,,,,,,,,,,,,,,,,,,0,0,0,0,0,0,0,0,,,,,,,,,,,,,,,,,,,,,,,,,,,,0,1071,,,854.3003107812256,,,H,132,triangle,0.0006615780293941498,,,,,1,0,,,2,,,,,,,,,848.9611532809213,848.9611532809213,848.9611532809213,848.9611532809213,850.4490821398795,850.4490821398795,850.4490821398795,850.4490821398795,850.4657964417711,850.4657964417711,850.4657964417711,850.4657964417711,-1,number,NA,j,2.301976432092488,vtsPrac,852.7864027051255,,,,,,,,,,,,,,,,,,,,,,,,,,,,,45561,2022-11-30_14h30.07.819,vts_reward_expectancy_bt_OFFLINE,2022.2.4,59.90253193877391,
,,,,,,,,,,,,,,,,,,,,,,,,,,,,,,,,,,0,0,0,0,1,0,1,0,,,,,,,,,,,,,,,,,,,,,,,,,,,,0,1071,,,860.154327260796,,,F,167,circle,0.015968678053468466,,,,,1,0,,,2,,,,,,,,,855.2979210950434,855.2979210950434,855.2979210950434,855.2979210950434,856.7698912601918,856.7698912601918,856.7698912601918,856.7698912601918,856.8032037070952,856.8032037070952,856.8032037070952,856.8032037070952,switch,letter,lettSwt,d,1.8542314930818975,vtsPrac,858.654404643923,860.154327260796,,,,,,,,,,,,,,,,,,,,,,,,,,,,45561,2022-11-30_14h30.07.819,vts_reward_expectancy_bt_OFFLINE,2022.2.4,59.90253193877391,
,,,,,,,,,,,,,,,,,,,,,,,,,,,,,,,,,,0,0,0,0,2,0,2,0,,,,,,,,,,,,,,,,,,,,,,,,,,,,0,1071,,,865.1412593522109,,,U,125,circle,0.002120979130268097,,,,,1,0,,,2,,,,,,,,,861.1523997900076,861.1523997900076,861.1523997900076,861.1523997900076,862.6403640350327,862.6403640350327,862.6403640350327,862.6403640350327,862.6571330958977,862.6571330958977,862.6571330958977,862.6571330958977,repeat,letter,lettRpt,f,0.9790996937081218,vtsPrac,863.64184422791,865.1412593522109,,,,,,,,,,,,,,,,,,,,,,,,,,,,45561,2022-11-30_14h30.07.819,vts_reward_expectancy_bt_OFFLINE,2022.2.4,59.90253193877391,
,,,,,,,,,,,,,,,,,,,,,,,,,,,,,,,,,,0,0,0,0,3,0,3,0,,,,,,,,,,,,,,,,,,,,,,,,,,,,0,1071,,,870.0449246908538,,,D,160,star,0.0019412683323025703,,,,,1,0,,,2,,,,,,,,,866.1390924998559,866.1390924998559,866.1390924998559,866.1390924998559,867.627246431075,867.627246431075,867.627246431075,867.627246431075,867.643915606197,867.643915606197,867.643915606197,867.643915606197,repeat,letter,lettRpt,d,0.8864643541164696,vtsPrac,868.5454298439436,870.0449246908538,,,,,,,,,,,,,,,,,,,,,,,,,,,,45561,2022-11-30_14h30.07.819,vts_reward_expectancy_bt_OFFLINE,2022.2.4,59.90253193877391,
,,,,,,,,,,,,,,,,,,,,,,,,,,,,,,,,,,0,0,0,0,4,0,4,0,,,,,,,,,,,,,,,,,,,,,,,,,,,,0,1071,,,874.881791209802,,,H,132,circle,0.00222670566290617,,,,,1,0,,,2,,,,,,,,,871.0427001272328,871.0427001272328,871.0427001272328,871.0427001272328,872.5311141181737,872.5311141181737,872.5311141181737,872.5311141181737,872.5476905079558,872.5476905079558,872.5476905079558,872.5476905079558,switch,number,numSwt,j,0.8204530710354447,vtsPrac,873.3824773658998,874.881791209802,,,,,,,,,,,,,,,,,,,,,,,,,,,,45561,2022-11-30_14h30.07.819,vts_reward_expectancy_bt_OFFLINE,2022.2.4,59.90253193877391,
,,,,,,,,,,,,,,,,,,,,,,,,,,,,,,,,,,0,0,0,0,5,0,5,0,,,,,,,,,,,,,,,,,,,,,,,,,,,,0,1071,,,880.7207227139734,,,F,167,star,0.001784815452992916,,,,,1,0,,,2,,,,,,,,,875.879690463189,875.879690463189,875.879690463189,875.879690463189,877.3678896119818,877.3678896119818,877.3678896119818,877.3678896119818,877.3844572468661,877.3844572468661,877.3844572468661,877.3844572468661,switch,letter,lettSwt,d,1.8233313579112291,vtsPrac,879.2198812197894,,,,,,,,,,,,,,,,,,,,,,,,,,,,,45561,2022-11-30_14h30.07.819,vts_reward_expectancy_bt_OFFLINE,2022.2.4,59.90253193877391,
,,,,,,,,,,,,,,,,,,,,,,,,,,,,,,,,,,0,0,0,0,6,0,6,0,,,,,,,,,,,,,,,,,,,,,,,,,,,,0,1071,,,885.574416755233,,,U,125,star,0.0013921977952122688,,,,,1,0,,,2,,,,,,,,,881.7166831959039,881.7166831959039,881.7166831959039,881.7166831959039,883.2051062551327,883.2051062551327,883.2051062551327,883.2051062551327,883.2217805548571,883.2217805548571,883.2217805548571,883.2217805548571,switch,number,numSwt,j,0.8454754780977964,vtsPrac,884.0730645521544,,,,,,,,,,,,,,,,,,,,,,,,,,,,,45561,2022-11-30_14h30.07.819,vts_reward_expectancy_bt_OFFLINE,2022.2.4,59.90253193877391,
,,,,,,,,,,,,,,,,,,,,,,,,,,,,,,,,,,0,0,0,0,7,0,7,0,,,,,,,,,,,,,,,,,,,,,,,,,,,,0,1071,,,890.5448985397816,,,D,160,hexagon,0.0018197479657828808,,,,,1,0,,,2,,,,,,,,,886.5700474549085,886.5700474549085,886.5700474549085,886.5700474549085,888.0584903280251,888.0584903280251,888.0584903280251,888.0584903280251,888.075358894188,888.075358894188,888.075358894188,888.075358894188,repeat,number,numRpt,k,0.9543306520208716,vtsPrac,889.0437036277726,,,,,,,,,,,,,,,,,,,,,,,,,,,,,45561,2022-11-30_14h30.07.819,vts_reward_expectancy_bt_OFFLINE,2022.2.4,59.90253193877391,
,,,,,,,,,,,,,,,,,,,,,,,,,,,,,,,,,,0,0,0,0,8,0,8,0,,,,,,,,,,,,,,,,,,,,,,,,,,,,0,1071,,,896.198825342115,,,D,174,star,0.0018283966928720474,,,,,1,0,,,2,,,,,,,,,891.5398150631227,891.5398150631227,891.5398150631227,891.5398150631227,893.0287234531716,893.0287234531716,893.0287234531716,893.0287234531716,893.0455002048984,893.0455002048984,893.0455002048984,893.0455002048984,repeat,number,numRpt,k,1.6436830502934754,vtsPrac,894.697261414025,,,,,,,,,,,,,,,,,,,,,,,,,,,,,45561,2022-11-30_14h30.07.819,vts_reward_expectancy_bt_OFFLINE,2022.2.4,59.90253193877391,
,,,,,,,,,,,,,,,,,,,,,,,,,,,,,,,,,,0,0,0,0,9,0,9,0,,,,,,,,,,,,,,,,,,,,,,,,,,,,0,1071,,,900.8188016298227,,,F,125,triangle,0.002087770029902458,,,,,1,0,,,2,,,,,,,,,897.1943518929183,897.1943518929183,897.1943518929183,897.1943518929183,898.6826199730858,898.6826199730858,898.6826199730858,898.6826199730858,898.6994966701604,898.6994966701604,898.6994966701604,898.6994966701604,switch,letter,lettSwt,d,0.6129807690158486,vtsPrac,899.3176607270725,,,,,,,,,,,,,,,,,,,,,,,,,,,,,45561,2022-11-30_14h30.07.819,vts_reward_expectancy_bt_OFFLINE,2022.2.4,59.90253193877391,
,,,,,,,,,,,,,,,,,,,,,,,,,,,,,,,,,,0,0,0,0,10,0,10,0,,,,,,,,,,,,,,,,,,,,,,,,,,,,0,1071,,,905.7720527141355,,,H,132,star,0.0021272427402436733,,,,,1,0,,,2,,,,,,,,,901.8147610612214,901.8147610612214,901.8147610612214,901.8147610612214,903.3029731400311,903.3029731400311,903.3029731400311,903.3029731400311,903.3196330191568,903.3196330191568,903.3196330191568,903.3196330191568,repeat,letter,lettRpt,d,0.9428846035152674,vtsPrac,904.2709460691549,,,,,,,,,,,,,,,,,,,,,,,,,,,,,45561,2022-11-30_14h30.07.819,vts_reward_expectancy_bt_OFFLINE,2022.2.4,59.90253193877391,
,,,,,,,,,,,,,,,,,,,,,,,,,,,,,,,,,,0,0,0,0,11,0,11,0,,,,,,,,,,,,,,,,,,,,,,,,,,,,0,1071,,,911.2097241901793,,,Y,160,hexagon,0.0023039369843900204,,,,,1,0,,,2,,,,,,,,,906.7685720161535,906.7685720161535,906.7685720161535,906.7685720161535,908.2565081492066,908.2565081492066,908.2565081492066,908.2565081492066,908.2733665900305,908.2733665900305,908.2733665900305,908.2733665900305,switch,number,numSwt,k,1.4226904269307852,vtsPrac,909.70822073007,,,,,,,,,,,,,,,,,,,,,,,,,,,,,45561,2022-11-30_14h30.07.819,vts_reward_expectancy_bt_OFFLINE,2022.2.4,59.90253193877391,
,,,,,,,,,,,,,,,,,,,,,,,,,,,,,,,,,,0,0,0,0,12,0,12,0,,,,,,,,,,,,,,,,,,,,,,,,,,,,0,1071,,,915.7463540909812,,,F,139,circle,0.0019620019011199474,,,,,1,0,,,2,,,,,,,,,912.2060075220652,912.2060075220652,912.2060075220652,912.2060075220652,913.6938485368155,913.6938485368155,913.6938485368155,913.6938485368155,913.7104010689072,913.7104010689072,913.7104010689072,913.7104010689072,repeat,number,numRpt,j,0.5314089651219547,vtsPrac,914.2452653478831,,,,,,,,,,,,,,,,,,,,,,,,,,,,,45561,2022-11-30_14h30.07.819,vts_reward_expectancy_bt_OFFLINE,2022.2.4,59.90253193877391,
,,,,,,,,,,,,,,,,,,,,,,,,,,,,,,,,,,0,0,0,0,13,0,13,0,,,,,,,,,,,,,,,,,,,,,,,,,,,,0,1071,,,920.4829849298112,,,W,125,star,0.0014917287044227123,,,,,1,0,,,2,,,,,,,,,916.74214759795,916.74214759795,916.74214759795,916.74214759795,918.2303769700229,918.2303769700229,918.2303769700229,918.2303769700229,918.2472725049593,918.2472725049593,918.2472725049593,918.2472725049593,repeat,number,numRpt,j,0.7316883066669106,vtsPrac,918.9824039549567,,,,,,,,,,,,,,,,,,,,,,,,,,,,,45561,2022-11-30_14h30.07.819,vts_reward_expectancy_bt_OFFLINE,2022.2.4,59.90253193877391,
,,,,,,,,,,,,,,,,,,,,,,,,,,,,,,,,,,0,0,0,0,14,0,14,0,,,,,,,,,,,,,,,,,,,,,,,,,,,,0,1071,,,925.9204537011683,,,S,160,circle,0.0019714348018169403,,,,,1,0,,,2,,,,,,,,,921.4791448581964,921.4791448581964,921.4791448581964,921.4791448581964,922.9672835171223,922.9672835171223,922.9672835171223,922.9672835171223,922.9840600169264,922.9840600169264,922.9840600169264,922.9840600169264,switch,letter,lettSwt,f,1.427532576955855,vtsPrac,924.4193395278417,,,,,,,,,,,,,,,,,,,,,,,,,,,,,45561,2022-11-30_14h30.07.819,vts_reward_expectancy_bt_OFFLINE,2022.2.4,59.90253193877391,
,,,,,,,,,,,,,,,,,,,,,,,,,,,,,,,,,,0,0,0,0,15,0,15,0,,,,,,,,,,,,,,,,,,,,,,,,,,,,0,1071,,,930.5404653111473,,,U,174,hexagon,0.001499540638178587,,,,,1,0,,,2,,,,,,,,,926.9160337341018,926.9160337341018,926.9160337341018,926.9160337341018,928.4046342112124,928.4046342112124,928.4046342112124,928.4046342112124,928.4210723941214,928.4210723941214,928.4210723941214,928.4210723941214,switch,number,numSwt,k,0.6028662570752203,vtsPrac,929.0394596778788,,,,,,,,,,,,,,,,,,,,,,,,,,,,,45561,2022-11-30_14h30.07.819,vts_reward_expectancy_bt_OFFLINE,2022.2.4,59.90253193877391,
,,,,,,,,,,,,,,,,,,,,,,,,,,,,,,,,,,0,0,0,0,16,0,16,0,,,,,,,,,,,,,,,,,,,,,,,,,,,,0,1071,,,935.3777046008036,,,U,167,star,0.002285788767039776,,,,,1,0,,,2,,,,,,,,,931.5359162418172,931.5359162418172,931.5359162418172,931.5359162418172,933.0247163358144,933.0247163358144,933.0247163358144,933.0247163358144,933.0413337908685,933.0413337908685,933.0413337908685,933.0413337908685,switch,letter,lettSwt,f,0.832143381703645,vtsPrac,933.8764142380096,,,,,,,,,,,,,,,,,,,,,,,,,,,,,45561,2022-11-30_14h30.07.819,vts_reward_expectancy_bt_OFFLINE,2022.2.4,59.90253193877391,
,,,,,,,,,,,,,,,,,,,,,,,,,,,,,,,,,,0,0,0,0,17,0,17,0,,,,,,,,,,,,,,,,,,,,,,,,,,,,0,1071,,,940.1124495090917,,,B,146,hexagon,0.0014847698621451855,,,,,1,0,,,2,,,,,,,,,936.3734641559422,936.3734641559422,936.3734641559422,936.3734641559422,937.8615062232129,937.8615062232129,937.8615062232129,937.8615062232129,937.8783556357957,937.8783556357957,937.8783556357957,937.8783556357957,repeat,letter,lettRpt,d,0.7316631092689931,vtsPrac,938.6133400038816,940.1124495090917,,,,,,,,,,,,,,,,,,,,,,,,,,,,45561,2022-11-30_14h30.07.819,vts_reward_expectancy_bt_OFFLINE,2022.2.4,59.90253193877391,
,,,,,,,,,,,,,,,,,,,,,,,,,,,,,,,,,,0,0,0,0,18,0,18,0,,,,,,,,,,,,,,,,,,,,,,,,,,,,0,1071,,,945.4012454100884,,,F,160,star,0.0016275779344141483,,,,,1,0,,,2,,,,,,,,,941.110000807792,941.110000807792,941.110000807792,941.110000807792,942.5984129388817,942.5984129388817,942.5984129388817,942.5984129388817,942.615290413145,942.615290413145,942.615290413145,942.615290413145,switch,number,numSwt,k,1.2710282909683883,vtsPrac,943.9002561848611,,,,,,,,,,,,,,,,,,,,,,,,,,,,,45561,2022-11-30_14h30.07.819,vts_reward_expectancy_bt_OFFLINE,2022.2.4,59.90253193877391,
,,,,,,,,,,,,,,,,,,,,,,,,,,,,,,,,,,0,0,0,0,19,0,19,0,,,,,,,,,,,,,,,,,,,,,,,,,,,,0,1071,,,951.1886622849852,,,S,125,hexagon,0.0019911890849471092,,,,,1,0,,,2,,,,,,,,,946.3974102041684,946.3974102041684,946.3974102041684,946.3974102041684,947.8855046168901,947.8855046168901,947.8855046168901,947.8855046168901,947.9023803411983,947.9023803411983,947.9023803411983,947.9023803411983,repeat,number,numRpt,j,1.7781446380540729,vtsPrac,949.6875033359975,,,,,,,,,,,,,,,,,,,,,,,,,,,,,45561,2022-11-30_14h30.07.819,vts_reward_expectancy_bt_OFFLINE,2022.2.4,59.90253193877391,
,,,,,,,,,,,,,,,,,,,,,,,,,,,,,,,,,,0,0,0,0,20,0,20,0,,,,,,,,,,,,,,,,,,,,,,,,,,,,0,1071,,,956.1588792749681,,,U,160,triangle,0.001926432829350233,,,,,1,0,,,2,,,,,,,,,952.1845326768234,952.1845326768234,952.1845326768234,952.1845326768234,953.6726679238491,953.6726679238491,953.6726679238491,953.6726679238491,953.689385917969,953.689385917969,953.689385917969,953.689385917969,switch,letter,lettSwt,f,0.9529635962098837,vtsPrac,954.6580808372237,,,,,,,,,,,,,,,,,,,,,,,,,,,,,45561,2022-11-30_14h30.07.819,vts_reward_expectancy_bt_OFFLINE,2022.2.4,59.90253193877391,
,,,,,,,,,,,,,,,,,,,,,,,,,,,,,,,,,,0,0,0,0,21,0,21,0,,,,,,,,,,,,,,,,,,,,,,,,,,,,0,1071,,,960.812280761078,,,S,139,circle,0.0018431851640343666,,,,,1,0,,,2,,,,,,,,,957.1551419841126,957.1551419841126,957.1551419841126,957.1551419841126,958.6429729401134,958.6429729401134,958.6429729401134,958.6429729401134,958.6597948879935,958.6597948879935,958.6597948879935,958.6597948879935,switch,number,numSwt,j,0.6403414560481906,vtsPrac,959.3111825119704,,,,,,,,,,,,,,,,,,,,,,,,,,,,,45561,2022-11-30_14h30.07.819,vts_reward_expectancy_bt_OFFLINE,2022.2.4,59.90253193877391,
,,,,,,,,,,,,,,,,,,,,,,,,,,,,,,,,,,0,0,0,0,22,0,22,0,,,,,,,,,,,,,,,,,,,,,,,,,,,,0,1071,,,965.7495201979764,,,B,181,hexagon,0.0020487732253968716,,,,,1,0,,,2,,,,,,,,,961.8088418631814,961.8088418631814,961.8088418631814,961.8088418631814,963.2966358819976,963.2966358819976,963.2966358819976,963.2966358819976,963.3133358969353,963.3133358969353,963.3133358969353,963.3133358969353,repeat,number,numRpt,k,0.9255310860462487,vtsPrac,964.2484046099707,,,,,,,,,,,,,,,,,,,,,,,,,,,,,45561,2022-11-30_14h30.07.819,vts_reward_expectancy_bt_OFFLINE,2022.2.4,59.90253193877391,
,,,,,,,,,,,,,,,,,,,,,,,,,,,,,,,,,,0,0,0,0,23,0,23,0,,,,,,,,,,,,,,,,,,,,,,,,,,,,0,1071,,,970.5695194471627,,,Y,132,triangle,0.0016378839500248432,,,,,1,0,,,2,,,,,,,,,966.7453145729378,966.7453145729378,966.7453145729378,966.7453145729378,968.2333991150372,968.2333991150372,968.2333991150372,968.2333991150372,968.2502258010209,968.2502258010209,968.2502258010209,968.2502258010209,switch,letter,lettSwt,f,0.8034854819998145,vtsPrac,969.0688567748293,,,,,,,,,,,,,,,,,,,,,,,,,,,,,45561,2022-11-30_14h30.07.819,vts_reward_expectancy_bt_OFFLINE,2022.2.4,59.90253193877391,
,,,,,,,,,,,,,,,,,,,,,,,,,,,,,,,,,,0,0,0,0,24,0,24,0,,,,,,,,,,,,,,,,,,,,,,,,,,,,0,1071,,,975.6566809248179,,,S,146,hexagon,0.0019911830313503742,,,,,1,0,,,2,,,,,,,,,971.5658307890408,971.5658307890408,971.5658307890408,971.5658307890408,973.0538755608723,973.0538755608723,973.0538755608723,973.0538755608723,973.0704312860034,973.0704312860034,973.0704312860034,973.0704312860034,repeat,letter,lettRpt,f,1.0805662320926785,vtsPrac,974.1561914151534,,,,,,,,,,,,,,,,,,,,,,,,,,,,,45561,2022-11-30_14h30.07.819,vts_reward_expectancy_bt_OFFLINE,2022.2.4,59.90253193877391,
,,,,,,,,,,,,,,,,,,,,,,,,,,,,,,,,,,0,0,0,0,25,0,25,0,,,,,,,,,,,,,,,,,,,,,,,,,,,,0,1071,,,980.5435252361931,,,U,174,star,0.0017301407642662525,,,,,1,0,,,2,,,,,,,,,976.652495986782,976.652495986782,976.652495986782,976.652495986782,978.1407214500941,978.1407214500941,978.1407214500941,978.1407214500941,978.1576426317915,978.1576426317915,978.1576426317915,978.1576426317915,repeat,letter,lettRpt,f,0.8765061432495713,vtsPrac,979.0428799721412,,,,,,,,,,,,,,,,,,,,,,,,,,,,,45561,2022-11-30_14h30.07.819,vts_reward_expectancy_bt_OFFLINE,2022.2.4,59.90253193877391,
,,,,,,,,,,,,,,,,,,,,,,,,,,,,,,,,,,0,0,0,0,26,0,26,0,,,,,,,,,,,,,,,,,,,,,,,,,,,,0,1071,,,985.8144689840265,,,W,125,star,0.0011394461616873741,,,,,1,0,,,2,,,,,,,,,981.5395127898082,981.5395127898082,981.5395127898082,981.5395127898082,983.027498785872,983.027498785872,983.027498785872,983.027498785872,983.0444024321623,983.0444024321623,983.0444024321623,983.0444024321623,switch,number,numSwt,j,1.2658925014548004,vtsPrac,984.3127643228509,,,,,,,,,,,,,,,,,,,,,,,,,,,,,45561,2022-11-30_14h30.07.819,vts_reward_expectancy_bt_OFFLINE,2022.2.4,59.90253193877391,
