LTriangleOpac,LCircleOpac,LHexagonOpac,LStarOpac,RTriangleOpac,RCircleOpac,RHexagonOpac,RStarOpac,LShape_ID,RShape_ID,training_blocks.thisRepN,training_blocks.thisTrialN,training_blocks.thisN,training_blocks.thisIndex,training.thisRepN,training.thisTrialN,training.thisN,training.thisIndex,task1_prac_redo.thisRepN,task1_prac_redo.thisTrialN,task1_prac_redo.thisN,task1_prac_redo.thisIndex,key_resp.started,key_resp.keys,key_resp.rt,left_circle.started,right_circle.started,left_triangle.started,right_triangle.started,left_star.started,right_star.started,left_hexagon.started,right_hexagon.started,training_fix.started,training_resp.started,training_resp.keys,training_resp.rt,points_trial,points_cumul,trainBlock,training_feedback_txt.started,training_feedback_txt.stopped,fix.started,fix.stopped,participant,date,expName,psychopyVersion,frameRate,
,,,,,,,,,,,,,,,,,,,,,,17.925126235000107,space,36.345399570999916,,,,,,,,,,,,,,,,,,,,51419,2022-10-25_08h14.48.778,vts_reward_expectancy_bt_OFFLINE,2022.2.4,59.901096221799214,
0,0,1,0,1,0,0,0,hexagon,triangle,0,0,0,0,0,0,0,6,,,,,,,,74.49422106200018,74.49422106200018,74.49422106200018,74.49422106200018,74.49422106200018,74.49422106200018,74.49422106200018,74.49422106200018,74.49422106200018,74.49422106200018,l,2.072410937999848,10,10,0,76.59920090200012,78.10509043600018,78.10509043600018,78.60584564500004,51419,2022-10-25_08h14.48.778,vts_reward_expectancy_bt_OFFLINE,2022.2.4,59.901096221799214,
0,1,0,0,0,0,0,1,circle,star,0,0,0,0,0,1,1,5,,,,,,,,78.60584564500004,78.60584564500004,78.60584564500004,78.60584564500004,78.60584564500004,78.60584564500004,78.60584564500004,78.60584564500004,78.60584564500004,78.60584564500004,a,0.6502958319999834,10,20,0,79.27328476800017,,80.774687395,,51419,2022-10-25_08h14.48.778,vts_reward_expectancy_bt_OFFLINE,2022.2.4,59.901096221799214,
0,1,0,0,1,0,0,0,circle,triangle,0,0,0,0,0,2,2,3,,,,,,,,81.27528214900008,81.27528214900008,81.27528214900008,81.27528214900008,81.27528214900008,81.27528214900008,81.27528214900008,81.27528214900008,81.27528214900008,81.27528214900008,a,0.5318556529998659,1,21,0,81.82595872900015,,83.32775237400006,,51419,2022-10-25_08h14.48.778,vts_reward_expectancy_bt_OFFLINE,2022.2.4,59.901096221799214,
0,0,0,1,0,0,1,0,star,hexagon,0,0,0,0,0,3,3,11,,,,,,,,83.82848311700013,83.82848311700013,83.82848311700013,83.82848311700013,83.82848311700013,83.82848311700013,83.82848311700013,83.82848311700013,83.82848311700013,83.82848311700013,l,0.4513976419998471,1,22,0,84.31214272500006,,85.81353081300017,,51419,2022-10-25_08h14.48.778,vts_reward_expectancy_bt_OFFLINE,2022.2.4,59.901096221799214,
0,1,0,0,0,0,1,0,circle,hexagon,0,0,0,0,0,4,4,4,,,,,,,,86.31437074000019,86.31437074000019,86.31437074000019,86.31437074000019,86.31437074000019,86.31437074000019,86.31437074000019,86.31437074000019,86.31437074000019,86.31437074000019,a,0.5011524089998147,10,32,0,86.83167908900009,88.33333914900004,88.33333914900004,,51419,2022-10-25_08h14.48.778,vts_reward_expectancy_bt_OFFLINE,2022.2.4,59.901096221799214,
0,0,1,0,0,0,0,1,hexagon,star,0,0,0,0,0,5,5,8,,,,,,,,88.83391556600009,88.83391556600009,88.83391556600009,88.83391556600009,88.83391556600009,88.83391556600009,88.83391556600009,88.83391556600009,88.83391556600009,88.83391556600009,a,0.6294942019999326,1,33,0,89.48429261500019,,90.98615744000017,,51419,2022-10-25_08h14.48.778,vts_reward_expectancy_bt_OFFLINE,2022.2.4,59.901096221799214,
0,0,0,1,0,1,0,0,star ,circle,0,0,0,0,0,6,6,10,,,,,,,,91.48673525599997,91.48673525599997,91.48673525599997,91.48673525599997,91.48673525599997,91.48673525599997,91.48673525599997,91.48673525599997,91.48673525599997,91.48673525599997,a,2.4559663850000106,1,34,0,93.97319014499999,,95.47435330799999,,51419,2022-10-25_08h14.48.778,vts_reward_expectancy_bt_OFFLINE,2022.2.4,59.901096221799214,
1,0,0,0,0,0,0,1,triangle,star,0,0,0,0,0,7,7,2,,,,,,,,95.97505199300008,95.97505199300008,95.97505199300008,95.97505199300008,95.97505199300008,95.97505199300008,95.97505199300008,95.97505199300008,95.97505199300008,95.97505199300008,a,1.071915183999863,1,35,0,97.0764648060001,,98.57798196300018,,51419,2022-10-25_08h14.48.778,vts_reward_expectancy_bt_OFFLINE,2022.2.4,59.901096221799214,
1,0,0,0,0,1,0,0,triangle,circle,0,0,0,0,0,8,8,0,,,,,,,,99.07840653500011,99.07840653500011,99.07840653500011,99.07840653500011,99.07840653500011,99.07840653500011,99.07840653500011,99.07840653500011,99.07840653500011,99.07840653500011,l,2.7922615029999633,10,45,0,101.89706444600006,,103.39974906500015,,51419,2022-10-25_08h14.48.778,vts_reward_expectancy_bt_OFFLINE,2022.2.4,59.901096221799214,
0,0,0,1,1,0,0,0,star,triangle,0,0,0,0,0,9,9,9,,,,,,,,103.90061081199997,103.90061081199997,103.90061081199997,103.90061081199997,103.90061081199997,103.90061081199997,103.90061081199997,103.90061081199997,103.90061081199997,103.90061081199997,l,0.6264089799997237,1,46,0,104.55111241400004,,106.05263633499999,,51419,2022-10-25_08h14.48.778,vts_reward_expectancy_bt_OFFLINE,2022.2.4,59.901096221799214,
0,0,1,0,0,1,0,0,hexagon,circle,0,0,0,0,0,10,10,7,,,,,,,,106.55350567599999,106.55350567599999,106.55350567599999,106.55350567599999,106.55350567599999,106.55350567599999,106.55350567599999,106.55350567599999,106.55350567599999,106.55350567599999,a,0.46877885300000344,10,56,0,107.05375836400003,108.55560513900014,108.55560513900014,,51419,2022-10-25_08h14.48.778,vts_reward_expectancy_bt_OFFLINE,2022.2.4,59.901096221799214,
1,0,0,0,0,0,1,0,triangle,hexagon,0,0,0,0,0,11,11,1,,,,,,,,109.05614836600012,109.05614836600012,109.05614836600012,109.05614836600012,109.05614836600012,109.05614836600012,109.05614836600012,109.05614836600012,109.05614836600012,109.05614836600012,l,0.4702981729999465,1,57,0,109.55665876600006,,111.05813487400019,,51419,2022-10-25_08h14.48.778,vts_reward_expectancy_bt_OFFLINE,2022.2.4,59.901096221799214,
0,1,0,0,0,0,1,0,circle,hexagon,0,0,0,0,1,0,12,4,,,,,,,,111.5586759580001,111.5586759580001,111.5586759580001,111.5586759580001,111.5586759580001,111.5586759580001,111.5586759580001,111.5586759580001,111.5586759580001,111.5586759580001,a,0.42420993299992915,1,58,0,112.00911916300015,,113.51090338900008,,51419,2022-10-25_08h14.48.778,vts_reward_expectancy_bt_OFFLINE,2022.2.4,59.901096221799214,
0,1,0,0,1,0,0,0,circle,triangle,0,0,0,0,1,1,13,3,,,,,,,,114.01140172200007,114.01140172200007,114.01140172200007,114.01140172200007,114.01140172200007,114.01140172200007,114.01140172200007,114.01140172200007,114.01140172200007,114.01140172200007,l,0.42787242600002173,10,68,0,114.46199626099997,,115.96348339700012,,51419,2022-10-25_08h14.48.778,vts_reward_expectancy_bt_OFFLINE,2022.2.4,59.901096221799214,
0,0,0,1,0,1,0,0,star ,circle,0,0,0,0,1,2,14,10,,,,,,,,116.46415984999999,116.46415984999999,116.46415984999999,116.46415984999999,116.46415984999999,116.46415984999999,116.46415984999999,116.46415984999999,116.46415984999999,116.46415984999999,l,0.3429044959998464,10,78,0,116.83109004300013,,118.33309800899997,,51419,2022-10-25_08h14.48.778,vts_reward_expectancy_bt_OFFLINE,2022.2.4,59.901096221799214,
0,1,0,0,0,0,0,1,circle,star,0,0,0,0,1,3,15,5,,,,,,,,118.83324365500016,118.83324365500016,118.83324365500016,118.83324365500016,118.83324365500016,118.83324365500016,118.83324365500016,118.83324365500016,118.83324365500016,118.83324365500016,a,0.39778230399974746,10,88,0,119.25061728700007,,120.75224018600011,,51419,2022-10-25_08h14.48.778,vts_reward_expectancy_bt_OFFLINE,2022.2.4,59.901096221799214,
0,0,1,0,0,1,0,0,hexagon,circle,0,0,0,0,1,4,16,7,,,,,,,,121.25294760600013,121.25294760600013,121.25294760600013,121.25294760600013,121.25294760600013,121.25294760600013,121.25294760600013,121.25294760600013,121.25294760600013,121.25294760600013,l,0.4258594749999247,10,98,0,121.70328092199998,,123.2049281510001,,51419,2022-10-25_08h14.48.778,vts_reward_expectancy_bt_OFFLINE,2022.2.4,59.901096221799214,
1,0,0,0,0,0,1,0,triangle,hexagon,0,0,0,0,1,5,17,1,,,,,,,,123.705560934,123.705560934,123.705560934,123.705560934,123.705560934,123.705560934,123.705560934,123.705560934,123.705560934,123.705560934,a,0.35689420499988955,1,99,0,124.08929845700004,,125.5909433060001,,51419,2022-10-25_08h14.48.778,vts_reward_expectancy_bt_OFFLINE,2022.2.4,59.901096221799214,
0,0,1,0,1,0,0,0,hexagon,triangle,0,0,0,0,1,6,18,6,,,,,,,,126.0914869400001,126.0914869400001,126.0914869400001,126.0914869400001,126.0914869400001,126.0914869400001,126.0914869400001,126.0914869400001,126.0914869400001,126.0914869400001,l,0.38680378799995196,10,109,0,126.50874497400014,,128.01016589699998,,51419,2022-10-25_08h14.48.778,vts_reward_expectancy_bt_OFFLINE,2022.2.4,59.901096221799214,
0,0,0,1,0,0,1,0,star,hexagon,0,0,0,0,1,7,19,11,,,,,,,,128.51070982600004,128.51070982600004,128.51070982600004,128.51070982600004,128.51070982600004,128.51070982600004,128.51070982600004,128.51070982600004,128.51070982600004,128.51070982600004,l,0.5598475109998162,1,110,0,129.094794503,,130.59649772500006,,51419,2022-10-25_08h14.48.778,vts_reward_expectancy_bt_OFFLINE,2022.2.4,59.901096221799214,
0,0,0,1,1,0,0,0,star,triangle,0,0,0,0,1,8,20,9,,,,,,,,131.09719324800017,131.09719324800017,131.09719324800017,131.09719324800017,131.09719324800017,131.09719324800017,131.09719324800017,131.09719324800017,131.09719324800017,131.09719324800017,a,0.4292881960000159,1,111,0,131.54735231300015,,133.04891678100012,,51419,2022-10-25_08h14.48.778,vts_reward_expectancy_bt_OFFLINE,2022.2.4,59.901096221799214,
1,0,0,0,0,1,0,0,triangle,circle,0,0,0,0,1,9,21,0,,,,,,,,133.54967502199997,133.54967502199997,133.54967502199997,133.54967502199997,133.54967502199997,133.54967502199997,133.54967502199997,133.54967502199997,133.54967502199997,133.54967502199997,l,0.5611895659999391,10,121,0,134.13378836700008,,135.63533340200001,,51419,2022-10-25_08h14.48.778,vts_reward_expectancy_bt_OFFLINE,2022.2.4,59.901096221799214,
1,0,0,0,0,0,0,1,triangle,star,0,0,0,0,1,10,22,2,,,,,,,,136.13609406600017,136.13609406600017,136.13609406600017,136.13609406600017,136.13609406600017,136.13609406600017,136.13609406600017,136.13609406600017,136.13609406600017,136.13609406600017,l,0.4782254629999443,1,122,0,136.63668100600012,,138.13846830700004,,51419,2022-10-25_08h14.48.778,vts_reward_expectancy_bt_OFFLINE,2022.2.4,59.901096221799214,
0,0,1,0,0,0,0,1,hexagon,star,0,0,0,0,1,11,23,8,,,,,,,,138.63847946200008,138.63847946200008,138.63847946200008,138.63847946200008,138.63847946200008,138.63847946200008,138.63847946200008,138.63847946200008,138.63847946200008,138.63847946200008,a,0.43997085999967567,10,132,0,139.10597486200004,,140.6075497480001,,51419,2022-10-25_08h14.48.778,vts_reward_expectancy_bt_OFFLINE,2022.2.4,59.901096221799214,
0,0,1,0,1,0,0,0,hexagon,triangle,0,0,0,0,2,0,24,6,,,,,,,,141.10793880100005,141.10793880100005,141.10793880100005,141.10793880100005,141.10793880100005,141.10793880100005,141.10793880100005,141.10793880100005,141.10793880100005,141.10793880100005,a,0.45140866099995947,1,133,0,141.5920577070001,,143.09353725200003,,51419,2022-10-25_08h14.48.778,vts_reward_expectancy_bt_OFFLINE,2022.2.4,59.901096221799214,
1,0,0,0,0,0,1,0,triangle,hexagon,0,0,0,0,2,1,25,1,,,,,,,,143.59390380000013,143.59390380000013,143.59390380000013,143.59390380000013,143.59390380000013,143.59390380000013,143.59390380000013,143.59390380000013,143.59390380000013,143.59390380000013,l,0.4771657469998445,1,134,0,144.09449662400016,,145.59617146000005,,51419,2022-10-25_08h14.48.778,vts_reward_expectancy_bt_OFFLINE,2022.2.4,59.901096221799214,
0,1,0,0,0,0,1,0,circle,hexagon,0,0,0,0,2,2,26,4,,,,,,,,146.09663308200015,146.09663308200015,146.09663308200015,146.09663308200015,146.09663308200015,146.09663308200015,146.09663308200015,146.09663308200015,146.09663308200015,146.09663308200015,l,0.367578617999925,1,135,0,146.48044554700004,147.9820777120001,147.9820777120001,,51419,2022-10-25_08h14.48.778,vts_reward_expectancy_bt_OFFLINE,2022.2.4,59.901096221799214,
0,0,1,0,0,0,0,1,hexagon,star,0,0,0,0,2,3,27,8,,,,,,,,148.48258977199998,148.48258977199998,148.48258977199998,148.48258977199998,148.48258977199998,148.48258977199998,148.48258977199998,148.48258977199998,148.48258977199998,148.48258977199998,a,0.30814631199996256,1,136,0,148.81665990200008,,150.31805620199998,,51419,2022-10-25_08h14.48.778,vts_reward_expectancy_bt_OFFLINE,2022.2.4,59.901096221799214,
0,0,0,1,0,1,0,0,star ,circle,0,0,0,0,2,4,28,10,,,,,,,,150.8187403060001,150.8187403060001,150.8187403060001,150.8187403060001,150.8187403060001,150.8187403060001,150.8187403060001,150.8187403060001,150.8187403060001,150.8187403060001,l,0.2761259730000347,10,146,0,151.11890078800002,,152.62055700700012,,51419,2022-10-25_08h14.48.778,vts_reward_expectancy_bt_OFFLINE,2022.2.4,59.901096221799214,
1,0,0,0,0,0,0,1,triangle,star,0,0,0,0,2,5,29,2,,,,,,,,153.12111187300002,153.12111187300002,153.12111187300002,153.12111187300002,153.12111187300002,153.12111187300002,153.12111187300002,153.12111187300002,153.12111187300002,153.12111187300002,l,0.6933757239999068,10,156,0,153.83857439400003,,155.34023262200003,,51419,2022-10-25_08h14.48.778,vts_reward_expectancy_bt_OFFLINE,2022.2.4,59.901096221799214,
0,1,0,0,1,0,0,0,circle,triangle,0,0,0,0,2,6,30,3,,,,,,,,155.84126768400006,155.84126768400006,155.84126768400006,155.84126768400006,155.84126768400006,155.84126768400006,155.84126768400006,155.84126768400006,155.84126768400006,155.84126768400006,l,0.9255197239999688,1,157,0,156.79185680700016,,158.29370927200011,,51419,2022-10-25_08h14.48.778,vts_reward_expectancy_bt_OFFLINE,2022.2.4,59.901096221799214,
0,1,0,0,0,0,0,1,circle,star,0,0,0,0,2,7,31,5,,,,,,,,158.79436201099998,158.79436201099998,158.79436201099998,158.79436201099998,158.79436201099998,158.79436201099998,158.79436201099998,158.79436201099998,158.79436201099998,158.79436201099998,a,0.4927419209998334,1,158,0,159.3114019080001,,160.813160702,,51419,2022-10-25_08h14.48.778,vts_reward_expectancy_bt_OFFLINE,2022.2.4,59.901096221799214,
0,0,1,0,0,1,0,0,hexagon,circle,0,0,0,0,2,8,32,7,,,,,,,,161.3137146670001,161.3137146670001,161.3137146670001,161.3137146670001,161.3137146670001,161.3137146670001,161.3137146670001,161.3137146670001,161.3137146670001,161.3137146670001,l,0.5092004250000173,10,168,0,161.847409061,,163.3491479490001,,51419,2022-10-25_08h14.48.778,vts_reward_expectancy_bt_OFFLINE,2022.2.4,59.901096221799214,
0,0,0,1,1,0,0,0,star,triangle,0,0,0,0,2,9,33,9,,,,,,,,163.8498508770001,163.8498508770001,163.8498508770001,163.8498508770001,163.8498508770001,163.8498508770001,163.8498508770001,163.8498508770001,163.8498508770001,163.8498508770001,a,0.7648448309998912,1,169,0,164.633856961,,166.1354171810001,,51419,2022-10-25_08h14.48.778,vts_reward_expectancy_bt_OFFLINE,2022.2.4,59.901096221799214,
1,0,0,0,0,1,0,0,triangle,circle,0,0,0,0,2,10,34,0,,,,,,,,166.6363277360001,166.6363277360001,166.6363277360001,166.6363277360001,166.6363277360001,166.6363277360001,166.6363277360001,166.6363277360001,166.6363277360001,166.6363277360001,a,0.8581981199997699,1,170,0,167.52052967100008,,169.02224557900013,,51419,2022-10-25_08h14.48.778,vts_reward_expectancy_bt_OFFLINE,2022.2.4,59.901096221799214,
0,0,0,1,0,0,1,0,star,hexagon,0,0,0,0,2,11,35,11,,,,,,,,169.52273990599997,169.52273990599997,169.52273990599997,169.52273990599997,169.52273990599997,169.52273990599997,169.52273990599997,169.52273990599997,169.52273990599997,169.52273990599997,l,0.5327717549998852,1,171,0,170.07368252800006,171.57484475700016,171.57484475700016,,51419,2022-10-25_08h14.48.778,vts_reward_expectancy_bt_OFFLINE,2022.2.4,59.901096221799214,
0,1,0,0,0,0,1,0,circle,hexagon,0,0,0,0,3,0,36,4,,,,,,,,172.07554450400016,172.07554450400016,172.07554450400016,172.07554450400016,172.07554450400016,172.07554450400016,172.07554450400016,172.07554450400016,172.07554450400016,172.07554450400016,a,0.7008986889998141,1,172,0,172.79306635700004,174.29459596800007,174.29459596800007,,51419,2022-10-25_08h14.48.778,vts_reward_expectancy_bt_OFFLINE,2022.2.4,59.901096221799214,
0,0,1,0,1,0,0,0,hexagon,triangle,0,0,0,0,3,1,37,6,,,,,,,,174.7948479180002,174.7948479180002,174.7948479180002,174.7948479180002,174.7948479180002,174.7948479180002,174.7948479180002,174.7948479180002,174.7948479180002,174.7948479180002,l,0.29196462499976406,10,182,0,175.11194495100017,,176.61368950700012,,51419,2022-10-25_08h14.48.778,vts_reward_expectancy_bt_OFFLINE,2022.2.4,59.901096221799214,
0,0,1,0,0,1,0,0,hexagon,circle,0,0,0,0,3,2,38,7,,,,,,,,177.11417104200018,177.11417104200018,177.11417104200018,177.11417104200018,177.11417104200018,177.11417104200018,177.11417104200018,177.11417104200018,177.11417104200018,177.11417104200018,l,0.6120662449998235,10,192,0,177.74840251,,179.25000590600007,,51419,2022-10-25_08h14.48.778,vts_reward_expectancy_bt_OFFLINE,2022.2.4,59.901096221799214,
1,0,0,0,0,0,1,0,triangle,hexagon,0,0,0,0,3,3,39,1,,,,,,,,179.75056701500012,179.75056701500012,179.75056701500012,179.75056701500012,179.75056701500012,179.75056701500012,179.75056701500012,179.75056701500012,179.75056701500012,179.75056701500012,l,0.5764701719997447,1,193,0,180.3511868160001,,181.85287429000005,,51419,2022-10-25_08h14.48.778,vts_reward_expectancy_bt_OFFLINE,2022.2.4,59.901096221799214,
0,1,0,0,0,0,0,1,circle,star,0,0,0,0,3,4,40,5,,,,,,,,182.35374779300014,182.35374779300014,182.35374779300014,182.35374779300014,182.35374779300014,182.35374779300014,182.35374779300014,182.35374779300014,182.35374779300014,182.35374779300014,a,0.6444598099997165,10,203,0,183.02107186000012,,184.522497874,,51419,2022-10-25_08h14.48.778,vts_reward_expectancy_bt_OFFLINE,2022.2.4,59.901096221799214,
0,1,0,0,1,0,0,0,circle,triangle,0,0,0,0,3,5,41,3,,,,,,,,185.02304446100015,185.02304446100015,185.02304446100015,185.02304446100015,185.02304446100015,185.02304446100015,185.02304446100015,185.02304446100015,185.02304446100015,185.02304446100015,l,1.224254333999852,1,204,0,186.2745597590001,,187.77609444200016,,51419,2022-10-25_08h14.48.778,vts_reward_expectancy_bt_OFFLINE,2022.2.4,59.901096221799214,
1,0,0,0,0,0,0,1,triangle,star,0,0,0,0,3,6,42,2,,,,,,,,188.27693083300005,188.27693083300005,188.27693083300005,188.27693083300005,188.27693083300005,188.27693083300005,188.27693083300005,188.27693083300005,188.27693083300005,188.27693083300005,l,0.8185784269999203,10,214,0,189.12767779,,190.62936847000014,,51419,2022-10-25_08h14.48.778,vts_reward_expectancy_bt_OFFLINE,2022.2.4,59.901096221799214,
0,0,0,1,0,0,1,0,star,hexagon,0,0,0,0,3,7,43,11,,,,,,,,191.12985862000005,191.12985862000005,191.12985862000005,191.12985862000005,191.12985862000005,191.12985862000005,191.12985862000005,191.12985862000005,191.12985862000005,191.12985862000005,a,0.7248498019998806,10,224,0,191.88084711600004,,193.38236992800012,,51419,2022-10-25_08h14.48.778,vts_reward_expectancy_bt_OFFLINE,2022.2.4,59.901096221799214,
0,0,0,1,0,1,0,0,star ,circle,0,0,0,0,3,8,44,10,,,,,,,,193.88307412000017,193.88307412000017,193.88307412000017,193.88307412000017,193.88307412000017,193.88307412000017,193.88307412000017,193.88307412000017,193.88307412000017,193.88307412000017,l,0.443164866999723,10,234,0,194.35005538300015,,195.85041643099999,,51419,2022-10-25_08h14.48.778,vts_reward_expectancy_bt_OFFLINE,2022.2.4,59.901096221799214,
0,0,0,1,1,0,0,0,star,triangle,0,0,0,0,3,9,45,9,,,,,,,,196.3523906790001,196.3523906790001,196.3523906790001,196.3523906790001,196.3523906790001,196.3523906790001,196.3523906790001,196.3523906790001,196.3523906790001,196.3523906790001,a,1.0460269019999942,10,244,0,197.42007855200018,,198.92208428000004,,51419,2022-10-25_08h14.48.778,vts_reward_expectancy_bt_OFFLINE,2022.2.4,59.901096221799214,
1,0,0,0,0,1,0,0,triangle,circle,0,0,0,0,3,10,46,0,,,,,,,,199.42270521,199.42270521,199.42270521,199.42270521,199.42270521,199.42270521,199.42270521,199.42270521,199.42270521,199.42270521,l,0.43930446900003517,10,254,0,199.88967605800008,,201.39118917700011,,51419,2022-10-25_08h14.48.778,vts_reward_expectancy_bt_OFFLINE,2022.2.4,59.901096221799214,
0,0,1,0,0,0,0,1,hexagon,star,0,0,0,0,3,11,47,8,,,,,,,,201.891474495,201.891474495,201.891474495,201.891474495,201.891474495,201.891474495,201.891474495,201.891474495,201.891474495,201.891474495,a,0.4185108539998055,1,255,0,202.34210375400016,,203.84408055500012,,51419,2022-10-25_08h14.48.778,vts_reward_expectancy_bt_OFFLINE,2022.2.4,59.901096221799214,
0,1,0,0,0,0,0,1,circle,star,1,0,1,0,0,0,0,5,,,,,,,,207.57025398500014,207.57025398500014,207.57025398500014,207.57025398500014,207.57025398500014,207.57025398500014,207.57025398500014,207.57025398500014,207.57025398500014,207.57025398500014,a,1.18789922499991,1,256,1,208.7825880140001,,210.28418184800012,,51419,2022-10-25_08h14.48.778,vts_reward_expectancy_bt_OFFLINE,2022.2.4,59.901096221799214,
1,0,0,0,0,1,0,0,triangle,circle,1,0,1,0,0,1,1,0,,,,,,,,210.78464147,210.78464147,210.78464147,210.78464147,210.78464147,210.78464147,210.78464147,210.78464147,210.78464147,210.78464147,l,0.41454219100000955,10,266,1,211.218584211,,212.72010912600012,,51419,2022-10-25_08h14.48.778,vts_reward_expectancy_bt_OFFLINE,2022.2.4,59.901096221799214,
0,0,1,0,0,1,0,0,hexagon,circle,1,0,1,0,0,2,2,7,,,,,,,,213.22077146200013,213.22077146200013,213.22077146200013,213.22077146200013,213.22077146200013,213.22077146200013,213.22077146200013,213.22077146200013,213.22077146200013,213.22077146200013,l,0.44137923599987516,10,276,1,213.68791136000004,,215.18952113,,51419,2022-10-25_08h14.48.778,vts_reward_expectancy_bt_OFFLINE,2022.2.4,59.901096221799214,
1,0,0,0,0,0,0,1,triangle,star,1,0,1,0,0,3,3,2,,,,,,,,215.69006920300012,215.69006920300012,215.69006920300012,215.69006920300012,215.69006920300012,215.69006920300012,215.69006920300012,215.69006920300012,215.69006920300012,215.69006920300012,l,0.7483403639998869,1,277,1,216.45774774799997,,217.95929996100017,,51419,2022-10-25_08h14.48.778,vts_reward_expectancy_bt_OFFLINE,2022.2.4,59.901096221799214,
0,0,0,1,0,0,1,0,star,hexagon,1,0,1,0,0,4,4,11,,,,,,,,218.4599665820001,218.4599665820001,218.4599665820001,218.4599665820001,218.4599665820001,218.4599665820001,218.4599665820001,218.4599665820001,218.4599665820001,218.4599665820001,l,0.6352708179997535,1,278,1,219.12735378700017,,220.6288432230001,,51419,2022-10-25_08h14.48.778,vts_reward_expectancy_bt_OFFLINE,2022.2.4,59.901096221799214,
1,0,0,0,0,0,1,0,triangle,hexagon,1,0,1,0,0,5,5,1,,,,,,,,221.129559256,221.129559256,221.129559256,221.129559256,221.129559256,221.129559256,221.129559256,221.129559256,221.129559256,221.129559256,a,0.48483626399979585,1,279,1,221.6469157260001,,223.14858194500016,,51419,2022-10-25_08h14.48.778,vts_reward_expectancy_bt_OFFLINE,2022.2.4,59.901096221799214,
0,0,1,0,0,0,0,1,hexagon,star,1,0,1,0,0,6,6,8,,,,,,,,223.64915816799999,223.64915816799999,223.64915816799999,223.64915816799999,223.64915816799999,223.64915816799999,223.64915816799999,223.64915816799999,223.64915816799999,223.64915816799999,l,0.4367113219998373,10,289,1,224.11619376300018,,225.61814188400012,,51419,2022-10-25_08h14.48.778,vts_reward_expectancy_bt_OFFLINE,2022.2.4,59.901096221799214,
0,0,1,0,1,0,0,0,hexagon,triangle,1,0,1,0,0,7,7,6,,,,,,,,226.11841117000017,226.11841117000017,226.11841117000017,226.11841117000017,226.11841117000017,226.11841117000017,226.11841117000017,226.11841117000017,226.11841117000017,226.11841117000017,l,0.423645039999883,1,290,1,226.56897765100007,,228.0706395870002,,51419,2022-10-25_08h14.48.778,vts_reward_expectancy_bt_OFFLINE,2022.2.4,59.901096221799214,
0,0,0,1,1,0,0,0,star,triangle,1,0,1,0,0,8,8,9,,,,,,,,228.57142439200015,228.57142439200015,228.57142439200015,228.57142439200015,228.57142439200015,228.57142439200015,228.57142439200015,228.57142439200015,228.57142439200015,228.57142439200015,a,0.9948235539998223,10,300,1,229.58898118800016,,231.09086010700003,,51419,2022-10-25_08h14.48.778,vts_reward_expectancy_bt_OFFLINE,2022.2.4,59.901096221799214,
0,1,0,0,1,0,0,0,circle,triangle,1,0,1,0,0,9,9,3,,,,,,,,231.59137833299997,231.59137833299997,231.59137833299997,231.59137833299997,231.59137833299997,231.59137833299997,231.59137833299997,231.59137833299997,231.59137833299997,231.59137833299997,a,0.38469360599992797,10,310,1,232.00810373500008,,233.50979591700002,,51419,2022-10-25_08h14.48.778,vts_reward_expectancy_bt_OFFLINE,2022.2.4,59.901096221799214,
0,0,0,1,0,1,0,0,star ,circle,1,0,1,0,0,10,10,10,,,,,,,,234.01059947600015,234.01059947600015,234.01059947600015,234.01059947600015,234.01059947600015,234.01059947600015,234.01059947600015,234.01059947600015,234.01059947600015,234.01059947600015,a,0.6922087649998048,10,320,1,234.72815116700008,,236.22943342200006,,51419,2022-10-25_08h14.48.778,vts_reward_expectancy_bt_OFFLINE,2022.2.4,59.901096221799214,
0,1,0,0,0,0,1,0,circle,hexagon,1,0,1,0,0,11,11,4,,,,,,,,236.7302846760001,236.7302846760001,236.7302846760001,236.7302846760001,236.7302846760001,236.7302846760001,236.7302846760001,236.7302846760001,236.7302846760001,236.7302846760001,a,0.5488607160000356,10,330,1,237.29756398900008,238.79910318200018,238.79910318200018,,51419,2022-10-25_08h14.48.778,vts_reward_expectancy_bt_OFFLINE,2022.2.4,59.901096221799214,
0,1,0,0,1,0,0,0,circle,triangle,1,0,1,0,1,0,12,3,,,,,,,,239.29987500100015,239.29987500100015,239.29987500100015,239.29987500100015,239.29987500100015,239.29987500100015,239.29987500100015,239.29987500100015,239.29987500100015,239.29987500100015,a,0.30627086100003,10,340,1,239.63325399000018,,241.13526948499998,,51419,2022-10-25_08h14.48.778,vts_reward_expectancy_bt_OFFLINE,2022.2.4,59.901096221799214,
1,0,0,0,0,1,0,0,triangle,circle,1,0,1,0,1,1,13,0,,,,,,,,241.63565795199997,241.63565795199997,241.63565795199997,241.63565795199997,241.63565795199997,241.63565795199997,241.63565795199997,241.63565795199997,241.63565795199997,241.63565795199997,a,0.3787016629999016,1,341,1,242.03582311200012,,243.53745834799997,,51419,2022-10-25_08h14.48.778,vts_reward_expectancy_bt_OFFLINE,2022.2.4,59.901096221799214,
0,1,0,0,0,0,1,0,circle,hexagon,1,0,1,0,1,2,14,4,,,,,,,,244.03815765600007,244.03815765600007,244.03815765600007,244.03815765600007,244.03815765600007,244.03815765600007,244.03815765600007,244.03815765600007,244.03815765600007,244.03815765600007,l,0.24036407499988854,10,351,1,244.30499446199997,,245.80657105,,51419,2022-10-25_08h14.48.778,vts_reward_expectancy_bt_OFFLINE,2022.2.4,59.901096221799214,
0,0,1,0,1,0,0,0,hexagon,triangle,1,0,1,0,1,3,15,6,,,,,,,,246.30718249100005,246.30718249100005,246.30718249100005,246.30718249100005,246.30718249100005,246.30718249100005,246.30718249100005,246.30718249100005,246.30718249100005,246.30718249100005,l,0.2678172229998381,1,352,1,246.60760538800014,,248.10919363800008,,51419,2022-10-25_08h14.48.778,vts_reward_expectancy_bt_OFFLINE,2022.2.4,59.901096221799214,
1,0,0,0,0,0,1,0,triangle,hexagon,1,0,1,0,1,4,16,1,,,,,,,,248.609699869,248.609699869,248.609699869,248.609699869,248.609699869,248.609699869,248.609699869,248.609699869,248.609699869,248.609699869,a,0.30149853599982634,1,353,1,248.94357908400002,,250.44504052700017,,51419,2022-10-25_08h14.48.778,vts_reward_expectancy_bt_OFFLINE,2022.2.4,59.901096221799214,
0,1,0,0,0,0,0,1,circle,star,1,0,1,0,1,5,17,5,,,,,,,,250.94559147100017,250.94559147100017,250.94559147100017,250.94559147100017,250.94559147100017,250.94559147100017,250.94559147100017,250.94559147100017,250.94559147100017,250.94559147100017,l,1.3412478309999187,10,363,1,252.3138178480001,253.81425000700006,253.81425000700006,,51419,2022-10-25_08h14.48.778,vts_reward_expectancy_bt_OFFLINE,2022.2.4,59.901096221799214,
0,0,0,1,0,1,0,0,star ,circle,1,0,1,0,1,6,18,10,,,,,,,,254.31608872200013,254.31608872200013,254.31608872200013,254.31608872200013,254.31608872200013,254.31608872200013,254.31608872200013,254.31608872200013,254.31608872200013,254.31608872200013,l,0.434930606999842,10,373,1,254.783545279,,256.28494978900017,,51419,2022-10-25_08h14.48.778,vts_reward_expectancy_bt_OFFLINE,2022.2.4,59.901096221799214,
0,0,0,1,1,0,0,0,star,triangle,1,0,1,0,1,7,19,9,,,,,,,,256.785817339,256.785817339,256.785817339,256.785817339,256.785817339,256.785817339,256.785817339,256.785817339,256.785817339,256.785817339,l,0.5185124609997729,1,374,1,257.33609871600015,,258.837682998,,51419,2022-10-25_08h14.48.778,vts_reward_expectancy_bt_OFFLINE,2022.2.4,59.901096221799214,
0,0,1,0,0,1,0,0,hexagon,circle,1,0,1,0,1,8,20,7,,,,,,,,259.3382778910002,259.3382778910002,259.3382778910002,259.3382778910002,259.3382778910002,259.3382778910002,259.3382778910002,259.3382778910002,259.3382778910002,259.3382778910002,l,0.7406339109998044,10,384,1,260.105816902,,261.60739983100007,,51419,2022-10-25_08h14.48.778,vts_reward_expectancy_bt_OFFLINE,2022.2.4,59.901096221799214,
0,0,0,1,0,0,1,0,star,hexagon,1,0,1,0,1,9,21,11,,,,,,,,262.10797551200017,262.10797551200017,262.10797551200017,262.10797551200017,262.10797551200017,262.10797551200017,262.10797551200017,262.10797551200017,262.10797551200017,262.10797551200017,l,0.45187316499982444,1,385,1,262.59190846399997,,264.093477658,,51419,2022-10-25_08h14.48.778,vts_reward_expectancy_bt_OFFLINE,2022.2.4,59.901096221799214,
0,0,1,0,0,0,0,1,hexagon,star,1,0,1,0,1,10,22,8,,,,,,,,264.594144659,264.594144659,264.594144659,264.594144659,264.594144659,264.594144659,264.594144659,264.594144659,264.594144659,264.594144659,a,0.2518690829999741,10,395,1,264.87790937700015,,266.3793960080002,,51419,2022-10-25_08h14.48.778,vts_reward_expectancy_bt_OFFLINE,2022.2.4,59.901096221799214,
1,0,0,0,0,0,0,1,triangle,star,1,0,1,0,1,11,23,2,,,,,,,,266.8801738280001,266.8801738280001,266.8801738280001,266.8801738280001,266.8801738280001,266.8801738280001,266.8801738280001,266.8801738280001,266.8801738280001,266.8801738280001,a,0.40684855699987565,1,396,1,267.31371554,268.814359877,268.814359877,,51419,2022-10-25_08h14.48.778,vts_reward_expectancy_bt_OFFLINE,2022.2.4,59.901096221799214,
1,0,0,0,0,0,1,0,triangle,hexagon,1,0,1,0,2,0,24,1,,,,,,,,269.31592838899996,269.31592838899996,269.31592838899996,269.31592838899996,269.31592838899996,269.31592838899996,269.31592838899996,269.31592838899996,269.31592838899996,269.31592838899996,l,0.284438137999814,1,397,1,269.6333409030001,,271.13442666000014,,51419,2022-10-25_08h14.48.778,vts_reward_expectancy_bt_OFFLINE,2022.2.4,59.901096221799214,
1,0,0,0,0,1,0,0,triangle,circle,1,0,1,0,2,1,25,0,,,,,,,,271.6350625120001,271.6350625120001,271.6350625120001,271.6350625120001,271.6350625120001,271.6350625120001,271.6350625120001,271.6350625120001,271.6350625120001,271.6350625120001,a,0.2762185609997232,1,398,1,271.9354862540001,,273.4371218250001,,51419,2022-10-25_08h14.48.778,vts_reward_expectancy_bt_OFFLINE,2022.2.4,59.901096221799214,
0,0,1,0,0,0,0,1,hexagon,star,1,0,1,0,2,2,26,8,,,,,,,,273.93781963000015,273.93781963000015,273.93781963000015,273.93781963000015,273.93781963000015,273.93781963000015,273.93781963000015,273.93781963000015,273.93781963000015,273.93781963000015,l,0.08454592399971261,10,408,1,274.054466198,,275.55627452500016,,51419,2022-10-25_08h14.48.778,vts_reward_expectancy_bt_OFFLINE,2022.2.4,59.901096221799214,
0,0,1,0,0,1,0,0,hexagon,circle,1,0,1,0,2,3,27,7,,,,,,,,276.05666145500004,276.05666145500004,276.05666145500004,276.05666145500004,276.05666145500004,276.05666145500004,276.05666145500004,276.05666145500004,276.05666145500004,276.05666145500004,l,0.4463322479998624,10,418,1,276.5239306220001,,278.0257671640002,,51419,2022-10-25_08h14.48.778,vts_reward_expectancy_bt_OFFLINE,2022.2.4,59.901096221799214,
0,0,1,0,1,0,0,0,hexagon,triangle,1,0,1,0,2,4,28,6,,,,,,,,278.52644318600005,278.52644318600005,278.52644318600005,278.52644318600005,278.52644318600005,278.52644318600005,278.52644318600005,278.52644318600005,278.52644318600005,278.52644318600005,l,0.5357983629999126,1,419,1,279.09360615000014,,280.5950667950001,,51419,2022-10-25_08h14.48.778,vts_reward_expectancy_bt_OFFLINE,2022.2.4,59.901096221799214,
0,0,0,1,1,0,0,0,star,triangle,1,0,1,0,2,5,29,9,,,,,,,,281.0959568620001,281.0959568620001,281.0959568620001,281.0959568620001,281.0959568620001,281.0959568620001,281.0959568620001,281.0959568620001,281.0959568620001,281.0959568620001,a,0.4699384719999671,10,429,1,281.59623573600015,,283.097936396,,51419,2022-10-25_08h14.48.778,vts_reward_expectancy_bt_OFFLINE,2022.2.4,59.901096221799214,
1,0,0,0,0,0,0,1,triangle,star,1,0,1,0,2,6,30,2,,,,,,,,283.5985989620001,283.5985989620001,283.5985989620001,283.5985989620001,283.5985989620001,283.5985989620001,283.5985989620001,283.5985989620001,283.5985989620001,283.5985989620001,a,0.5596891430000142,10,439,1,284.18245449100004,,285.68406009900013,,51419,2022-10-25_08h14.48.778,vts_reward_expectancy_bt_OFFLINE,2022.2.4,59.901096221799214,
0,1,0,0,1,0,0,0,circle,triangle,1,0,1,0,2,7,31,3,,,,,,,,286.184938996,286.184938996,286.184938996,286.184938996,286.184938996,286.184938996,286.184938996,286.184938996,286.184938996,286.184938996,l,0.4301179289998345,1,440,1,286.63545011600013,,288.13691737,,51419,2022-10-25_08h14.48.778,vts_reward_expectancy_bt_OFFLINE,2022.2.4,59.901096221799214,
0,0,0,1,0,0,1,0,star,hexagon,1,0,1,0,2,8,32,11,,,,,,,,288.63739385400004,288.63739385400004,288.63739385400004,288.63739385400004,288.63739385400004,288.63739385400004,288.63739385400004,288.63739385400004,288.63739385400004,288.63739385400004,a,0.4659528729998783,10,450,1,289.12119356100015,290.62303969699997,290.62303969699997,,51419,2022-10-25_08h14.48.778,vts_reward_expectancy_bt_OFFLINE,2022.2.4,59.901096221799214,
0,1,0,0,0,0,1,0,circle,hexagon,1,0,1,0,2,9,33,4,,,,,,,,291.123337451,291.123337451,291.123337451,291.123337451,291.123337451,291.123337451,291.123337451,291.123337451,291.123337451,291.123337451,l,0.5788042119997954,1,451,1,291.72402478000004,,293.2256462280002,,51419,2022-10-25_08h14.48.778,vts_reward_expectancy_bt_OFFLINE,2022.2.4,59.901096221799214,
0,1,0,0,0,0,0,1,circle,star,1,0,1,0,2,10,34,5,,,,,,,,293.7264260090001,293.7264260090001,293.7264260090001,293.7264260090001,293.7264260090001,293.7264260090001,293.7264260090001,293.7264260090001,293.7264260090001,293.7264260090001,a,0.35998895800003083,10,461,1,294.109906527,,295.61154040600013,,51419,2022-10-25_08h14.48.778,vts_reward_expectancy_bt_OFFLINE,2022.2.4,59.901096221799214,
0,0,0,1,0,1,0,0,star ,circle,1,0,1,0,2,11,35,10,,,,,,,,296.11219370000003,296.11219370000003,296.11219370000003,296.11219370000003,296.11219370000003,296.11219370000003,296.11219370000003,296.11219370000003,296.11219370000003,296.11219370000003,l,0.4696974829998908,10,471,1,296.61278854700004,,298.11456602700014,,51419,2022-10-25_08h14.48.778,vts_reward_expectancy_bt_OFFLINE,2022.2.4,59.901096221799214,
0,0,0,1,0,1,0,0,star ,circle,1,0,1,0,3,0,36,10,,,,,,,,298.61514173600017,298.61514173600017,298.61514173600017,298.61514173600017,298.61514173600017,298.61514173600017,298.61514173600017,298.61514173600017,298.61514173600017,298.61514173600017,a,0.48681277799983036,10,481,1,299.132210857,,300.633870529,,51419,2022-10-25_08h14.48.778,vts_reward_expectancy_bt_OFFLINE,2022.2.4,59.901096221799214,
0,0,0,1,0,0,1,0,star,hexagon,1,0,1,0,3,1,37,11,,,,,,,,301.1347635430002,301.1347635430002,301.1347635430002,301.1347635430002,301.1347635430002,301.1347635430002,301.1347635430002,301.1347635430002,301.1347635430002,301.1347635430002,l,0.4239143049996983,10,491,1,301.585152442,,303.086918083,,51419,2022-10-25_08h14.48.778,vts_reward_expectancy_bt_OFFLINE,2022.2.4,59.901096221799214,
0,0,1,0,0,0,0,1,hexagon,star,1,0,1,0,3,2,38,8,,,,,,,,303.5871370520001,303.5871370520001,303.5871370520001,303.5871370520001,303.5871370520001,303.5871370520001,303.5871370520001,303.5871370520001,303.5871370520001,303.5871370520001,a,0.5165605529998629,1,492,1,304.121347432,305.62292144800017,305.62292144800017,,51419,2022-10-25_08h14.48.778,vts_reward_expectancy_bt_OFFLINE,2022.2.4,59.901096221799214,
1,0,0,0,0,1,0,0,triangle,circle,1,0,1,0,3,3,39,0,,,,,,,,306.123537166,306.123537166,306.123537166,306.123537166,306.123537166,306.123537166,306.123537166,306.123537166,306.123537166,306.123537166,l,0.3955052439998781,1,493,1,306.5407553990001,,308.0421205150001,,51419,2022-10-25_08h14.48.778,vts_reward_expectancy_bt_OFFLINE,2022.2.4,59.901096221799214,
0,1,0,0,1,0,0,0,circle,triangle,1,0,1,0,3,4,40,3,,,,,,,,308.542615009,308.542615009,308.542615009,308.542615009,308.542615009,308.542615009,308.542615009,308.542615009,308.542615009,308.542615009,a,0.4340202059997864,10,503,1,308.99323330000016,,310.49469698200005,,51419,2022-10-25_08h14.48.778,vts_reward_expectancy_bt_OFFLINE,2022.2.4,59.901096221799214,
0,1,0,0,0,0,0,1,circle,star,1,0,1,0,3,5,41,5,,,,,,,,310.99536391900006,310.99536391900006,310.99536391900006,310.99536391900006,310.99536391900006,310.99536391900006,310.99536391900006,310.99536391900006,310.99536391900006,310.99536391900006,a,0.47485443799996574,10,513,1,311.4959508210002,,312.997772358,,51419,2022-10-25_08h14.48.778,vts_reward_expectancy_bt_OFFLINE,2022.2.4,59.901096221799214,
1,0,0,0,0,0,0,1,triangle,star,1,0,1,0,3,6,42,2,,,,,,,,313.4984808030001,313.4984808030001,313.4984808030001,313.4984808030001,313.4984808030001,313.4984808030001,313.4984808030001,313.4984808030001,313.4984808030001,313.4984808030001,l,0.6678457329999219,10,523,1,314.1990474490001,,315.7006019510002,,51419,2022-10-25_08h14.48.778,vts_reward_expectancy_bt_OFFLINE,2022.2.4,59.901096221799214,
0,0,1,0,0,1,0,0,hexagon,circle,1,0,1,0,3,7,43,7,,,,,,,,316.201120535,316.201120535,316.201120535,316.201120535,316.201120535,316.201120535,316.201120535,316.201120535,316.201120535,316.201120535,l,0.6212543480000932,10,533,1,316.85206259200004,,318.35345109000014,,51419,2022-10-25_08h14.48.778,vts_reward_expectancy_bt_OFFLINE,2022.2.4,59.901096221799214,
0,0,1,0,1,0,0,0,hexagon,triangle,1,0,1,0,3,8,44,6,,,,,,,,318.8539637890001,318.8539637890001,318.8539637890001,318.8539637890001,318.8539637890001,318.8539637890001,318.8539637890001,318.8539637890001,318.8539637890001,318.8539637890001,a,0.5359564399998362,1,534,1,319.4215125530002,,320.922969662,,51419,2022-10-25_08h14.48.778,vts_reward_expectancy_bt_OFFLINE,2022.2.4,59.901096221799214,
0,1,0,0,0,0,1,0,circle,hexagon,1,0,1,0,3,9,45,4,,,,,,,,321.4233529590001,321.4233529590001,321.4233529590001,321.4233529590001,321.4233529590001,321.4233529590001,321.4233529590001,321.4233529590001,321.4233529590001,321.4233529590001,l,0.4630130879997978,1,535,1,321.9077373780001,,323.40921752300005,,51419,2022-10-25_08h14.48.778,vts_reward_expectancy_bt_OFFLINE,2022.2.4,59.901096221799214,
0,0,0,1,1,0,0,0,star,triangle,1,0,1,0,3,10,46,9,,,,,,,,323.9095543330002,323.9095543330002,323.9095543330002,323.9095543330002,323.9095543330002,323.9095543330002,323.9095543330002,323.9095543330002,323.9095543330002,323.9095543330002,a,0.7616705189998356,10,545,1,324.69413793700005,,326.19562815200015,,51419,2022-10-25_08h14.48.778,vts_reward_expectancy_bt_OFFLINE,2022.2.4,59.901096221799214,
1,0,0,0,0,0,1,0,triangle,hexagon,1,0,1,0,3,11,47,1,,,,,,,,326.69592525400003,326.69592525400003,326.69592525400003,326.69592525400003,326.69592525400003,326.69592525400003,326.69592525400003,326.69592525400003,326.69592525400003,326.69592525400003,a,0.7681099519998043,1,546,1,327.4804191960002,328.982036932,328.982036932,,51419,2022-10-25_08h14.48.778,vts_reward_expectancy_bt_OFFLINE,2022.2.4,59.901096221799214,
1,0,0,0,0,1,0,0,triangle,circle,2,0,2,0,0,0,0,0,,,,,,,,332.42576469799997,332.42576469799997,332.42576469799997,332.42576469799997,332.42576469799997,332.42576469799997,332.42576469799997,332.42576469799997,332.42576469799997,332.42576469799997,l,0.6368113949997678,10,556,2,333.08634709600005,,334.588119066,,51419,2022-10-25_08h14.48.778,vts_reward_expectancy_bt_OFFLINE,2022.2.4,59.901096221799214,
1,0,0,0,0,0,0,1,triangle,star,2,0,2,0,0,1,1,2,,,,,,,,335.088802105,335.088802105,335.088802105,335.088802105,335.088802105,335.088802105,335.088802105,335.088802105,335.088802105,335.088802105,l,0.5012594619997799,10,566,2,335.62267512200015,,337.124396468,,51419,2022-10-25_08h14.48.778,vts_reward_expectancy_bt_OFFLINE,2022.2.4,59.901096221799214,
0,0,1,0,1,0,0,0,hexagon,triangle,2,0,2,0,0,2,2,6,,,,,,,,337.62492483799997,337.62492483799997,337.62492483799997,337.62492483799997,337.62492483799997,337.62492483799997,337.62492483799997,337.62492483799997,337.62492483799997,337.62492483799997,l,0.4301769719997992,1,567,2,338.0752448810001,,339.57710000500015,,51419,2022-10-25_08h14.48.778,vts_reward_expectancy_bt_OFFLINE,2022.2.4,59.901096221799214,
0,0,0,1,1,0,0,0,star,triangle,2,0,2,0,0,3,3,9,,,,,,,,340.07751764500017,340.07751764500017,340.07751764500017,340.07751764500017,340.07751764500017,340.07751764500017,340.07751764500017,340.07751764500017,340.07751764500017,340.07751764500017,a,0.5525035489999937,10,577,2,340.661521496,,342.163119974,,51419,2022-10-25_08h14.48.778,vts_reward_expectancy_bt_OFFLINE,2022.2.4,59.901096221799214,
0,0,1,0,0,1,0,0,hexagon,circle,2,0,2,0,0,4,4,7,,,,,,,,342.66363185,342.66363185,342.66363185,342.66363185,342.66363185,342.66363185,342.66363185,342.66363185,342.66363185,342.66363185,a,0.5596264079999855,1,578,2,343.24787711500016,,344.749196512,,51419,2022-10-25_08h14.48.778,vts_reward_expectancy_bt_OFFLINE,2022.2.4,59.901096221799214,
0,0,1,0,0,0,0,1,hexagon,star,2,0,2,0,0,5,5,8,,,,,,,,345.2496874220001,345.2496874220001,345.2496874220001,345.2496874220001,345.2496874220001,345.2496874220001,345.2496874220001,345.2496874220001,345.2496874220001,345.2496874220001,l,0.7095475759999772,10,588,2,345.98386832100005,,347.48563409999997,,51419,2022-10-25_08h14.48.778,vts_reward_expectancy_bt_OFFLINE,2022.2.4,59.901096221799214,
0,1,0,0,0,0,0,1,circle,star,2,0,2,0,0,6,6,5,,,,,,,,347.9864134690001,347.9864134690001,347.9864134690001,347.9864134690001,347.9864134690001,347.9864134690001,347.9864134690001,347.9864134690001,347.9864134690001,347.9864134690001,a,1.1716743389997646,10,598,2,349.187791971,,350.6891523410002,,51419,2022-10-25_08h14.48.778,vts_reward_expectancy_bt_OFFLINE,2022.2.4,59.901096221799214,
0,0,0,1,0,1,0,0,star ,circle,2,0,2,0,0,7,7,10,,,,,,,,351.190011529,351.190011529,351.190011529,351.190011529,351.190011529,351.190011529,351.190011529,351.190011529,351.190011529,351.190011529,l,0.5764967759998854,10,608,2,351.790319986,,353.291897542,,51419,2022-10-25_08h14.48.778,vts_reward_expectancy_bt_OFFLINE,2022.2.4,59.901096221799214,
0,0,0,1,0,0,1,0,star,hexagon,2,0,2,0,0,8,8,11,,,,,,,,353.7924931330001,353.7924931330001,353.7924931330001,353.7924931330001,353.7924931330001,353.7924931330001,353.7924931330001,353.7924931330001,353.7924931330001,353.7924931330001,l,0.6697888799999419,1,609,2,354.4934312580001,,355.99491601299997,,51419,2022-10-25_08h14.48.778,vts_reward_expectancy_bt_OFFLINE,2022.2.4,59.901096221799214,
0,1,0,0,1,0,0,0,circle,triangle,2,0,2,0,0,9,9,3,,,,,,,,356.49545283600014,356.49545283600014,356.49545283600014,356.49545283600014,356.49545283600014,356.49545283600014,356.49545283600014,356.49545283600014,356.49545283600014,356.49545283600014,a,0.4163036089998968,10,619,2,356.92924532300003,358.430823593,358.430823593,,51419,2022-10-25_08h14.48.778,vts_reward_expectancy_bt_OFFLINE,2022.2.4,59.901096221799214,
1,0,0,0,0,0,1,0,triangle,hexagon,2,0,2,0,0,10,10,1,,,,,,,,358.9313673680001,358.9313673680001,358.9313673680001,358.9313673680001,358.9313673680001,358.9313673680001,358.9313673680001,358.9313673680001,358.9313673680001,358.9313673680001,l,0.5629671409997172,1,620,2,359.515454655,,361.017178434,,51419,2022-10-25_08h14.48.778,vts_reward_expectancy_bt_OFFLINE,2022.2.4,59.901096221799214,
0,1,0,0,0,0,1,0,circle,hexagon,2,0,2,0,0,11,11,4,,,,,,,,361.51768713900015,361.51768713900015,361.51768713900015,361.51768713900015,361.51768713900015,361.51768713900015,361.51768713900015,361.51768713900015,361.51768713900015,361.51768713900015,a,0.4564703839998856,10,630,2,362.00153909200003,,363.5031704090002,,51419,2022-10-25_08h14.48.778,vts_reward_expectancy_bt_OFFLINE,2022.2.4,59.901096221799214,
0,0,1,0,0,0,0,1,hexagon,star,2,0,2,0,1,0,12,8,,,,,,,,364.0037446650001,364.0037446650001,364.0037446650001,364.0037446650001,364.0037446650001,364.0037446650001,364.0037446650001,364.0037446650001,364.0037446650001,364.0037446650001,l,0.7947924069999317,10,640,2,364.82141168600015,,366.3229426570001,,51419,2022-10-25_08h14.48.778,vts_reward_expectancy_bt_OFFLINE,2022.2.4,59.901096221799214,
1,0,0,0,0,0,0,1,triangle,star,2,0,2,0,1,1,13,2,,,,,,,,366.82394660700015,366.82394660700015,366.82394660700015,366.82394660700015,366.82394660700015,366.82394660700015,366.82394660700015,366.82394660700015,366.82394660700015,366.82394660700015,l,0.5431254180000451,10,650,2,367.39095153000017,,368.892607042,,51419,2022-10-25_08h14.48.778,vts_reward_expectancy_bt_OFFLINE,2022.2.4,59.901096221799214,
0,0,0,1,1,0,0,0,star,triangle,2,0,2,0,1,2,14,9,,,,,,,,369.3930875140002,369.3930875140002,369.3930875140002,369.3930875140002,369.3930875140002,369.3930875140002,369.3930875140002,369.3930875140002,369.3930875140002,369.3930875140002,a,0.5182508279999638,10,660,2,369.94400546600014,,371.44534044400007,,51419,2022-10-25_08h14.48.778,vts_reward_expectancy_bt_OFFLINE,2022.2.4,59.901096221799214,
1,0,0,0,0,0,1,0,triangle,hexagon,2,0,2,0,1,3,15,1,,,,,,,,371.94587594100017,371.94587594100017,371.94587594100017,371.94587594100017,371.94587594100017,371.94587594100017,371.94587594100017,371.94587594100017,371.94587594100017,371.94587594100017,a,1.0286522509998122,1,661,2,372.99701878200017,,374.49861186400017,,51419,2022-10-25_08h14.48.778,vts_reward_expectancy_bt_OFFLINE,2022.2.4,59.901096221799214,
0,0,1,0,0,1,0,0,hexagon,circle,2,0,2,0,1,4,16,7,,,,,,,,374.9993156190001,374.9993156190001,374.9993156190001,374.9993156190001,374.9993156190001,374.9993156190001,374.9993156190001,374.9993156190001,374.9993156190001,374.9993156190001,l,0.6955170700000508,10,671,2,375.7166762940001,,377.2183527750001,,51419,2022-10-25_08h14.48.778,vts_reward_expectancy_bt_OFFLINE,2022.2.4,59.901096221799214,
1,0,0,0,0,1,0,0,triangle,circle,2,0,2,0,1,5,17,0,,,,,,,,377.71884127400017,377.71884127400017,377.71884127400017,377.71884127400017,377.71884127400017,377.71884127400017,377.71884127400017,377.71884127400017,377.71884127400017,377.71884127400017,l,0.5036967739999909,10,681,2,378.2529664220001,,379.754298051,,51419,2022-10-25_08h14.48.778,vts_reward_expectancy_bt_OFFLINE,2022.2.4,59.901096221799214,
0,1,0,0,0,0,1,0,circle,hexagon,2,0,2,0,1,6,18,4,,,,,,,,380.255098891,380.255098891,380.255098891,380.255098891,380.255098891,380.255098891,380.255098891,380.255098891,380.255098891,380.255098891,a,0.5601960089998101,10,691,2,380.83913592800013,,382.3406064820001,,51419,2022-10-25_08h14.48.778,vts_reward_expectancy_bt_OFFLINE,2022.2.4,59.901096221799214,
0,0,0,1,0,0,1,0,star,hexagon,2,0,2,0,1,7,19,11,,,,,,,,382.841308431,382.841308431,382.841308431,382.841308431,382.841308431,382.841308431,382.841308431,382.841308431,382.841308431,382.841308431,a,0.9902173459997812,10,701,2,383.85885161300007,,385.360702381,,51419,2022-10-25_08h14.48.778,vts_reward_expectancy_bt_OFFLINE,2022.2.4,59.901096221799214,
0,0,1,0,1,0,0,0,hexagon,triangle,2,0,2,0,1,8,20,6,,,,,,,,385.86143902000003,385.86143902000003,385.86143902000003,385.86143902000003,385.86143902000003,385.86143902000003,385.86143902000003,385.86143902000003,385.86143902000003,385.86143902000003,l,1.090071117999969,1,702,2,386.9794753440001,,388.4807289070002,,51419,2022-10-25_08h14.48.778,vts_reward_expectancy_bt_OFFLINE,2022.2.4,59.901096221799214,
0,1,0,0,0,0,0,1,circle,star,2,0,2,0,1,9,21,5,,,,,,,,388.98123318800003,388.98123318800003,388.98123318800003,388.98123318800003,388.98123318800003,388.98123318800003,388.98123318800003,388.98123318800003,388.98123318800003,388.98123318800003,a,0.5136760299999423,10,712,2,389.5152221110002,,391.01694212200005,,51419,2022-10-25_08h14.48.778,vts_reward_expectancy_bt_OFFLINE,2022.2.4,59.901096221799214,
0,0,0,1,0,1,0,0,star ,circle,2,0,2,0,1,10,22,10,,,,,,,,391.517456711,391.517456711,391.517456711,391.517456711,391.517456711,391.517456711,391.517456711,391.517456711,391.517456711,391.517456711,l,0.5770720459997847,1,713,2,392.11838559500006,,393.6197026120001,,51419,2022-10-25_08h14.48.778,vts_reward_expectancy_bt_OFFLINE,2022.2.4,59.901096221799214,
0,1,0,0,1,0,0,0,circle,triangle,2,0,2,0,1,11,23,3,,,,,,,,394.120241136,394.120241136,394.120241136,394.120241136,394.120241136,394.120241136,394.120241136,394.120241136,394.120241136,394.120241136,a,0.5745146909998766,10,723,2,394.72084265800004,,396.2226979100001,,51419,2022-10-25_08h14.48.778,vts_reward_expectancy_bt_OFFLINE,2022.2.4,59.901096221799214,
0,0,0,1,0,0,1,0,star,hexagon,2,0,2,0,2,0,24,11,,,,,,,,396.723112917,396.723112917,396.723112917,396.723112917,396.723112917,396.723112917,396.723112917,396.723112917,396.723112917,396.723112917,l,0.6197901179998553,10,733,2,397.3741837260002,,398.8760288650001,,51419,2022-10-25_08h14.48.778,vts_reward_expectancy_bt_OFFLINE,2022.2.4,59.901096221799214,
1,0,0,0,0,0,1,0,triangle,hexagon,2,0,2,0,2,1,25,1,,,,,,,,399.3760938510002,399.3760938510002,399.3760938510002,399.3760938510002,399.3760938510002,399.3760938510002,399.3760938510002,399.3760938510002,399.3760938510002,399.3760938510002,a,1.2078519349997805,10,743,2,400.610990314,,402.11264204400004,,51419,2022-10-25_08h14.48.778,vts_reward_expectancy_bt_OFFLINE,2022.2.4,59.901096221799214,
0,0,1,0,0,0,0,1,hexagon,star,2,0,2,0,2,2,26,8,,,,,,,,402.61318688000006,402.61318688000006,402.61318688000006,402.61318688000006,402.61318688000006,402.61318688000006,402.61318688000006,402.61318688000006,402.61318688000006,402.61318688000006,l,0.6671752039999319,1,744,2,403.29747864800015,,404.79894960800016,,51419,2022-10-25_08h14.48.778,vts_reward_expectancy_bt_OFFLINE,2022.2.4,59.901096221799214,
0,0,0,1,0,1,0,0,star ,circle,2,0,2,0,2,3,27,10,,,,,,,,405.2994212000001,405.2994212000001,405.2994212000001,405.2994212000001,405.2994212000001,405.2994212000001,405.2994212000001,405.2994212000001,405.2994212000001,405.2994212000001,l,0.6185745579998638,10,754,2,405.95038272400006,,407.45168508300003,,51419,2022-10-25_08h14.48.778,vts_reward_expectancy_bt_OFFLINE,2022.2.4,59.901096221799214,
0,1,0,0,1,0,0,0,circle,triangle,2,0,2,0,2,4,28,3,,,,,,,,407.9523195690001,407.9523195690001,407.9523195690001,407.9523195690001,407.9523195690001,407.9523195690001,407.9523195690001,407.9523195690001,407.9523195690001,407.9523195690001,a,0.4941607319999548,10,764,2,408.46955252700013,,409.9710896600002,,51419,2022-10-25_08h14.48.778,vts_reward_expectancy_bt_OFFLINE,2022.2.4,59.901096221799214,
0,1,0,0,0,0,1,0,circle,hexagon,2,0,2,0,2,5,29,4,,,,,,,,410.471586096,410.471586096,410.471586096,410.471586096,410.471586096,410.471586096,410.471586096,410.471586096,410.471586096,410.471586096,a,0.4789835999997649,10,774,2,410.97235626300017,,412.4740789980001,,51419,2022-10-25_08h14.48.778,vts_reward_expectancy_bt_OFFLINE,2022.2.4,59.901096221799214,
0,1,0,0,0,0,0,1,circle,star,2,0,2,0,2,6,30,5,,,,,,,,412.97466073500004,412.97466073500004,412.97466073500004,412.97466073500004,412.97466073500004,412.97466073500004,412.97466073500004,412.97466073500004,412.97466073500004,412.97466073500004,a,0.5118803089997073,10,784,2,413.508650711,,415.01019540900006,,51419,2022-10-25_08h14.48.778,vts_reward_expectancy_bt_OFFLINE,2022.2.4,59.901096221799214,
1,0,0,0,0,1,0,0,triangle,circle,2,0,2,0,2,7,31,0,,,,,,,,415.511405405,415.511405405,415.511405405,415.511405405,415.511405405,415.511405405,415.511405405,415.511405405,415.511405405,415.511405405,l,0.5751376679997975,10,794,2,416.11155888999997,,417.6132162860001,,51419,2022-10-25_08h14.48.778,vts_reward_expectancy_bt_OFFLINE,2022.2.4,59.901096221799214,
0,0,1,0,1,0,0,0,hexagon,triangle,2,0,2,0,2,8,32,6,,,,,,,,418.11390537500006,418.11390537500006,418.11390537500006,418.11390537500006,418.11390537500006,418.11390537500006,418.11390537500006,418.11390537500006,418.11390537500006,418.11390537500006,l,1.1405889339998794,1,795,2,419.28143774700015,,420.78320918400004,,51419,2022-10-25_08h14.48.778,vts_reward_expectancy_bt_OFFLINE,2022.2.4,59.901096221799214,
0,0,0,1,1,0,0,0,star,triangle,2,0,2,0,2,9,33,9,,,,,,,,421.283874427,421.283874427,421.283874427,421.283874427,421.283874427,421.283874427,421.283874427,421.283874427,421.283874427,421.283874427,a,1.1779850359998818,1,796,2,422.48367475500004,,423.98682949,,51419,2022-10-25_08h14.48.778,vts_reward_expectancy_bt_OFFLINE,2022.2.4,59.901096221799214,
0,0,1,0,0,1,0,0,hexagon,circle,2,0,2,0,2,10,34,7,,,,,,,,424.48736020700017,424.48736020700017,424.48736020700017,424.48736020700017,424.48736020700017,424.48736020700017,424.48736020700017,424.48736020700017,424.48736020700017,424.48736020700017,l,0.6008069339998201,10,806,2,425.10445099599997,,426.60642009800017,,51419,2022-10-25_08h14.48.778,vts_reward_expectancy_bt_OFFLINE,2022.2.4,59.901096221799214,
1,0,0,0,0,0,0,1,triangle,star,2,0,2,0,2,11,35,2,,,,,,,,427.107009069,427.107009069,427.107009069,427.107009069,427.107009069,427.107009069,427.107009069,427.107009069,427.107009069,427.107009069,l,0.8113221179999073,10,816,2,427.94101046700007,,429.4427101450001,,51419,2022-10-25_08h14.48.778,vts_reward_expectancy_bt_OFFLINE,2022.2.4,59.901096221799214,
0,1,0,0,0,0,1,0,circle,hexagon,2,0,2,0,3,0,36,4,,,,,,,,429.9432803740001,429.9432803740001,429.9432803740001,429.9432803740001,429.9432803740001,429.9432803740001,429.9432803740001,429.9432803740001,429.9432803740001,429.9432803740001,a,0.6792198059999919,10,826,2,430.644114683,,432.1460005040001,,51419,2022-10-25_08h14.48.778,vts_reward_expectancy_bt_OFFLINE,2022.2.4,59.901096221799214,
0,0,1,0,0,0,0,1,hexagon,star,2,0,2,0,3,1,37,8,,,,,,,,432.6461789950001,432.6461789950001,432.6461789950001,432.6461789950001,432.6461789950001,432.6461789950001,432.6461789950001,432.6461789950001,432.6461789950001,432.6461789950001,l,0.5853161630000159,10,836,2,433.2634786360002,,434.76523710800006,,51419,2022-10-25_08h14.48.778,vts_reward_expectancy_bt_OFFLINE,2022.2.4,59.901096221799214,
0,0,0,1,0,1,0,0,star ,circle,2,0,2,0,3,2,38,10,,,,,,,,435.26560548500015,435.26560548500015,435.26560548500015,435.26560548500015,435.26560548500015,435.26560548500015,435.26560548500015,435.26560548500015,435.26560548500015,435.26560548500015,a,0.99663160099999,10,846,2,436.28345431900016,,437.78515179500005,,51419,2022-10-25_08h14.48.778,vts_reward_expectancy_bt_OFFLINE,2022.2.4,59.901096221799214,
0,0,0,1,0,0,1,0,star,hexagon,2,0,2,0,3,3,39,11,,,,,,,,438.28569028200013,438.28569028200013,438.28569028200013,438.28569028200013,438.28569028200013,438.28569028200013,438.28569028200013,438.28569028200013,438.28569028200013,438.28569028200013,a,0.9296122609998747,10,856,2,439.23671214700016,,440.73829645399996,,51419,2022-10-25_08h14.48.778,vts_reward_expectancy_bt_OFFLINE,2022.2.4,59.901096221799214,
1,0,0,0,0,0,1,0,triangle,hexagon,2,0,2,0,3,4,40,1,,,,,,,,441.238944596,441.238944596,441.238944596,441.238944596,441.238944596,441.238944596,441.238944596,441.238944596,441.238944596,441.238944596,l,1.0952147149998837,1,857,2,442.3571598440001,,443.85897970400015,,51419,2022-10-25_08h14.48.778,vts_reward_expectancy_bt_OFFLINE,2022.2.4,59.901096221799214,
0,0,1,0,1,0,0,0,hexagon,triangle,2,0,2,0,3,5,41,6,,,,,,,,444.35952218500006,444.35952218500006,444.35952218500006,444.35952218500006,444.35952218500006,444.35952218500006,444.35952218500006,444.35952218500006,444.35952218500006,444.35952218500006,l,0.6475910919998569,1,858,2,445.0266389390001,,446.52831256700006,,51419,2022-10-25_08h14.48.778,vts_reward_expectancy_bt_OFFLINE,2022.2.4,59.901096221799214,
1,0,0,0,0,0,0,1,triangle,star,2,0,2,0,3,6,42,2,,,,,,,,447.02884292500016,447.02884292500016,447.02884292500016,447.02884292500016,447.02884292500016,447.02884292500016,447.02884292500016,447.02884292500016,447.02884292500016,447.02884292500016,l,0.7065149379998275,10,868,2,447.76321391500005,,449.26438528100016,,51419,2022-10-25_08h14.48.778,vts_reward_expectancy_bt_OFFLINE,2022.2.4,59.901096221799214,
0,1,0,0,0,0,0,1,circle,star,2,0,2,0,3,7,43,5,,,,,,,,449.765090807,449.765090807,449.765090807,449.765090807,449.765090807,449.765090807,449.765090807,449.765090807,449.765090807,449.765090807,a,0.5133309759999065,10,878,2,450.29933531300003,,451.8006140690002,,51419,2022-10-25_08h14.48.778,vts_reward_expectancy_bt_OFFLINE,2022.2.4,59.901096221799214,
0,0,1,0,0,1,0,0,hexagon,circle,2,0,2,0,3,8,44,7,,,,,,,,452.301378546,452.301378546,452.301378546,452.301378546,452.301378546,452.301378546,452.301378546,452.301378546,452.301378546,452.301378546,l,0.6181064749998768,1,879,2,452.9521007850001,,454.4536938020001,,51419,2022-10-25_08h14.48.778,vts_reward_expectancy_bt_OFFLINE,2022.2.4,59.901096221799214,
0,1,0,0,1,0,0,0,circle,triangle,2,0,2,0,3,9,45,3,,,,,,,,454.9540389790002,454.9540389790002,454.9540389790002,454.9540389790002,454.9540389790002,454.9540389790002,454.9540389790002,454.9540389790002,454.9540389790002,454.9540389790002,a,0.38951269999984106,10,889,2,455.371625494,,456.8729801280001,,51419,2022-10-25_08h14.48.778,vts_reward_expectancy_bt_OFFLINE,2022.2.4,59.901096221799214,
0,0,0,1,1,0,0,0,star,triangle,2,0,2,0,3,10,46,9,,,,,,,,457.37398931100006,457.37398931100006,457.37398931100006,457.37398931100006,457.37398931100006,457.37398931100006,457.37398931100006,457.37398931100006,457.37398931100006,457.37398931100006,l,0.3450887179999427,1,890,2,457.740624046,,459.24218368900006,,51419,2022-10-25_08h14.48.778,vts_reward_expectancy_bt_OFFLINE,2022.2.4,59.901096221799214,
1,0,0,0,0,1,0,0,triangle,circle,2,0,2,0,3,11,47,0,,,,,,,,459.74286915200014,459.74286915200014,459.74286915200014,459.74286915200014,459.74286915200014,459.74286915200014,459.74286915200014,459.74286915200014,459.74286915200014,459.74286915200014,l,0.8961133169998448,10,900,2,460.660523197,,462.1623360780002,,51419,2022-10-25_08h14.48.778,vts_reward_expectancy_bt_OFFLINE,2022.2.4,59.901096221799214,
