LTriangleOpac,LCircleOpac,LHexagonOpac,LStarOpac,RTriangleOpac,RCircleOpac,RHexagonOpac,RStarOpac,LShape_ID,RShape_ID,training_blocks.thisRepN,training_blocks.thisTrialN,training_blocks.thisN,training_blocks.thisIndex,training.thisRepN,training.thisTrialN,training.thisN,training.thisIndex,task1_prac_redo.thisRepN,task1_prac_redo.thisTrialN,task1_prac_redo.thisN,task1_prac_redo.thisIndex,task1_prac_trials.thisRepN,task1_prac_trials.thisTrialN,task1_prac_trials.thisN,task1_prac_trials.thisIndex,key_resp.started,key_resp.keys,key_resp.rt,left_circle.started,right_circle.started,left_triangle.started,right_triangle.started,left_star.started,right_star.started,left_hexagon.started,right_hexagon.started,training_fix.started,training_resp.started,training_resp.keys,training_resp.rt,points_trial,points_cumul,trainBlock,training_feedback_txt.started,fix.started,training_feedback_txt.stopped,fix.stopped,curr_topStim,curr_bottStim,curr_shape,ISI.started,tgt_fix_prac1.started,top_target_prac1.started,bott_target_prac1.started,target_resp_prac1.started,top_target_prac1.stopped,bott_target_prac1.stopped,target_resp_prac1.stopped,acc,E1,target_resp_prac1.keys,pracBlock,prac_fback_text.started,target_resp_prac1.rt,prac_fback_text.stopped,participant,date,expName,psychopyVersion,frameRate,
,,,,,,,,,,,,,,,,,,,,,,,,,,24.002667482942343,space,3.93848740006797,,,,,,,,,,,,,,,,,,,,,,,,,,,,,,,,,,,,,,58294,2022-11-08_10h17.39.240,vts_reward_expectancy_bt_OFFLINE,2022.2.4,60.147013149159356,
0,1,0,0,0,0,0,1,circle,star,0,0,0,0,0,0,0,5,,,,,,,,,,,,81.72382217692211,81.72382217692211,81.72382217692211,81.72382217692211,81.72382217692211,81.72382217692211,81.72382217692211,81.72382217692211,81.72382217692211,81.72382217692211,l,1.570783870993182,1,1,0,83.31477320601698,84.81569201895036,,,,,,,,,,,,,,,,,,,,,58294,2022-11-08_10h17.39.240,vts_reward_expectancy_bt_OFFLINE,2022.2.4,60.147013149159356,
0,0,0,1,0,1,0,0,star ,circle,0,0,0,0,0,1,1,10,,,,,,,,,,,,85.31606981891673,85.31606981891673,85.31606981891673,85.31606981891673,85.31606981891673,85.31606981891673,85.31606981891673,85.31606981891673,85.31606981891673,85.31606981891673,l,0.9592094490071759,10,11,0,86.30121608392801,87.80084866692778,87.80084866692778,88.30037748801988,,,,,,,,,,,,,,,,,,,58294,2022-11-08_10h17.39.240,vts_reward_expectancy_bt_OFFLINE,2022.2.4,60.147013149159356,
0,0,1,0,1,0,0,0,hexagon,triangle,0,0,0,0,0,2,2,6,,,,,,,,,,,,88.30037748801988,88.30037748801988,88.30037748801988,88.30037748801988,88.30037748801988,88.30037748801988,88.30037748801988,88.30037748801988,88.30037748801988,88.30037748801988,l,1.3728303120005876,1,12,0,89.703633883968,91.20270859298762,91.20270859298762,91.70306152792182,,,,,,,,,,,,,,,,,,,58294,2022-11-08_10h17.39.240,vts_reward_expectancy_bt_OFFLINE,2022.2.4,60.147013149159356,
1,0,0,0,0,0,1,0,triangle,hexagon,0,0,0,0,0,3,3,1,,,,,,,,,,,,91.70306152792182,91.70306152792182,91.70306152792182,91.70306152792182,91.70306152792182,91.70306152792182,91.70306152792182,91.70306152792182,91.70306152792182,91.70306152792182,l,1.1311951489187777,1,13,0,92.8534034199547,94.35586246591993,,,,,,,,,,,,,,,,,,,,,58294,2022-11-08_10h17.39.240,vts_reward_expectancy_bt_OFFLINE,2022.2.4,60.147013149159356,
0,0,1,0,0,1,0,0,hexagon,circle,0,0,0,0,0,4,4,7,,,,,,,,,,,,94.85602299601305,94.85602299601305,94.85602299601305,94.85602299601305,94.85602299601305,94.85602299601305,94.85602299601305,94.85602299601305,94.85602299601305,94.85602299601305,l,0.588879197021015,10,23,0,95.47355528292246,96.9738929279847,96.9738929279847,,,,,,,,,,,,,,,,,,,,58294,2022-11-08_10h17.39.240,vts_reward_expectancy_bt_OFFLINE,2022.2.4,60.147013149159356,
0,1,0,0,1,0,0,0,circle,triangle,0,0,0,0,0,5,5,3,,,,,,,,,,,,97.47393223096151,97.47393223096151,97.47393223096151,97.47393223096151,97.47393223096151,97.47393223096151,97.47393223096151,97.47393223096151,97.47393223096151,97.47393223096151,a,0.6939681870862842,10,33,0,98.19104514596984,99.69370877998881,,,,,,,,,,,,,,,,,,,,,58294,2022-11-08_10h17.39.240,vts_reward_expectancy_bt_OFFLINE,2022.2.4,60.147013149159356,
0,0,0,1,0,0,1,0,star,hexagon,0,0,0,0,0,6,6,11,,,,,,,,,,,,100.19389718293678,100.19389718293678,100.19389718293678,100.19389718293678,100.19389718293678,100.19389718293678,100.19389718293678,100.19389718293678,100.19389718293678,100.19389718293678,l,1.8221749479416758,10,43,0,102.04462265700568,103.54505257599521,103.54505257599521,,,,,,,,,,,,,,,,,,,,58294,2022-11-08_10h17.39.240,vts_reward_expectancy_bt_OFFLINE,2022.2.4,60.147013149159356,
0,0,0,1,1,0,0,0,star,triangle,0,0,0,0,0,7,7,9,,,,,,,,,,,,104.04712714499328,104.04712714499328,104.04712714499328,104.04712714499328,104.04712714499328,104.04712714499328,104.04712714499328,104.04712714499328,104.04712714499328,104.04712714499328,a,1.9057429210515693,1,44,0,105.98129998298828,107.4813488869695,107.4813488869695,107.98138919996563,,,,,,,,,,,,,,,,,,,58294,2022-11-08_10h17.39.240,vts_reward_expectancy_bt_OFFLINE,2022.2.4,60.147013149159356,
1,0,0,0,0,1,0,0,triangle,circle,0,0,0,0,0,8,8,0,,,,,,,,,,,,107.98138919996563,107.98138919996563,107.98138919996563,107.98138919996563,107.98138919996563,107.98138919996563,107.98138919996563,107.98138919996563,107.98138919996563,107.98138919996563,l,1.302551380940713,10,54,0,109.30166238592938,110.80141051695682,110.80141051695682,111.301497823908,,,,,,,,,,,,,,,,,,,58294,2022-11-08_10h17.39.240,vts_reward_expectancy_bt_OFFLINE,2022.2.4,60.147013149159356,
1,0,0,0,0,0,0,1,triangle,star,0,0,0,0,0,9,9,2,,,,,,,,,,,,111.301497823908,111.301497823908,111.301497823908,111.301497823908,111.301497823908,111.301497823908,111.301497823908,111.301497823908,111.301497823908,111.301497823908,a,2.5387003569630906,10,64,0,113.87077881791629,115.37130397791043,115.37130397791043,115.87123377993703,,,,,,,,,,,,,,,,,,,58294,2022-11-08_10h17.39.240,vts_reward_expectancy_bt_OFFLINE,2022.2.4,60.147013149159356,
0,1,0,0,0,0,1,0,circle,hexagon,0,0,0,0,0,10,10,4,,,,,,,,,,,,115.87123377993703,115.87123377993703,115.87123377993703,115.87123377993703,115.87123377993703,115.87123377993703,115.87123377993703,115.87123377993703,115.87123377993703,115.87123377993703,l,0.8823850519256666,1,65,0,116.77233892900404,118.27221537590958,118.27221537590958,,,,,,,,,,,,,,,,,,,,58294,2022-11-08_10h17.39.240,vts_reward_expectancy_bt_OFFLINE,2022.2.4,60.147013149159356,
0,0,1,0,0,0,0,1,hexagon,star,0,0,0,0,0,11,11,8,,,,,,,,,,,,118.77550264296588,118.77550264296588,118.77550264296588,118.77550264296588,118.77550264296588,118.77550264296588,118.77550264296588,118.77550264296588,118.77550264296588,118.77550264296588,a,1.3759635899914429,10,75,0,120.1754260729067,121.67519700201228,121.67519700201228,122.17545636091381,,,,,,,,,,,,,,,,,,,58294,2022-11-08_10h17.39.240,vts_reward_expectancy_bt_OFFLINE,2022.2.4,60.147013149159356,
0,0,1,0,1,0,0,0,hexagon,triangle,0,0,0,0,1,0,12,6,,,,,,,,,,,,122.17545636091381,122.17545636091381,122.17545636091381,122.17545636091381,122.17545636091381,122.17545636091381,122.17545636091381,122.17545636091381,122.17545636091381,122.17545636091381,a,1.1939484730828553,10,85,0,123.39229972101748,124.89504783297889,,,,,,,,,,,,,,,,,,,,,58294,2022-11-08_10h17.39.240,vts_reward_expectancy_bt_OFFLINE,2022.2.4,60.147013149159356,
0,0,0,1,0,1,0,0,star ,circle,0,0,0,0,1,1,13,10,,,,,,,,,,,,125.39521541295107,125.39521541295107,125.39521541295107,125.39521541295107,125.39521541295107,125.39521541295107,125.39521541295107,125.39521541295107,125.39521541295107,125.39521541295107,l,0.6067463019862771,10,95,0,126.02861748298164,127.52939409099054,127.52939409099054,128.02930434094742,,,,,,,,,,,,,,,,,,,58294,2022-11-08_10h17.39.240,vts_reward_expectancy_bt_OFFLINE,2022.2.4,60.147013149159356,
0,0,0,1,0,0,1,0,star,hexagon,0,0,0,0,1,2,14,11,,,,,,,,,,,,128.02930434094742,128.02930434094742,128.02930434094742,128.02930434094742,128.02930434094742,128.02930434094742,128.02930434094742,128.02930434094742,128.02930434094742,128.02930434094742,l,1.876028988044709,10,105,0,129.93180645699613,131.43259558198042,131.43259558198042,131.93274790397845,,,,,,,,,,,,,,,,,,,58294,2022-11-08_10h17.39.240,vts_reward_expectancy_bt_OFFLINE,2022.2.4,60.147013149159356,
0,0,0,1,1,0,0,0,star,triangle,0,0,0,0,1,3,15,9,,,,,,,,,,,,131.93274790397845,131.93274790397845,131.93274790397845,131.93274790397845,131.93274790397845,131.93274790397845,131.93274790397845,131.93274790397845,131.93274790397845,131.93274790397845,l,1.382369727944024,10,115,0,133.3330828989856,134.8355037739966,,,,,,,,,,,,,,,,,,,,,58294,2022-11-08_10h17.39.240,vts_reward_expectancy_bt_OFFLINE,2022.2.4,60.147013149159356,
0,1,0,0,1,0,0,0,circle,triangle,0,0,0,0,1,4,16,3,,,,,,,,,,,,135.33573521999642,135.33573521999642,135.33573521999642,135.33573521999642,135.33573521999642,135.33573521999642,135.33573521999642,135.33573521999642,135.33573521999642,135.33573521999642,a,0.7464809640077874,1,116,0,136.1030477390159,137.6029962769244,,,,,,,,,,,,,,,,,,,,,58294,2022-11-08_10h17.39.240,vts_reward_expectancy_bt_OFFLINE,2022.2.4,60.147013149159356,
0,1,0,0,0,0,0,1,circle,star,0,0,0,0,1,5,17,5,,,,,,,,,,,,138.1033629690064,138.1033629690064,138.1033629690064,138.1033629690064,138.1033629690064,138.1033629690064,138.1033629690064,138.1033629690064,138.1033629690064,138.1033629690064,a,0.702277022995986,1,117,0,138.8221971919993,140.32316618098412,140.32316618098412,140.82305331190582,,,,,,,,,,,,,,,,,,,58294,2022-11-08_10h17.39.240,vts_reward_expectancy_bt_OFFLINE,2022.2.4,60.147013149159356,
1,0,0,0,0,0,0,1,triangle,star,0,0,0,0,1,6,18,2,,,,,,,,,,,,140.82305331190582,140.82305331190582,140.82305331190582,140.82305331190582,140.82305331190582,140.82305331190582,140.82305331190582,140.82305331190582,140.82305331190582,140.82305331190582,a,0.9179719279054552,1,118,0,141.7733510530088,143.27414642099757,143.27414642099757,,,,,,,,,,,,,,,,,,,,58294,2022-11-08_10h17.39.240,vts_reward_expectancy_bt_OFFLINE,2022.2.4,60.147013149159356,
1,0,0,0,0,1,0,0,triangle,circle,0,0,0,0,1,7,19,0,,,,,,,,,,,,143.78004028100986,143.78004028100986,143.78004028100986,143.78004028100986,143.78004028100986,143.78004028100986,143.78004028100986,143.78004028100986,143.78004028100986,143.78004028100986,l,0.5387074360623956,10,128,0,144.34362548193894,145.84313335700426,145.84313335700426,146.34327950398438,,,,,,,,,,,,,,,,,,,58294,2022-11-08_10h17.39.240,vts_reward_expectancy_bt_OFFLINE,2022.2.4,60.147013149159356,
0,1,0,0,0,0,1,0,circle,hexagon,0,0,0,0,1,8,20,4,,,,,,,,,,,,146.34327950398438,146.34327950398438,146.34327950398438,146.34327950398438,146.34327950398438,146.34327950398438,146.34327950398438,146.34327950398438,146.34327950398438,146.34327950398438,l,1.0119436359964311,1,129,0,147.37785590300336,148.8796938000014,,,,,,,,,,,,,,,,,,,,,58294,2022-11-08_10h17.39.240,vts_reward_expectancy_bt_OFFLINE,2022.2.4,60.147013149159356,
0,0,1,0,0,0,0,1,hexagon,star,0,0,0,0,1,9,21,8,,,,,,,,,,,,149.37982861790806,149.37982861790806,149.37982861790806,149.37982861790806,149.37982861790806,149.37982861790806,149.37982861790806,149.37982861790806,149.37982861790806,149.37982861790806,a,0.6537773379823193,10,139,0,150.0639982779976,151.56371227197815,151.56371227197815,,,,,,,,,,,,,,,,,,,,58294,2022-11-08_10h17.39.240,vts_reward_expectancy_bt_OFFLINE,2022.2.4,60.147013149159356,
0,0,1,0,0,1,0,0,hexagon,circle,0,0,0,0,1,10,22,7,,,,,,,,,,,,152.06400639598724,152.06400639598724,152.06400639598724,152.06400639598724,152.06400639598724,152.06400639598724,152.06400639598724,152.06400639598724,152.06400639598724,152.06400639598724,l,0.5787707159761339,10,149,0,152.66406307497527,154.16646593890619,,,,,,,,,,,,,,,,,,,,,58294,2022-11-08_10h17.39.240,vts_reward_expectancy_bt_OFFLINE,2022.2.4,60.147013149159356,
1,0,0,0,0,0,1,0,triangle,hexagon,0,0,0,0,1,11,23,1,,,,,,,,,,,,154.6666181369219,154.6666181369219,154.6666181369219,154.6666181369219,154.6666181369219,154.6666181369219,154.6666181369219,154.6666181369219,154.6666181369219,154.6666181369219,l,1.7902383409673348,10,159,0,156.48430771392304,157.98505934292916,157.98505934292916,158.48486184200738,,,,,,,,,,,,,,,,,,,58294,2022-11-08_10h17.39.240,vts_reward_expectancy_bt_OFFLINE,2022.2.4,60.147013149159356,
0,0,1,0,0,0,0,1,hexagon,star,0,0,0,0,2,0,24,8,,,,,,,,,,,,158.48486184200738,158.48486184200738,158.48486184200738,158.48486184200738,158.48486184200738,158.48486184200738,158.48486184200738,158.48486184200738,158.48486184200738,158.48486184200738,a,0.729112341068685,1,160,0,159.23817576491274,160.7378670409089,160.7378670409089,161.23772101395298,,,,,,,,,,,,,,,,,,,58294,2022-11-08_10h17.39.240,vts_reward_expectancy_bt_OFFLINE,2022.2.4,60.147013149159356,
0,0,1,0,0,1,0,0,hexagon,circle,0,0,0,0,2,1,25,7,,,,,,,,,,,,161.23772101395298,161.23772101395298,161.23772101395298,161.23772101395298,161.23772101395298,161.23772101395298,161.23772101395298,161.23772101395298,161.23772101395298,161.23772101395298,l,0.8669633759418502,10,170,0,162.1382503499044,163.63868338090833,163.63868338090833,,,,,,,,,,,,,,,,,,,,58294,2022-11-08_10h17.39.240,vts_reward_expectancy_bt_OFFLINE,2022.2.4,60.147013149159356,
0,0,1,0,1,0,0,0,hexagon,triangle,0,0,0,0,2,2,26,6,,,,,,,,,,,,164.14067287393846,164.14067287393846,164.14067287393846,164.14067287393846,164.14067287393846,164.14067287393846,164.14067287393846,164.14067287393846,164.14067287393846,164.14067287393846,a,0.7540207129204646,1,171,0,164.92474095791113,166.4248252939433,166.4248252939433,166.9248842789093,,,,,,,,,,,,,,,,,,,58294,2022-11-08_10h17.39.240,vts_reward_expectancy_bt_OFFLINE,2022.2.4,60.147013149159356,
1,0,0,0,0,0,1,0,triangle,hexagon,0,0,0,0,2,3,27,1,,,,,,,,,,,,166.9248842789093,166.9248842789093,166.9248842789093,166.9248842789093,166.9248842789093,166.9248842789093,166.9248842789093,166.9248842789093,166.9248842789093,166.9248842789093,a,0.5687138519715518,10,181,0,167.52520280797035,169.02738171594683,,,,,,,,,,,,,,,,,,,,,58294,2022-11-08_10h17.39.240,vts_reward_expectancy_bt_OFFLINE,2022.2.4,60.147013149159356,
0,1,0,0,1,0,0,0,circle,triangle,0,0,0,0,2,4,28,3,,,,,,,,,,,,169.5277330999961,169.5277330999961,169.5277330999961,169.5277330999961,169.5277330999961,169.5277330999961,169.5277330999961,169.5277330999961,169.5277330999961,169.5277330999961,a,0.8580950920004398,1,182,0,170.41229985491373,171.91176546900533,171.91176546900533,172.41195094794966,,,,,,,,,,,,,,,,,,,58294,2022-11-08_10h17.39.240,vts_reward_expectancy_bt_OFFLINE,2022.2.4,60.147013149159356,
0,1,0,0,0,0,0,1,circle,star,0,0,0,0,2,5,29,5,,,,,,,,,,,,172.41195094794966,172.41195094794966,172.41195094794966,172.41195094794966,172.41195094794966,172.41195094794966,172.41195094794966,172.41195094794966,172.41195094794966,172.41195094794966,a,0.4821970670018345,1,183,0,172.9120615440188,174.41433369601145,,,,,,,,,,,,,,,,,,,,,58294,2022-11-08_10h17.39.240,vts_reward_expectancy_bt_OFFLINE,2022.2.4,60.147013149159356,
1,0,0,0,0,1,0,0,triangle,circle,0,0,0,0,2,6,30,0,,,,,,,,,,,,174.91448297491297,174.91448297491297,174.91448297491297,174.91448297491297,174.91448297491297,174.91448297491297,174.91448297491297,174.91448297491297,174.91448297491297,174.91448297491297,l,0.4208016199991107,1,184,0,175.36484376399312,176.8653906439431,176.8653906439431,177.3655699439114,,,,,,,,,,,,,,,,,,,58294,2022-11-08_10h17.39.240,vts_reward_expectancy_bt_OFFLINE,2022.2.4,60.147013149159356,
0,0,0,1,0,1,0,0,star ,circle,0,0,0,0,2,7,31,10,,,,,,,,,,,,177.3655699439114,177.3655699439114,177.3655699439114,177.3655699439114,177.3655699439114,177.3655699439114,177.3655699439114,177.3655699439114,177.3655699439114,177.3655699439114,l,0.4794391590403393,10,194,0,177.8671465839725,179.3680617309874,,,,,,,,,,,,,,,,,,,,,58294,2022-11-08_10h17.39.240,vts_reward_expectancy_bt_OFFLINE,2022.2.4,60.147013149159356,
0,1,0,0,0,0,1,0,circle,hexagon,0,0,0,0,2,8,32,4,,,,,,,,,,,,179.8683306069579,179.8683306069579,179.8683306069579,179.8683306069579,179.8683306069579,179.8683306069579,179.8683306069579,179.8683306069579,179.8683306069579,179.8683306069579,a,0.7332022610353306,1,195,0,180.61975714296568,182.11904942791443,182.11904942791443,182.6191023410065,,,,,,,,,,,,,,,,,,,58294,2022-11-08_10h17.39.240,vts_reward_expectancy_bt_OFFLINE,2022.2.4,60.147013149159356,
1,0,0,0,0,0,0,1,triangle,star,0,0,0,0,2,9,33,2,,,,,,,,,,,,182.6191023410065,182.6191023410065,182.6191023410065,182.6191023410065,182.6191023410065,182.6191023410065,182.6191023410065,182.6191023410065,182.6191023410065,182.6191023410065,a,1.6836356460116804,1,196,0,184.32180912792683,185.822379471967,185.822379471967,,,,,,,,,,,,,,,,,,,,58294,2022-11-08_10h17.39.240,vts_reward_expectancy_bt_OFFLINE,2022.2.4,60.147013149159356,
0,0,0,1,0,0,1,0,star,hexagon,0,0,0,0,2,10,34,11,,,,,,,,,,,,186.322548251017,186.322548251017,186.322548251017,186.322548251017,186.322548251017,186.322548251017,186.322548251017,186.322548251017,186.322548251017,186.322548251017,l,0.5680429160129279,1,197,0,186.92260118294507,188.42333920800593,188.42333920800593,,,,,,,,,,,,,,,,,,,,58294,2022-11-08_10h17.39.240,vts_reward_expectancy_bt_OFFLINE,2022.2.4,60.147013149159356,
0,0,0,1,1,0,0,0,star,triangle,0,0,0,0,2,11,35,9,,,,,,,,,,,,188.92512460099533,188.92512460099533,188.92512460099533,188.92512460099533,188.92512460099533,188.92512460099533,188.92512460099533,188.92512460099533,188.92512460099533,188.92512460099533,a,0.9234724859707057,1,198,0,189.87548517994583,191.37622895697132,191.37622895697132,,,,,,,,,,,,,,,,,,,,58294,2022-11-08_10h17.39.240,vts_reward_expectancy_bt_OFFLINE,2022.2.4,60.147013149159356,
0,0,0,1,1,0,0,0,star,triangle,0,0,0,0,3,0,36,9,,,,,,,,,,,,191.87613074399997,191.87613074399997,191.87613074399997,191.87613074399997,191.87613074399997,191.87613074399997,191.87613074399997,191.87613074399997,191.87613074399997,191.87613074399997,l,0.8196222028927878,1,199,0,192.7266066179145,194.22878931590822,,,,,,,,,,,,,,,,,,,,,58294,2022-11-08_10h17.39.240,vts_reward_expectancy_bt_OFFLINE,2022.2.4,60.147013149159356,
1,0,0,0,0,1,0,0,triangle,circle,0,0,0,0,3,1,37,0,,,,,,,,,,,,194.7291267149849,194.7291267149849,194.7291267149849,194.7291267149849,194.7291267149849,194.7291267149849,194.7291267149849,194.7291267149849,194.7291267149849,194.7291267149849,l,0.6668914570473135,1,200,0,195.41302313597407,196.9135442059487,196.9135442059487,197.41353550599888,,,,,,,,,,,,,,,,,,,58294,2022-11-08_10h17.39.240,vts_reward_expectancy_bt_OFFLINE,2022.2.4,60.147013149159356,
0,0,1,0,0,1,0,0,hexagon,circle,0,0,0,0,3,2,38,7,,,,,,,,,,,,197.41353550599888,197.41353550599888,197.41353550599888,197.41353550599888,197.41353550599888,197.41353550599888,197.41353550599888,197.41353550599888,197.41353550599888,197.41353550599888,l,0.49130666395649314,1,201,0,197.93033842090517,199.4326975439908,,,,,,,,,,,,,,,,,,,,,58294,2022-11-08_10h17.39.240,vts_reward_expectancy_bt_OFFLINE,2022.2.4,60.147013149159356,
0,1,0,0,1,0,0,0,circle,triangle,0,0,0,0,3,3,39,3,,,,,,,,,,,,199.9329504359048,199.9329504359048,199.9329504359048,199.9329504359048,199.9329504359048,199.9329504359048,199.9329504359048,199.9329504359048,199.9329504359048,199.9329504359048,a,0.5812126620439813,1,202,0,200.53319897991605,202.03357147693168,202.03357147693168,,,,,,,,,,,,,,,,,,,,58294,2022-11-08_10h17.39.240,vts_reward_expectancy_bt_OFFLINE,2022.2.4,60.147013149159356,
0,1,0,0,0,0,0,1,circle,star,0,0,0,0,3,4,40,5,,,,,,,,,,,,202.53381330892444,202.53381330892444,202.53381330892444,202.53381330892444,202.53381330892444,202.53381330892444,202.53381330892444,202.53381330892444,202.53381330892444,202.53381330892444,l,0.7929408740019426,10,212,0,203.35170565894805,204.85334039700683,,,,,,,,,,,,,,,,,,,,,58294,2022-11-08_10h17.39.240,vts_reward_expectancy_bt_OFFLINE,2022.2.4,60.147013149159356,
0,1,0,0,0,0,1,0,circle,hexagon,0,0,0,0,3,5,41,4,,,,,,,,,,,,205.3533791549271,205.3533791549271,205.3533791549271,205.3533791549271,205.3533791549271,205.3533791549271,205.3533791549271,205.3533791549271,205.3533791549271,205.3533791549271,l,0.7414360899711028,10,222,0,206.12052348896395,207.62118748901412,207.62118748901412,208.12128946301527,,,,,,,,,,,,,,,,,,,58294,2022-11-08_10h17.39.240,vts_reward_expectancy_bt_OFFLINE,2022.2.4,60.147013149159356,
1,0,0,0,0,0,1,0,triangle,hexagon,0,0,0,0,3,6,42,1,,,,,,,,,,,,208.12128946301527,208.12128946301527,208.12128946301527,208.12128946301527,208.12128946301527,208.12128946301527,208.12128946301527,208.12128946301527,208.12128946301527,208.12128946301527,l,1.1120954569196329,1,223,0,209.25713663792703,210.75732235691976,,211.25723789690528,,,,,,,,,,,,,,,,,,,58294,2022-11-08_10h17.39.240,vts_reward_expectancy_bt_OFFLINE,2022.2.4,60.147013149159356,
1,0,0,0,0,0,0,1,triangle,star,0,0,0,0,3,7,43,2,,,,,,,,,,,,211.25723789690528,211.25723789690528,211.25723789690528,211.25723789690528,211.25723789690528,211.25723789690528,211.25723789690528,211.25723789690528,211.25723789690528,211.25723789690528,a,1.8250161999603733,1,224,0,213.1078464249149,214.61026165494695,,,,,,,,,,,,,,,,,,,,,58294,2022-11-08_10h17.39.240,vts_reward_expectancy_bt_OFFLINE,2022.2.4,60.147013149159356,
0,0,0,1,0,0,1,0,star,hexagon,0,0,0,0,3,8,44,11,,,,,,,,,,,,215.11061149695888,215.11061149695888,215.11061149695888,215.11061149695888,215.11061149695888,215.11061149695888,215.11061149695888,215.11061149695888,215.11061149695888,215.11061149695888,l,0.8288194700144231,1,225,0,215.96087979897857,217.46127501199953,217.46127501199953,217.9617269859882,,,,,,,,,,,,,,,,,,,58294,2022-11-08_10h17.39.240,vts_reward_expectancy_bt_OFFLINE,2022.2.4,60.147013149159356,
0,0,1,0,0,0,0,1,hexagon,star,0,0,0,0,3,9,45,8,,,,,,,,,,,,217.9617269859882,217.9617269859882,217.9617269859882,217.9617269859882,217.9617269859882,217.9617269859882,217.9617269859882,217.9617269859882,217.9617269859882,217.9617269859882,a,0.5762086110189557,10,235,0,218.56289642199408,220.06432752590626,,,,,,,,,,,,,,,,,,,,,58294,2022-11-08_10h17.39.240,vts_reward_expectancy_bt_OFFLINE,2022.2.4,60.147013149159356,
0,0,0,1,0,1,0,0,star ,circle,0,0,0,0,3,10,46,10,,,,,,,,,,,,220.56430483597796,220.56430483597796,220.56430483597796,220.56430483597796,220.56430483597796,220.56430483597796,220.56430483597796,220.56430483597796,220.56430483597796,220.56430483597796,l,1.304222067934461,10,245,0,221.89805613690987,223.3986172589939,223.3986172589939,,,,,,,,,,,,,,,,,,,,58294,2022-11-08_10h17.39.240,vts_reward_expectancy_bt_OFFLINE,2022.2.4,60.147013149159356,
0,0,1,0,1,0,0,0,hexagon,triangle,0,0,0,0,3,11,47,6,,,,,,,,,,,,223.90048823796678,223.90048823796678,223.90048823796678,223.90048823796678,223.90048823796678,223.90048823796678,223.90048823796678,223.90048823796678,223.90048823796678,223.90048823796678,a,0.6564266950590536,10,255,0,224.5846394529799,226.0850996589288,226.0850996589288,226.59109830192756,,,,,,,,,,,,,,,,,,,58294,2022-11-08_10h17.39.240,vts_reward_expectancy_bt_OFFLINE,2022.2.4,60.147013149159356,
0,0,0,1,1,0,0,0,star,triangle,1,0,1,0,0,0,0,9,,,,,,,,,,,,234.76937579899095,234.76937579899095,234.76937579899095,234.76937579899095,234.76937579899095,234.76937579899095,234.76937579899095,234.76937579899095,234.76937579899095,234.76937579899095,l,1.0832117300014943,10,265,1,235.87553938594647,237.3758207570063,237.3758207570063,237.87606674991548,,,,,,,,,,,,,,,,,,,58294,2022-11-08_10h17.39.240,vts_reward_expectancy_bt_OFFLINE,2022.2.4,60.147013149159356,
0,0,1,0,0,1,0,0,hexagon,circle,1,0,1,0,0,1,1,7,,,,,,,,,,,,237.87606674991548,237.87606674991548,237.87606674991548,237.87606674991548,237.87606674991548,237.87606674991548,237.87606674991548,237.87606674991548,237.87606674991548,237.87606674991548,l,0.586230025975965,1,266,1,238.4943001170177,239.99581157998182,,,,,,,,,,,,,,,,,,,,,58294,2022-11-08_10h17.39.240,vts_reward_expectancy_bt_OFFLINE,2022.2.4,60.147013149159356,
0,1,0,0,0,0,0,1,circle,star,1,0,1,0,0,2,2,5,,,,,,,,,,,,240.4958062269725,240.4958062269725,240.4958062269725,240.4958062269725,240.4958062269725,240.4958062269725,240.4958062269725,240.4958062269725,240.4958062269725,240.4958062269725,a,0.5429951280821115,10,276,1,241.0636901789112,242.56306372198742,242.56306372198742,243.06320960994344,,,,,,,,,,,,,,,,,,,58294,2022-11-08_10h17.39.240,vts_reward_expectancy_bt_OFFLINE,2022.2.4,60.147013149159356,
0,0,1,0,1,0,0,0,hexagon,triangle,1,0,1,0,0,3,3,6,,,,,,,,,,,,243.06320960994344,243.06320960994344,243.06320960994344,243.06320960994344,243.06320960994344,243.06320960994344,243.06320960994344,243.06320960994344,243.06320960994344,243.06320960994344,a,0.8002467509359121,10,286,1,243.88287269999273,245.38256356690545,245.38256356690545,245.88278601400089,,,,,,,,,,,,,,,,,,,58294,2022-11-08_10h17.39.240,vts_reward_expectancy_bt_OFFLINE,2022.2.4,60.147013149159356,
0,0,0,1,0,1,0,0,star ,circle,1,0,1,0,0,4,4,10,,,,,,,,,,,,245.88278601400089,245.88278601400089,245.88278601400089,245.88278601400089,245.88278601400089,245.88278601400089,245.88278601400089,245.88278601400089,245.88278601400089,245.88278601400089,l,0.6468988949200138,10,296,1,246.55002039892133,248.0502209420083,,,,,,,,,,,,,,,,,,,,,58294,2022-11-08_10h17.39.240,vts_reward_expectancy_bt_OFFLINE,2022.2.4,60.147013149159356,
1,0,0,0,0,1,0,0,triangle,circle,1,0,1,0,0,5,5,0,,,,,,,,,,,,248.55050057498738,248.55050057498738,248.55050057498738,248.55050057498738,248.55050057498738,248.55050057498738,248.55050057498738,248.55050057498738,248.55050057498738,248.55050057498738,a,0.813575770938769,1,297,1,249.3865325389197,250.88638911698945,250.88638911698945,251.38663116691168,,,,,,,,,,,,,,,,,,,58294,2022-11-08_10h17.39.240,vts_reward_expectancy_bt_OFFLINE,2022.2.4,60.147013149159356,
1,0,0,0,0,0,0,1,triangle,star,1,0,1,0,0,6,6,2,,,,,,,,,,,,251.38663116691168,251.38663116691168,251.38663116691168,251.38663116691168,251.38663116691168,251.38663116691168,251.38663116691168,251.38663116691168,251.38663116691168,251.38663116691168,a,0.8467297089518979,1,298,1,252.25354978791438,253.75436850392725,253.75436850392725,,,,,,,,,,,,,,,,,,,,58294,2022-11-08_10h17.39.240,vts_reward_expectancy_bt_OFFLINE,2022.2.4,60.147013149159356,
0,0,1,0,0,0,0,1,hexagon,star,1,0,1,0,0,7,7,8,,,,,,,,,,,,254.25610251992475,254.25610251992475,254.25610251992475,254.25610251992475,254.25610251992475,254.25610251992475,254.25610251992475,254.25610251992475,254.25610251992475,254.25610251992475,l,0.5648185709724203,1,299,1,254.83963896497153,256.3401172530139,256.3401172530139,256.8404456989374,,,,,,,,,,,,,,,,,,,58294,2022-11-08_10h17.39.240,vts_reward_expectancy_bt_OFFLINE,2022.2.4,60.147013149159356,
0,0,0,1,0,0,1,0,star,hexagon,1,0,1,0,0,8,8,11,,,,,,,,,,,,256.8404456989374,256.8404456989374,256.8404456989374,256.8404456989374,256.8404456989374,256.8404456989374,256.8404456989374,256.8404456989374,256.8404456989374,256.8404456989374,l,0.850333641981706,10,309,1,257.70918530295603,259.2098904729355,,,,,,,,,,,,,,,,,,,,,58294,2022-11-08_10h17.39.240,vts_reward_expectancy_bt_OFFLINE,2022.2.4,60.147013149159356,
0,1,0,0,1,0,0,0,circle,triangle,1,0,1,0,0,9,9,3,,,,,,,,,,,,259.7100940379314,259.7100940379314,259.7100940379314,259.7100940379314,259.7100940379314,259.7100940379314,259.7100940379314,259.7100940379314,259.7100940379314,259.7100940379314,a,0.6011445840122178,10,319,1,260.3434806999285,261.84387402096763,261.84387402096763,262.3440377699444,,,,,,,,,,,,,,,,,,,58294,2022-11-08_10h17.39.240,vts_reward_expectancy_bt_OFFLINE,2022.2.4,60.147013149159356,
0,1,0,0,0,0,1,0,circle,hexagon,1,0,1,0,0,10,10,4,,,,,,,,,,,,262.3440377699444,262.3440377699444,262.3440377699444,262.3440377699444,262.3440377699444,262.3440377699444,262.3440377699444,262.3440377699444,262.3440377699444,262.3440377699444,a,0.6233120950637385,1,320,1,262.9953259360045,264.4967353049433,,,,,,,,,,,,,,,,,,,,,58294,2022-11-08_10h17.39.240,vts_reward_expectancy_bt_OFFLINE,2022.2.4,60.147013149159356,
1,0,0,0,0,0,1,0,triangle,hexagon,1,0,1,0,0,11,11,1,,,,,,,,,,,,264.9967751560034,264.9967751560034,264.9967751560034,264.9967751560034,264.9967751560034,264.9967751560034,264.9967751560034,264.9967751560034,264.9967751560034,264.9967751560034,l,0.5132281898986548,10,330,1,265.53163811797276,267.030682416982,267.030682416982,,,,,,,,,,,,,,,,,,,,58294,2022-11-08_10h17.39.240,vts_reward_expectancy_bt_OFFLINE,2022.2.4,60.147013149159356,
0,0,0,1,0,0,1,0,star,hexagon,1,0,1,0,1,0,12,11,,,,,,,,,,,,267.5310902099591,267.5310902099591,267.5310902099591,267.5310902099591,267.5310902099591,267.5310902099591,267.5310902099591,267.5310902099591,267.5310902099591,267.5310902099591,l,0.5878628129139543,10,340,1,268.14793994196225,269.65044693101663,,,,,,,,,,,,,,,,,,,,,58294,2022-11-08_10h17.39.240,vts_reward_expectancy_bt_OFFLINE,2022.2.4,60.147013149159356,
1,0,0,0,0,0,1,0,triangle,hexagon,1,0,1,0,1,1,13,1,,,,,,,,,,,,270.1506735999137,270.1506735999137,270.1506735999137,270.1506735999137,270.1506735999137,270.1506735999137,270.1506735999137,270.1506735999137,270.1506735999137,270.1506735999137,l,0.5679395040497184,1,341,1,270.7505364319077,272.25133496092167,272.25133496092167,,,,,,,,,,,,,,,,,,,,58294,2022-11-08_10h17.39.240,vts_reward_expectancy_bt_OFFLINE,2022.2.4,60.147013149159356,
0,0,1,0,1,0,0,0,hexagon,triangle,1,0,1,0,1,2,14,6,,,,,,,,,,,,272.7516563119134,272.7516563119134,272.7516563119134,272.7516563119134,272.7516563119134,272.7516563119134,272.7516563119134,272.7516563119134,272.7516563119134,272.7516563119134,a,0.8695951910922304,1,342,1,273.6519685079111,275.1542032129364,,,,,,,,,,,,,,,,,,,,,58294,2022-11-08_10h17.39.240,vts_reward_expectancy_bt_OFFLINE,2022.2.4,60.147013149159356,
0,0,0,1,0,1,0,0,star ,circle,1,0,1,0,1,3,15,10,,,,,,,,,,,,275.65447901096195,275.65447901096195,275.65447901096195,275.65447901096195,275.65447901096195,275.65447901096195,275.65447901096195,275.65447901096195,275.65447901096195,275.65447901096195,l,0.5873229440767318,10,352,1,276.27232398698106,277.77206307591405,277.77206307591405,278.2725600620033,,,,,,,,,,,,,,,,,,,58294,2022-11-08_10h17.39.240,vts_reward_expectancy_bt_OFFLINE,2022.2.4,60.147013149159356,
0,1,0,0,0,0,1,0,circle,hexagon,1,0,1,0,1,4,16,4,,,,,,,,,,,,278.2725600620033,278.2725600620033,278.2725600620033,278.2725600620033,278.2725600620033,278.2725600620033,278.2725600620033,278.2725600620033,278.2725600620033,278.2725600620033,a,0.5918829960282892,1,353,1,278.8815648739692,280.39178998896386,,,,,,,,,,,,,,,,,,,,,58294,2022-11-08_10h17.39.240,vts_reward_expectancy_bt_OFFLINE,2022.2.4,60.147013149159356,
0,1,0,0,1,0,0,0,circle,triangle,1,0,1,0,1,5,17,3,,,,,,,,,,,,280.8916022880003,280.8916022880003,280.8916022880003,280.8916022880003,280.8916022880003,280.8916022880003,280.8916022880003,280.8916022880003,280.8916022880003,280.8916022880003,a,0.5932740640128031,1,354,1,281.5084189559566,283.0089083299972,283.0089083299972,283.50880734599195,,,,,,,,,,,,,,,,,,,58294,2022-11-08_10h17.39.240,vts_reward_expectancy_bt_OFFLINE,2022.2.4,60.147013149159356,
0,0,0,1,1,0,0,0,star,triangle,1,0,1,0,1,6,18,9,,,,,,,,,,,,283.50880734599195,283.50880734599195,283.50880734599195,283.50880734599195,283.50880734599195,283.50880734599195,283.50880734599195,283.50880734599195,283.50880734599195,283.50880734599195,l,1.1935733869904652,10,364,1,284.72931389394216,286.22889645094983,286.22889645094983,,,,,,,,,,,,,,,,,,,,58294,2022-11-08_10h17.39.240,vts_reward_expectancy_bt_OFFLINE,2022.2.4,60.147013149159356,
1,0,0,0,0,1,0,0,triangle,circle,1,0,1,0,1,7,19,0,,,,,,,,,,,,286.7288180779433,286.7288180779433,286.7288180779433,286.7288180779433,286.7288180779433,286.7288180779433,286.7288180779433,286.7288180779433,286.7288180779433,286.7288180779433,l,0.5501161949941888,1,365,1,287.29691252298653,288.79604898393154,288.79604898393154,,,,,,,,,,,,,,,,,,,,58294,2022-11-08_10h17.39.240,vts_reward_expectancy_bt_OFFLINE,2022.2.4,60.147013149159356,
1,0,0,0,0,0,0,1,triangle,star,1,0,1,0,1,8,20,2,,,,,,,,,,,,289.2981254339684,289.2981254339684,289.2981254339684,289.2981254339684,289.2981254339684,289.2981254339684,289.2981254339684,289.2981254339684,289.2981254339684,289.2981254339684,a,0.9178456149529666,1,366,1,290.24836207099725,291.74892739998177,291.74892739998177,292.24915343301836,,,,,,,,,,,,,,,,,,,58294,2022-11-08_10h17.39.240,vts_reward_expectancy_bt_OFFLINE,2022.2.4,60.147013149159356,
0,1,0,0,0,0,0,1,circle,star,1,0,1,0,1,9,21,5,,,,,,,,,,,,292.24915343301836,292.24915343301836,292.24915343301836,292.24915343301836,292.24915343301836,292.24915343301836,292.24915343301836,292.24915343301836,292.24915343301836,292.24915343301836,a,0.4758003110764548,1,367,1,292.74936522799544,294.2517010039883,,,,,,,,,,,,,,,,,,,,,58294,2022-11-08_10h17.39.240,vts_reward_expectancy_bt_OFFLINE,2022.2.4,60.147013149159356,
0,0,1,0,0,0,0,1,hexagon,star,1,0,1,0,1,10,22,8,,,,,,,,,,,,294.7519444099162,294.7519444099162,294.7519444099162,294.7519444099162,294.7519444099162,294.7519444099162,294.7519444099162,294.7519444099162,294.7519444099162,294.7519444099162,l,0.4484516129596159,1,368,1,295.2189560199622,296.71933242701925,296.71933242701925,297.21947143797297,,,,,,,,,,,,,,,,,,,58294,2022-11-08_10h17.39.240,vts_reward_expectancy_bt_OFFLINE,2022.2.4,60.147013149159356,
0,0,1,0,0,1,0,0,hexagon,circle,1,0,1,0,1,11,23,7,,,,,,,,,,,,297.21947143797297,297.21947143797297,297.21947143797297,297.21947143797297,297.21947143797297,297.21947143797297,297.21947143797297,297.21947143797297,297.21947143797297,297.21947143797297,l,0.5672482679365203,10,378,1,297.80507759796456,299.3052812789101,,,,,,,,,,,,,,,,,,,,,58294,2022-11-08_10h17.39.240,vts_reward_expectancy_bt_OFFLINE,2022.2.4,60.147013149159356,
0,1,0,0,1,0,0,0,circle,triangle,1,0,1,0,2,0,24,3,,,,,,,,,,,,299.8057157199364,299.8057157199364,299.8057157199364,299.8057157199364,299.8057157199364,299.8057157199364,299.8057157199364,299.8057157199364,299.8057157199364,299.8057157199364,a,0.524190521100536,10,388,1,300.3558112309547,301.8561445629457,301.8561445629457,302.35647622600663,,,,,,,,,,,,,,,,,,,58294,2022-11-08_10h17.39.240,vts_reward_expectancy_bt_OFFLINE,2022.2.4,60.147013149159356,
0,0,0,1,0,0,1,0,star,hexagon,1,0,1,0,2,1,25,11,,,,,,,,,,,,302.35647622600663,302.35647622600663,302.35647622600663,302.35647622600663,302.35647622600663,302.35647622600663,302.35647622600663,302.35647622600663,302.35647622600663,302.35647622600663,l,0.5389347430318594,1,389,1,302.9248178550042,304.42582834896166,,,,,,,,,,,,,,,,,,,,,58294,2022-11-08_10h17.39.240,vts_reward_expectancy_bt_OFFLINE,2022.2.4,60.147013149159356,
0,1,0,0,0,0,1,0,circle,hexagon,1,0,1,0,2,2,26,4,,,,,,,,,,,,304.9261006169254,304.9261006169254,304.9261006169254,304.9261006169254,304.9261006169254,304.9261006169254,304.9261006169254,304.9261006169254,304.9261006169254,304.9261006169254,l,0.8372756170574576,10,399,1,305.79423757700715,307.2937988619087,307.2937988619087,307.7939298489364,,,,,,,,,,,,,,,,,,,58294,2022-11-08_10h17.39.240,vts_reward_expectancy_bt_OFFLINE,2022.2.4,60.147013149159356,
0,1,0,0,0,0,0,1,circle,star,1,0,1,0,2,3,27,5,,,,,,,,,,,,307.7939298489364,307.7939298489364,307.7939298489364,307.7939298489364,307.7939298489364,307.7939298489364,307.7939298489364,307.7939298489364,307.7939298489364,307.7939298489364,a,0.4784186660544947,10,409,1,308.2939323959872,309.796318238019,,,,,,,,,,,,,,,,,,,,,58294,2022-11-08_10h17.39.240,vts_reward_expectancy_bt_OFFLINE,2022.2.4,60.147013149159356,
1,0,0,0,0,1,0,0,triangle,circle,1,0,1,0,2,4,28,0,,,,,,,,,,,,310.29672087798826,310.29672087798826,310.29672087798826,310.29672087798826,310.29672087798826,310.29672087798826,310.29672087798826,310.29672087798826,310.29672087798826,310.29672087798826,l,0.5526645249919966,10,419,1,310.88014070293866,312.3805286899442,312.3805286899442,312.88068580196705,,,,,,,,,,,,,,,,,,,58294,2022-11-08_10h17.39.240,vts_reward_expectancy_bt_OFFLINE,2022.2.4,60.147013149159356,
1,0,0,0,0,0,1,0,triangle,hexagon,1,0,1,0,2,5,29,1,,,,,,,,,,,,312.88068580196705,312.88068580196705,312.88068580196705,312.88068580196705,312.88068580196705,312.88068580196705,312.88068580196705,312.88068580196705,312.88068580196705,312.88068580196705,l,0.7362664970569313,1,420,1,313.64925514895003,315.15025183791295,,,,,,,,,,,,,,,,,,,,,58294,2022-11-08_10h17.39.240,vts_reward_expectancy_bt_OFFLINE,2022.2.4,60.147013149159356,
0,0,1,0,0,1,0,0,hexagon,circle,1,0,1,0,2,6,30,7,,,,,,,,,,,,315.6505558999488,315.6505558999488,315.6505558999488,315.6505558999488,315.6505558999488,315.6505558999488,315.6505558999488,315.6505558999488,315.6505558999488,315.6505558999488,l,0.6884723979746923,10,430,1,316.3687042789534,317.86745873698965,317.86745873698965,318.3677811420057,,,,,,,,,,,,,,,,,,,58294,2022-11-08_10h17.39.240,vts_reward_expectancy_bt_OFFLINE,2022.2.4,60.147013149159356,
1,0,0,0,0,0,0,1,triangle,star,1,0,1,0,2,7,31,2,,,,,,,,,,,,318.3677811420057,318.3677811420057,318.3677811420057,318.3677811420057,318.3677811420057,318.3677811420057,318.3677811420057,318.3677811420057,318.3677811420057,318.3677811420057,l,0.6947730500251055,1,431,1,319.0879170129774,320.58729487401433,320.58729487401433,321.0873058770085,,,,,,,,,,,,,,,,,,,58294,2022-11-08_10h17.39.240,vts_reward_expectancy_bt_OFFLINE,2022.2.4,60.147013149159356,
0,0,0,1,0,1,0,0,star ,circle,1,0,1,0,2,8,32,10,,,,,,,,,,,,321.0873058770085,321.0873058770085,321.0873058770085,321.0873058770085,321.0873058770085,321.0873058770085,321.0873058770085,321.0873058770085,321.0873058770085,321.0873058770085,l,0.7766086079645902,10,441,1,321.88865990098566,323.38810129393823,323.38810129393823,323.8863247219706,,,,,,,,,,,,,,,,,,,58294,2022-11-08_10h17.39.240,vts_reward_expectancy_bt_OFFLINE,2022.2.4,60.147013149159356,
0,0,0,1,1,0,0,0,star,triangle,1,0,1,0,2,9,33,9,,,,,,,,,,,,323.8863247219706,323.8863247219706,323.8863247219706,323.8863247219706,323.8863247219706,323.8863247219706,323.8863247219706,323.8863247219706,323.8863247219706,323.8863247219706,l,0.8118267570389435,1,442,1,324.725051812944,326.2244309609523,326.2244309609523,326.7244326469954,,,,,,,,,,,,,,,,,,,58294,2022-11-08_10h17.39.240,vts_reward_expectancy_bt_OFFLINE,2022.2.4,60.147013149159356,
0,0,1,0,1,0,0,0,hexagon,triangle,1,0,1,0,2,10,34,6,,,,,,,,,,,,326.7244326469954,326.7244326469954,326.7244326469954,326.7244326469954,326.7244326469954,326.7244326469954,326.7244326469954,326.7244326469954,326.7244326469954,326.7244326469954,a,0.6740623710211366,1,443,1,327.4247126369737,328.9271110489499,,,,,,,,,,,,,,,,,,,,,58294,2022-11-08_10h17.39.240,vts_reward_expectancy_bt_OFFLINE,2022.2.4,60.147013149159356,
0,0,1,0,0,0,0,1,hexagon,star,1,0,1,0,2,11,35,8,,,,,,,,,,,,329.4273965129396,329.4273965129396,329.4273965129396,329.4273965129396,329.4273965129396,329.4273965129396,329.4273965129396,329.4273965129396,329.4273965129396,329.4273965129396,a,0.4911743369884789,10,453,1,329.94536054192577,331.4446844100021,331.4446844100021,331.9450020149816,,,,,,,,,,,,,,,,,,,58294,2022-11-08_10h17.39.240,vts_reward_expectancy_bt_OFFLINE,2022.2.4,60.147013149159356,
0,0,0,1,1,0,0,0,star,triangle,1,0,1,0,3,0,36,9,,,,,,,,,,,,331.9450020149816,331.9450020149816,331.9450020149816,331.9450020149816,331.9450020149816,331.9450020149816,331.9450020149816,331.9450020149816,331.9450020149816,331.9450020149816,l,0.617944575031288,10,463,1,332.594990843907,334.09746482397895,,,,,,,,,,,,,,,,,,,,,58294,2022-11-08_10h17.39.240,vts_reward_expectancy_bt_OFFLINE,2022.2.4,60.147013149159356,
0,1,0,0,1,0,0,0,circle,triangle,1,0,1,0,3,1,37,3,,,,,,,,,,,,334.65806772594806,334.65806772594806,334.65806772594806,334.65806772594806,334.65806772594806,334.65806772594806,334.65806772594806,334.65806772594806,334.65806772594806,334.65806772594806,a,0.6838176579913124,1,464,1,335.36588444700465,336.86520101490896,336.86520101490896,337.36543499398977,,,,,,,,,,,,,,,,,,,58294,2022-11-08_10h17.39.240,vts_reward_expectancy_bt_OFFLINE,2022.2.4,60.147013149159356,
1,0,0,0,0,0,1,0,triangle,hexagon,1,0,1,0,3,2,38,1,,,,,,,,,,,,337.36543499398977,337.36543499398977,337.36543499398977,337.36543499398977,337.36543499398977,337.36543499398977,337.36543499398977,337.36543499398977,337.36543499398977,337.36543499398977,l,0.5308358520269394,1,465,1,337.9154599959729,339.41795300191734,,,,,,,,,,,,,,,,,,,,,58294,2022-11-08_10h17.39.240,vts_reward_expectancy_bt_OFFLINE,2022.2.4,60.147013149159356,
0,0,0,1,0,1,0,0,star ,circle,1,0,1,0,3,3,39,10,,,,,,,,,,,,339.91844961594325,339.91844961594325,339.91844961594325,339.91844961594325,339.91844961594325,339.91844961594325,339.91844961594325,339.91844961594325,339.91844961594325,339.91844961594325,l,0.40695478301495314,1,466,1,340.35174359194934,341.85212793794926,341.85212793794926,342.3522715580184,,,,,,,,,,,,,,,,,,,58294,2022-11-08_10h17.39.240,vts_reward_expectancy_bt_OFFLINE,2022.2.4,60.147013149159356,
0,1,0,0,0,0,0,1,circle,star,1,0,1,0,3,4,40,5,,,,,,,,,,,,342.3522715580184,342.3522715580184,342.3522715580184,342.3522715580184,342.3522715580184,342.3522715580184,342.3522715580184,342.3522715580184,342.3522715580184,342.3522715580184,a,0.7864043459994718,10,476,1,343.1696655919077,344.6720583529677,,,,,,,,,,,,,,,,,,,,,58294,2022-11-08_10h17.39.240,vts_reward_expectancy_bt_OFFLINE,2022.2.4,60.147013149159356,
0,0,1,0,0,0,0,1,hexagon,star,1,0,1,0,3,5,41,8,,,,,,,,,,,,345.17208336491603,345.17208336491603,345.17208336491603,345.17208336491603,345.17208336491603,345.17208336491603,345.17208336491603,345.17208336491603,345.17208336491603,345.17208336491603,a,0.8581918589770794,10,486,1,346.05549624201376,347.5560007429449,347.5560007429449,348.05626907001715,,,,,,,,,,,,,,,,,,,58294,2022-11-08_10h17.39.240,vts_reward_expectancy_bt_OFFLINE,2022.2.4,60.147013149159356,
0,0,0,1,0,0,1,0,star,hexagon,1,0,1,0,3,6,42,11,,,,,,,,,,,,348.05626907001715,348.05626907001715,348.05626907001715,348.05626907001715,348.05626907001715,348.05626907001715,348.05626907001715,348.05626907001715,348.05626907001715,348.05626907001715,l,0.9432317179162055,10,496,1,349.02534102799837,350.52582275494933,350.52582275494933,,,,,,,,,,,,,,,,,,,,58294,2022-11-08_10h17.39.240,vts_reward_expectancy_bt_OFFLINE,2022.2.4,60.147013149159356,
0,1,0,0,0,0,1,0,circle,hexagon,1,0,1,0,3,7,43,4,,,,,,,,,,,,351.0262961909175,351.0262961909175,351.0262961909175,351.0262961909175,351.0262961909175,351.0262961909175,351.0262961909175,351.0262961909175,351.0262961909175,351.0262961909175,a,0.6854170609731227,1,497,1,351.7426219889894,353.2432209319668,353.2432209319668,353.74313442595303,,,,,,,,,,,,,,,,,,,58294,2022-11-08_10h17.39.240,vts_reward_expectancy_bt_OFFLINE,2022.2.4,60.147013149159356,
0,0,1,0,1,0,0,0,hexagon,triangle,1,0,1,0,3,8,44,6,,,,,,,,,,,,353.74313442595303,353.74313442595303,353.74313442595303,353.74313442595303,353.74313442595303,353.74313442595303,353.74313442595303,353.74313442595303,353.74313442595303,353.74313442595303,a,0.6346912509761751,1,498,1,354.39535234693903,355.8960635419935,355.8960635419935,,,,,,,,,,,,,,,,,,,,58294,2022-11-08_10h17.39.240,vts_reward_expectancy_bt_OFFLINE,2022.2.4,60.147013149159356,
1,0,0,0,0,1,0,0,triangle,circle,1,0,1,0,3,9,45,0,,,,,,,,,,,,356.39624066092074,356.39624066092074,356.39624066092074,356.39624066092074,356.39624066092074,356.39624066092074,356.39624066092074,356.39624066092074,356.39624066092074,356.39624066092074,l,0.478610294056125,10,508,1,356.898167175008,358.4136954299174,,,,,,,,,,,,,,,,,,,,,58294,2022-11-08_10h17.39.240,vts_reward_expectancy_bt_OFFLINE,2022.2.4,60.147013149159356,
0,0,1,0,0,1,0,0,hexagon,circle,1,0,1,0,3,10,46,7,,,,,,,,,,,,358.9118145200191,358.9118145200191,358.9118145200191,358.9118145200191,358.9118145200191,358.9118145200191,358.9118145200191,358.9118145200191,358.9118145200191,358.9118145200191,l,0.5848321580560878,1,509,1,359.5173178219702,361.0164458369836,361.0164458369836,361.51673244393896,,,,,,,,,,,,,,,,,,,58294,2022-11-08_10h17.39.240,vts_reward_expectancy_bt_OFFLINE,2022.2.4,60.147013149159356,
1,0,0,0,0,0,0,1,triangle,star,1,0,1,0,3,11,47,2,,,,,,,,,,,,361.51673244393896,361.51673244393896,361.51673244393896,361.51673244393896,361.51673244393896,361.51673244393896,361.51673244393896,361.51673244393896,361.51673244393896,361.51673244393896,a,0.9496206879848614,1,510,1,362.4838112699799,363.98625561292283,,,,,,,,,,,,,,,,,,,,,58294,2022-11-08_10h17.39.240,vts_reward_expectancy_bt_OFFLINE,2022.2.4,60.147013149159356,
0,0,1,0,0,0,0,1,hexagon,star,2,0,2,0,0,0,0,8,,,,,,,,,,,,366.547851004987,366.547851004987,366.547851004987,366.547851004987,366.547851004987,366.547851004987,366.547851004987,366.547851004987,366.547851004987,366.547851004987,a,0.5318504950264469,10,520,2,367.1054936859291,368.6213120589964,,,,,,,,,,,,,,,,,,,,,58294,2022-11-08_10h17.39.240,vts_reward_expectancy_bt_OFFLINE,2022.2.4,60.147013149159356,
0,0,1,0,0,1,0,0,hexagon,circle,2,0,2,0,0,1,1,7,,,,,,,,,,,,369.10638008790556,369.10638008790556,369.10638008790556,369.10638008790556,369.10638008790556,369.10638008790556,369.10638008790556,369.10638008790556,369.10638008790556,369.10638008790556,l,0.5724125599954277,10,530,2,369.7064072579378,371.20703638601117,371.20703638601117,371.7071593319997,,,,,,,,,,,,,,,,,,,58294,2022-11-08_10h17.39.240,vts_reward_expectancy_bt_OFFLINE,2022.2.4,60.147013149159356,
1,0,0,0,0,0,0,1,triangle,star,2,0,2,0,0,2,2,2,,,,,,,,,,,,371.7071593319997,371.7071593319997,371.7071593319997,371.7071593319997,371.7071593319997,371.7071593319997,371.7071593319997,371.7071593319997,371.7071593319997,371.7071593319997,a,0.8068279289873317,1,531,2,372.5426127529936,374.0437748779077,,,,,,,,,,,,,,,,,,,,,58294,2022-11-08_10h17.39.240,vts_reward_expectancy_bt_OFFLINE,2022.2.4,60.147013149159356,
0,1,0,0,0,0,0,1,circle,star,2,0,2,0,0,3,3,5,,,,,,,,,,,,374.5436250749044,374.5436250749044,374.5436250749044,374.5436250749044,374.5436250749044,374.5436250749044,374.5436250749044,374.5436250749044,374.5436250749044,374.5436250749044,l,0.42227047693450004,10,541,2,374.99576789001003,376.511027402943,,,,,,,,,,,,,,,,,,,,,58294,2022-11-08_10h17.39.240,vts_reward_expectancy_bt_OFFLINE,2022.2.4,60.147013149159356,
0,0,0,1,0,1,0,0,star ,circle,2,0,2,0,0,4,4,10,,,,,,,,,,,,377.0109008079162,377.0109008079162,377.0109008079162,377.0109008079162,377.0109008079162,377.0109008079162,377.0109008079162,377.0109008079162,377.0109008079162,377.0109008079162,l,0.543510853080079,1,542,2,377.5790619169129,379.08020847290754,,,,,,,,,,,,,,,,,,,,,58294,2022-11-08_10h17.39.240,vts_reward_expectancy_bt_OFFLINE,2022.2.4,60.147013149159356,
0,0,0,1,0,0,1,0,star,hexagon,2,0,2,0,0,5,5,11,,,,,,,,,,,,379.5802619269816,379.5802619269816,379.5802619269816,379.5802619269816,379.5802619269816,379.5802619269816,379.5802619269816,379.5802619269816,379.5802619269816,379.5802619269816,l,0.6068953580688685,1,543,2,380.21404790098313,381.714380839956,381.714380839956,382.2147539119469,,,,,,,,,,,,,,,,,,,58294,2022-11-08_10h17.39.240,vts_reward_expectancy_bt_OFFLINE,2022.2.4,60.147013149159356,
1,0,0,0,0,0,1,0,triangle,hexagon,2,0,2,0,0,6,6,1,,,,,,,,,,,,382.2147539119469,382.2147539119469,382.2147539119469,382.2147539119469,382.2147539119469,382.2147539119469,382.2147539119469,382.2147539119469,382.2147539119469,382.2147539119469,l,1.2002513540210202,10,553,2,383.43362253298983,384.93424574297387,,,,,,,,,,,,,,,,,,,,,58294,2022-11-08_10h17.39.240,vts_reward_expectancy_bt_OFFLINE,2022.2.4,60.147013149159356,
0,0,1,0,1,0,0,0,hexagon,triangle,2,0,2,0,0,7,7,6,,,,,,,,,,,,385.4343410580186,385.4343410580186,385.4343410580186,385.4343410580186,385.4343410580186,385.4343410580186,385.4343410580186,385.4343410580186,385.4343410580186,385.4343410580186,a,0.8618456730619073,10,563,2,386.31803580594715,387.8185627369676,387.8185627369676,388.3186351949116,,,,,,,,,,,,,,,,,,,58294,2022-11-08_10h17.39.240,vts_reward_expectancy_bt_OFFLINE,2022.2.4,60.147013149159356,
0,1,0,0,1,0,0,0,circle,triangle,2,0,2,0,0,8,8,3,,,,,,,,,,,,388.3186351949116,388.3186351949116,388.3186351949116,388.3186351949116,388.3186351949116,388.3186351949116,388.3186351949116,388.3186351949116,388.3186351949116,388.3186351949116,a,0.8680026379879564,10,573,2,389.2046406319132,390.7049412379274,390.7049412379274,391.205196580966,,,,,,,,,,,,,,,,,,,58294,2022-11-08_10h17.39.240,vts_reward_expectancy_bt_OFFLINE,2022.2.4,60.147013149159356,
0,1,0,0,0,0,1,0,circle,hexagon,2,0,2,0,0,9,9,4,,,,,,,,,,,,391.205196580966,391.205196580966,391.205196580966,391.205196580966,391.205196580966,391.205196580966,391.205196580966,391.205196580966,391.205196580966,391.205196580966,l,0.7276401519775391,1,574,2,391.95688730000984,393.4723379559582,,,,,,,,,,,,,,,,,,,,,58294,2022-11-08_10h17.39.240,vts_reward_expectancy_bt_OFFLINE,2022.2.4,60.147013149159356,
1,0,0,0,0,1,0,0,triangle,circle,2,0,2,0,0,10,10,0,,,,,,,,,,,,393.9613706349628,393.9613706349628,393.9613706349628,393.9613706349628,393.9613706349628,393.9613706349628,393.9613706349628,393.9613706349628,393.9613706349628,393.9613706349628,l,0.6591530489968136,10,584,2,394.64310193492565,396.15881980699487,,,,,,,,,,,,,,,,,,,,,58294,2022-11-08_10h17.39.240,vts_reward_expectancy_bt_OFFLINE,2022.2.4,60.147013149159356,
0,0,0,1,1,0,0,0,star,triangle,2,0,2,0,0,11,11,9,,,,,,,,,,,,396.6591316879494,396.6591316879494,396.6591316879494,396.6591316879494,396.6591316879494,396.6591316879494,396.6591316879494,396.6591316879494,396.6591316879494,396.6591316879494,a,0.7637138030258939,10,594,2,397.44226266094483,398.9409575879108,398.9409575879108,,,,,,,,,,,,,,,,,,,,58294,2022-11-08_10h17.39.240,vts_reward_expectancy_bt_OFFLINE,2022.2.4,60.147013149159356,
0,0,1,0,0,1,0,0,hexagon,circle,2,0,2,0,1,0,12,7,,,,,,,,,,,,399.4448914739769,399.4448914739769,399.4448914739769,399.4448914739769,399.4448914739769,399.4448914739769,399.4448914739769,399.4448914739769,399.4448914739769,399.4448914739769,l,0.7235128239262849,1,595,2,400.1970548139652,401.7127297449624,,,,,,,,,,,,,,,,,,,,,58294,2022-11-08_10h17.39.240,vts_reward_expectancy_bt_OFFLINE,2022.2.4,60.147013149159356,
0,0,0,1,0,0,1,0,star,hexagon,2,0,2,0,1,1,13,11,,,,,,,,,,,,402.21288978890516,402.21288978890516,402.21288978890516,402.21288978890516,402.21288978890516,402.21288978890516,402.21288978890516,402.21288978890516,402.21288978890516,402.21288978890516,l,0.5537156290374696,10,605,2,402.79844889591914,404.29808340396266,,,,,,,,,,,,,,,,,,,,,58294,2022-11-08_10h17.39.240,vts_reward_expectancy_bt_OFFLINE,2022.2.4,60.147013149159356,
1,0,0,0,0,0,1,0,triangle,hexagon,2,0,2,0,1,2,14,1,,,,,,,,,,,,404.79879402392544,404.79879402392544,404.79879402392544,404.79879402392544,404.79879402392544,404.79879402392544,404.79879402392544,404.79879402392544,404.79879402392544,404.79879402392544,l,0.6225784360431135,10,615,2,405.4489516100148,406.94938063796144,406.94938063796144,407.4495737570105,,,,,,,,,,,,,,,,,,,58294,2022-11-08_10h17.39.240,vts_reward_expectancy_bt_OFFLINE,2022.2.4,60.147013149159356,
1,0,0,0,0,0,0,1,triangle,star,2,0,2,0,1,3,15,2,,,,,,,,,,,,407.4495737570105,407.4495737570105,407.4495737570105,407.4495737570105,407.4495737570105,407.4495737570105,407.4495737570105,407.4495737570105,407.4495737570105,407.4495737570105,l,0.8077590469038114,1,616,2,408.28566887800116,409.7856396329589,,,,,,,,,,,,,,,,,,,,,58294,2022-11-08_10h17.39.240,vts_reward_expectancy_bt_OFFLINE,2022.2.4,60.147013149159356,
1,0,0,0,0,1,0,0,triangle,circle,2,0,2,0,1,4,16,0,,,,,,,,,,,,410.2859525459353,410.2859525459353,410.2859525459353,410.2859525459353,410.2859525459353,410.2859525459353,410.2859525459353,410.2859525459353,410.2859525459353,410.2859525459353,l,0.6041827220469713,10,626,2,410.92177190294024,412.4365634849528,,,,,,,,,,,,,,,,,,,,,58294,2022-11-08_10h17.39.240,vts_reward_expectancy_bt_OFFLINE,2022.2.4,60.147013149159356,
0,0,1,0,1,0,0,0,hexagon,triangle,2,0,2,0,1,5,17,6,,,,,,,,,,,,412.9368094980018,412.9368094980018,412.9368094980018,412.9368094980018,412.9368094980018,412.9368094980018,412.9368094980018,412.9368094980018,412.9368094980018,412.9368094980018,a,0.663663927000016,1,627,2,413.6225280750077,415.1228375239298,,,,,,,,,,,,,,,,,,,,,58294,2022-11-08_10h17.39.240,vts_reward_expectancy_bt_OFFLINE,2022.2.4,60.147013149159356,
0,1,0,0,0,0,0,1,circle,star,2,0,2,0,1,6,18,5,,,,,,,,,,,,415.6232959959889,415.6232959959889,415.6232959959889,415.6232959959889,415.6232959959889,415.6232959959889,415.6232959959889,415.6232959959889,415.6232959959889,415.6232959959889,a,0.6218320989282802,1,628,2,416.2735139519209,417.77406698896084,417.77406698896084,418.2739721809048,,,,,,,,,,,,,,,,,,,58294,2022-11-08_10h17.39.240,vts_reward_expectancy_bt_OFFLINE,2022.2.4,60.147013149159356,
0,0,1,0,0,0,0,1,hexagon,star,2,0,2,0,1,7,19,8,,,,,,,,,,,,418.2739721809048,418.2739721809048,418.2739721809048,418.2739721809048,418.2739721809048,418.2739721809048,418.2739721809048,418.2739721809048,418.2739721809048,418.2739721809048,l,0.41171195392962545,1,629,2,418.7070082540158,420.20975075894967,,,,,,,,,,,,,,,,,,,,,58294,2022-11-08_10h17.39.240,vts_reward_expectancy_bt_OFFLINE,2022.2.4,60.147013149159356,
0,0,0,1,1,0,0,0,star,triangle,2,0,2,0,1,8,20,9,,,,,,,,,,,,420.7100388559047,420.7100388559047,420.7100388559047,420.7100388559047,420.7100388559047,420.7100388559047,420.7100388559047,420.7100388559047,420.7100388559047,420.7100388559047,a,0.867210993077606,1,630,2,421.5940734279575,423.0941178369103,423.0941178369103,423.5940830030013,,,,,,,,,,,,,,,,,,,58294,2022-11-08_10h17.39.240,vts_reward_expectancy_bt_OFFLINE,2022.2.4,60.147013149159356,
0,1,0,0,0,0,1,0,circle,hexagon,2,0,2,0,1,9,21,4,,,,,,,,,,,,423.5940830030013,423.5940830030013,423.5940830030013,423.5940830030013,423.5940830030013,423.5940830030013,423.5940830030013,423.5940830030013,423.5940830030013,423.5940830030013,l,0.672768346965313,10,640,2,424.2985814209096,425.81376613199245,,,,,,,,,,,,,,,,,,,,,58294,2022-11-08_10h17.39.240,vts_reward_expectancy_bt_OFFLINE,2022.2.4,60.147013149159356,
0,0,0,1,0,1,0,0,star ,circle,2,0,2,0,1,10,22,10,,,,,,,,,,,,426.31386474799365,426.31386474799365,426.31386474799365,426.31386474799365,426.31386474799365,426.31386474799365,426.31386474799365,426.31386474799365,426.31386474799365,426.31386474799365,a,0.8885688320733607,10,650,2,427.23091208399273,428.7317906519165,428.7317906519165,,,,,,,,,,,,,,,,,,,,58294,2022-11-08_10h17.39.240,vts_reward_expectancy_bt_OFFLINE,2022.2.4,60.147013149159356,
0,1,0,0,1,0,0,0,circle,triangle,2,0,2,0,1,11,23,3,,,,,,,,,,,,429.23358022095636,429.23358022095636,429.23358022095636,429.23358022095636,429.23358022095636,429.23358022095636,429.23358022095636,429.23358022095636,429.23358022095636,429.23358022095636,a,1.87294988904614,10,660,2,431.1345096589066,432.6348569759866,432.6348569759866,433.13500941800885,,,,,,,,,,,,,,,,,,,58294,2022-11-08_10h17.39.240,vts_reward_expectancy_bt_OFFLINE,2022.2.4,60.147013149159356,
0,0,1,0,0,1,0,0,hexagon,circle,2,0,2,0,2,0,24,7,,,,,,,,,,,,433.13500941800885,433.13500941800885,433.13500941800885,433.13500941800885,433.13500941800885,433.13500941800885,433.13500941800885,433.13500941800885,433.13500941800885,433.13500941800885,l,0.716586253955029,1,661,2,433.87052210897673,435.3707878779387,,,,,,,,,,,,,,,,,,,,,58294,2022-11-08_10h17.39.240,vts_reward_expectancy_bt_OFFLINE,2022.2.4,60.147013149159356,
0,0,0,1,0,0,1,0,star,hexagon,2,0,2,0,2,1,25,11,,,,,,,,,,,,435.8709915919462,435.8709915919462,435.8709915919462,435.8709915919462,435.8709915919462,435.8709915919462,435.8709915919462,435.8709915919462,435.8709915919462,435.8709915919462,a,0.6924850450595841,1,662,2,436.58799251297023,438.08873951190617,438.08873951190617,438.58867182501126,,,,,,,,,,,,,,,,,,,58294,2022-11-08_10h17.39.240,vts_reward_expectancy_bt_OFFLINE,2022.2.4,60.147013149159356,
0,1,0,0,0,0,1,0,circle,hexagon,2,0,2,0,2,2,26,4,,,,,,,,,,,,438.58867182501126,438.58867182501126,438.58867182501126,438.58867182501126,438.58867182501126,438.58867182501126,438.58867182501126,438.58867182501126,438.58867182501126,438.58867182501126,a,0.9789980460191146,10,672,2,439.5929244409781,441.10795810294803,,,,,,,,,,,,,,,,,,,,,58294,2022-11-08_10h17.39.240,vts_reward_expectancy_bt_OFFLINE,2022.2.4,60.147013149159356,
1,0,0,0,0,1,0,0,triangle,circle,2,0,2,0,2,3,27,0,,,,,,,,,,,,441.5918747499818,441.5918747499818,441.5918747499818,441.5918747499818,441.5918747499818,441.5918747499818,441.5918747499818,441.5918747499818,441.5918747499818,441.5918747499818,l,0.5520948780467734,10,682,2,442.1748977350071,443.6755991219543,443.6755991219543,,,,,,,,,,,,,,,,,,,,58294,2022-11-08_10h17.39.240,vts_reward_expectancy_bt_OFFLINE,2022.2.4,60.147013149159356,
0,0,0,1,0,1,0,0,star ,circle,2,0,2,0,2,4,28,10,,,,,,,,,,,,444.17755669995677,444.17755669995677,444.17755669995677,444.17755669995677,444.17755669995677,444.17755669995677,444.17755669995677,444.17755669995677,444.17755669995677,444.17755669995677,l,0.5870244710240513,1,683,2,444.79672475601546,446.31161365495063,,,,,,,,,,,,,,,,,,,,,58294,2022-11-08_10h17.39.240,vts_reward_expectancy_bt_OFFLINE,2022.2.4,60.147013149159356,
1,0,0,0,0,0,1,0,triangle,hexagon,2,0,2,0,2,5,29,1,,,,,,,,,,,,446.8119333139621,446.8119333139621,446.8119333139621,446.8119333139621,446.8119333139621,446.8119333139621,446.8119333139621,446.8119333139621,446.8119333139621,446.8119333139621,l,0.652720974991098,10,693,2,447.4956214039121,449.00138880393934,,,,,,,,,,,,,,,,,,,,,58294,2022-11-08_10h17.39.240,vts_reward_expectancy_bt_OFFLINE,2022.2.4,60.147013149159356,
0,0,1,0,0,0,0,1,hexagon,star,2,0,2,0,2,6,30,8,,,,,,,,,,,,449.4981998569565,449.4981998569565,449.4981998569565,449.4981998569565,449.4981998569565,449.4981998569565,449.4981998569565,449.4981998569565,449.4981998569565,449.4981998569565,l,0.791270058020018,1,694,2,450.3171633129241,451.83210412599146,,,,,,,,,,,,,,,,,,,,,58294,2022-11-08_10h17.39.240,vts_reward_expectancy_bt_OFFLINE,2022.2.4,60.147013149159356,
1,0,0,0,0,0,0,1,triangle,star,2,0,2,0,2,7,31,2,,,,,,,,,,,,452.31525831797626,452.31525831797626,452.31525831797626,452.31525831797626,452.31525831797626,452.31525831797626,452.31525831797626,452.31525831797626,452.31525831797626,452.31525831797626,l,0.8430464658886194,1,695,2,453.18260386993643,454.6850874009542,,,,,,,,,,,,,,,,,,,,,58294,2022-11-08_10h17.39.240,vts_reward_expectancy_bt_OFFLINE,2022.2.4,60.147013149159356,
0,0,1,0,1,0,0,0,hexagon,triangle,2,0,2,0,2,8,32,6,,,,,,,,,,,,455.18518154590856,455.18518154590856,455.18518154590856,455.18518154590856,455.18518154590856,455.18518154590856,455.18518154590856,455.18518154590856,455.18518154590856,455.18518154590856,a,0.5826478939270601,1,696,2,455.7853214099305,457.2860308570089,457.2860308570089,457.7862476729788,,,,,,,,,,,,,,,,,,,58294,2022-11-08_10h17.39.240,vts_reward_expectancy_bt_OFFLINE,2022.2.4,60.147013149159356,
0,0,0,1,1,0,0,0,star,triangle,2,0,2,0,2,9,33,9,,,,,,,,,,,,457.7862476729788,457.7862476729788,457.7862476729788,457.7862476729788,457.7862476729788,457.7862476729788,457.7862476729788,457.7862476729788,457.7862476729788,457.7862476729788,a,1.0314713240368292,1,697,2,458.83634134591557,460.3390682740137,,,,,,,,,,,,,,,,,,,,,58294,2022-11-08_10h17.39.240,vts_reward_expectancy_bt_OFFLINE,2022.2.4,60.147013149159356,
0,1,0,0,1,0,0,0,circle,triangle,2,0,2,0,2,10,34,3,,,,,,,,,,,,460.8390758149326,460.8390758149326,460.8390758149326,460.8390758149326,460.8390758149326,460.8390758149326,460.8390758149326,460.8390758149326,460.8390758149326,460.8390758149326,l,0.6667052919510752,1,698,2,461.52295612497255,463.02321043098345,463.02321043098345,463.52326871000696,,,,,,,,,,,,,,,,,,,58294,2022-11-08_10h17.39.240,vts_reward_expectancy_bt_OFFLINE,2022.2.4,60.147013149159356,
0,1,0,0,0,0,0,1,circle,star,2,0,2,0,2,11,35,5,,,,,,,,,,,,463.52326871000696,463.52326871000696,463.52326871000696,463.52326871000696,463.52326871000696,463.52326871000696,463.52326871000696,463.52326871000696,463.52326871000696,463.52326871000696,a,0.694207711960189,10,708,2,464.24438744899817,465.75971029000357,,,,,,,,,,,,,,,,,,,,,58294,2022-11-08_10h17.39.240,vts_reward_expectancy_bt_OFFLINE,2022.2.4,60.147013149159356,
0,0,1,0,0,1,0,0,hexagon,circle,2,0,2,0,3,0,36,7,,,,,,,,,,,,466.2598832529038,466.2598832529038,466.2598832529038,466.2598832529038,466.2598832529038,466.2598832529038,466.2598832529038,466.2598832529038,466.2598832529038,466.2598832529038,l,0.5335481740767136,10,718,2,466.8264345759526,468.3268477959791,468.3268477959791,468.8270712669473,,,,,,,,,,,,,,,,,,,58294,2022-11-08_10h17.39.240,vts_reward_expectancy_bt_OFFLINE,2022.2.4,60.147013149159356,
1,0,0,0,0,1,0,0,triangle,circle,2,0,2,0,3,1,37,0,,,,,,,,,,,,468.8270712669473,468.8270712669473,468.8270712669473,468.8270712669473,468.8270712669473,468.8270712669473,468.8270712669473,468.8270712669473,468.8270712669473,468.8270712669473,l,0.5651896999916062,10,728,2,469.4129139209399,470.91317263792735,470.91317263792735,,,,,,,,,,,,,,,,,,,,58294,2022-11-08_10h17.39.240,vts_reward_expectancy_bt_OFFLINE,2022.2.4,60.147013149159356,
0,0,1,0,0,0,0,1,hexagon,star,2,0,2,0,3,2,38,8,,,,,,,,,,,,471.41341024800204,471.41341024800204,471.41341024800204,471.41341024800204,471.41341024800204,471.41341024800204,471.41341024800204,471.41341024800204,471.41341024800204,471.41341024800204,a,0.6563691770425066,1,729,2,472.09903055697214,473.6142129090149,,,,,,,,,,,,,,,,,,,,,58294,2022-11-08_10h17.39.240,vts_reward_expectancy_bt_OFFLINE,2022.2.4,60.147013149159356,
0,0,1,0,1,0,0,0,hexagon,triangle,2,0,2,0,3,3,39,6,,,,,,,,,,,,474.0993798499694,474.0993798499694,474.0993798499694,474.0993798499694,474.0993798499694,474.0993798499694,474.0993798499694,474.0993798499694,474.0993798499694,474.0993798499694,a,0.6591042920481414,10,739,2,474.7865686309524,476.3003362659365,,,,,,,,,,,,,,,,,,,,,58294,2022-11-08_10h17.39.240,vts_reward_expectancy_bt_OFFLINE,2022.2.4,60.147013149159356,
1,0,0,0,0,0,1,0,triangle,hexagon,2,0,2,0,3,4,40,1,,,,,,,,,,,,476.8002647389658,476.8002647389658,476.8002647389658,476.8002647389658,476.8002647389658,476.8002647389658,476.8002647389658,476.8002647389658,476.8002647389658,476.8002647389658,l,0.614394043921493,10,749,2,477.4343353000004,478.93490791192744,478.93490791192744,,,,,,,,,,,,,,,,,,,,58294,2022-11-08_10h17.39.240,vts_reward_expectancy_bt_OFFLINE,2022.2.4,60.147013149159356,
0,0,0,1,0,1,0,0,star ,circle,2,0,2,0,3,5,41,10,,,,,,,,,,,,479.4363386479672,479.4363386479672,479.4363386479672,479.4363386479672,479.4363386479672,479.4363386479672,479.4363386479672,479.4363386479672,479.4363386479672,479.4363386479672,a,0.44223701499868184,10,759,2,479.9032209329307,481.403897273005,,,,,,,,,,,,,,,,,,,,,58294,2022-11-08_10h17.39.240,vts_reward_expectancy_bt_OFFLINE,2022.2.4,60.147013149159356,
0,1,0,0,0,0,0,1,circle,star,2,0,2,0,3,6,42,5,,,,,,,,,,,,481.90393763093743,481.90393763093743,481.90393763093743,481.90393763093743,481.90393763093743,481.90393763093743,481.90393763093743,481.90393763093743,481.90393763093743,481.90393763093743,l,0.5847654029494151,1,760,2,482.5211321290117,484.0265243879985,,,,,,,,,,,,,,,,,,,,,58294,2022-11-08_10h17.39.240,vts_reward_expectancy_bt_OFFLINE,2022.2.4,60.147013149159356,
0,1,0,0,0,0,1,0,circle,hexagon,2,0,2,0,3,7,43,4,,,,,,,,,,,,484.52374630293343,484.52374630293343,484.52374630293343,484.52374630293343,484.52374630293343,484.52374630293343,484.52374630293343,484.52374630293343,484.52374630293343,484.52374630293343,a,0.7879854800412431,10,770,2,485.3429664229043,486.8574358919868,,,,,,,,,,,,,,,,,,,,,58294,2022-11-08_10h17.39.240,vts_reward_expectancy_bt_OFFLINE,2022.2.4,60.147013149159356,
1,0,0,0,0,0,0,1,triangle,star,2,0,2,0,3,8,44,2,,,,,,,,,,,,487.35794706991874,487.35794706991874,487.35794706991874,487.35794706991874,487.35794706991874,487.35794706991874,487.35794706991874,487.35794706991874,487.35794706991874,487.35794706991874,l,0.6437121840426698,10,780,2,488.02521434798837,489.5270641359966,,,,,,,,,,,,,,,,,,,,,58294,2022-11-08_10h17.39.240,vts_reward_expectancy_bt_OFFLINE,2022.2.4,60.147013149159356,
0,0,0,1,0,0,1,0,star,hexagon,2,0,2,0,3,9,45,11,,,,,,,,,,,,490.02724637591746,490.02724637591746,490.02724637591746,490.02724637591746,490.02724637591746,490.02724637591746,490.02724637591746,490.02724637591746,490.02724637591746,490.02724637591746,a,0.6068502869457006,10,790,2,490.6612105079694,492.16122797096614,492.16122797096614,492.6616103389533,,,,,,,,,,,,,,,,,,,58294,2022-11-08_10h17.39.240,vts_reward_expectancy_bt_OFFLINE,2022.2.4,60.147013149159356,
0,1,0,0,1,0,0,0,circle,triangle,2,0,2,0,3,10,46,3,,,,,,,,,,,,492.6616103389533,492.6616103389533,492.6616103389533,492.6616103389533,492.6616103389533,492.6616103389533,492.6616103389533,492.6616103389533,492.6616103389533,492.6616103389533,a,0.7514520540134981,1,791,2,493.4452636319911,494.9474572199397,,,,,,,,,,,,,,,,,,,,,58294,2022-11-08_10h17.39.240,vts_reward_expectancy_bt_OFFLINE,2022.2.4,60.147013149159356,
0,0,0,1,1,0,0,0,star,triangle,2,0,2,0,3,11,47,9,,,,,,,,,,,,495.44787073193584,495.44787073193584,495.44787073193584,495.44787073193584,495.44787073193584,495.44787073193584,495.44787073193584,495.44787073193584,495.44787073193584,495.44787073193584,a,0.6876496269833297,10,801,2,496.1670766189927,497.68214570591226,,,,,,,,,,,,,,,,,,,,,58294,2022-11-08_10h17.39.240,vts_reward_expectancy_bt_OFFLINE,2022.2.4,60.147013149159356,
,,,,,,,,,,,,,,,,,,0,0,0,0,0,0,0,0,,,,,,,,,,,,,,,,,,,,533.2245354269398,,,F,174,hexagon,0.0009884849423542619,527.2282670229906,528.704130679951,528.704130679951,528.704130679951,531.7073069509352,531.7073069509352,531.7073069509352,0,0,None,0,531.7272857339121,,,58294,2022-11-08_10h17.39.240,vts_reward_expectancy_bt_OFFLINE,2022.2.4,60.147013149159356,
,,,,,,,,,,,,,,,,,,0,0,0,0,1,0,1,0,,,,,,,,,,,,,,,,,,,,538.7613727679709,,,U,160,triangle,0.004804861964657903,534.2214210989187,535.7100857029436,535.7100857029436,535.7100857029436,,,,1,1,f,0,537.2477746820077,1.5128070670180023,,58294,2022-11-08_10h17.39.240,vts_reward_expectancy_bt_OFFLINE,2022.2.4,60.147013149159356,
,,,,,,,,,,,,,,,,,,0,0,0,0,2,0,2,0,,,,,,,,,,,,,,,,,,,,543.8482702639885,,,D,132,star,0.0021776179783046246,539.7427395440172,541.2308102189563,541.2308102189563,541.2308102189563,,,,1,0,d,0,542.3480401309207,1.0889089800184593,543.8482702639885,58294,2022-11-08_10h17.39.240,vts_reward_expectancy_bt_OFFLINE,2022.2.4,60.147013149159356,
,,,,,,,,,,,,,,,,,,0,0,0,0,3,0,3,0,,,,,,,,,,,,,,,,,,,,549.7539492399665,,,W,139,circle,0.0016414739657193422,544.8463812050177,546.3344439689536,546.3344439689536,546.3344439689536,,,,1,0,f,0,548.2524824140128,1.8908117909450084,,58294,2022-11-08_10h17.39.240,vts_reward_expectancy_bt_OFFLINE,2022.2.4,60.147013149159356,
,,,,,,,,,,,,,,,,,,0,0,0,0,4,0,4,0,,,,,,,,,,,,,,,,,,,,555.9916527869646,,556.4918399209855,S,125,circle,0.0015777640510350466,550.7502671729308,552.2382861749502,552.2382861749502,552.2382861749502,,,,1,0,f,0,554.490869264002,2.22065977496095,555.9916527869646,58294,2022-11-08_10h17.39.240,vts_reward_expectancy_bt_OFFLINE,2022.2.4,60.147013149159356,
,,,,,,,,,,,,,,,,,,0,0,0,0,5,0,5,0,,,,,,,,,,,,,,,,,,,,561.362110117916,,561.8621874329401,B,181,hexagon,0.00042879406828433275,556.9997714109486,558.4758141589118,558.4758141589118,558.4758141589118,,,,1,0,d,0,559.8616764500039,1.360032883938402,561.362110117916,58294,2022-11-08_10h17.39.240,vts_reward_expectancy_bt_OFFLINE,2022.2.4,60.147013149159356,
,,,,,,,,,,,,,,,,,,0,0,0,0,6,0,6,0,,,,,,,,,,,,,,,,,,,,566.5827224949608,,,H,167,star,0.000550283002667129,562.3700617760187,563.8462676199852,563.8462676199852,563.8462676199852,,,,0,0,f,0,565.0845792900072,1.2101162920007482,,58294,2022-11-08_10h17.39.240,vts_reward_expectancy_bt_OFFLINE,2022.2.4,60.147013149159356,
,,,,,,,,,,,,,,,,,,0,0,0,0,7,0,7,0,,,,,,,,,,,,,,,,,,,,571.4525628580013,,,Y,146,triangle,0.0005161669105291367,567.5787938989233,569.0642830899451,569.0642830899451,569.0642830899451,,,,1,1,f,0,569.9381389069604,0.8415484320139512,,58294,2022-11-08_10h17.39.240,vts_reward_expectancy_bt_OFFLINE,2022.2.4,60.147013149159356,
,,,,,,,,,,,,,,,,,,0,0,0,0,8,0,8,0,,,,,,,,,,,,,,,,,,,,576.3398988440167,,576.8398203109391,F,174,circle,0.017283878987655044,572.4489713459043,573.9205661069136,573.9205661069136,573.9205661069136,,,,1,0,d,0,574.8401736689266,0.901970393024385,576.3398988440167,58294,2022-11-08_10h17.39.240,vts_reward_expectancy_bt_OFFLINE,2022.2.4,60.147013149159356,
,,,,,,,,,,,,,,,,,,0,0,0,0,9,0,9,0,,,,,,,,,,,,,,,,,,,,581.4099562539486,,581.9178972080117,U,160,triangle,0.00020735803991556168,577.3473188600037,578.8237569159828,578.8237569159828,578.8237569159828,,,,1,0,f,0,579.9101339170011,1.0607339689740911,581.4099562539486,58294,2022-11-08_10h17.39.240,vts_reward_expectancy_bt_OFFLINE,2022.2.4,60.147013149159356,
