LTriangleOpac,LCircleOpac,LHexagonOpac,LStarOpac,RTriangleOpac,RCircleOpac,RHexagonOpac,RStarOpac,LShape_ID,RShape_ID,training_blocks.thisRepN,training_blocks.thisTrialN,training_blocks.thisN,training_blocks.thisIndex,training.thisRepN,training.thisTrialN,training.thisN,training.thisIndex,task1_prac_redo.thisRepN,task1_prac_redo.thisTrialN,task1_prac_redo.thisN,task1_prac_redo.thisIndex,task1_prac_trials.thisRepN,task1_prac_trials.thisTrialN,task1_prac_trials.thisN,task1_prac_trials.thisIndex,key_resp.started,key_resp.keys,key_resp.rt,left_circle.started,right_circle.started,left_triangle.started,right_triangle.started,left_star.started,right_star.started,left_hexagon.started,right_hexagon.started,training_fix.started,training_resp.started,training_resp.keys,training_resp.rt,points_trial,points_cumul,trainBlock,training_feedback_txt.started,training_feedback_txt.stopped,fix.started,fix.stopped,curr_topStim,curr_bottStim,curr_shape,ISI.started,tgt_fix_prac1.started,top_target_prac1.started,bott_target_prac1.started,target_resp_prac1.started,acc,E1,target_resp_prac1.keys,target_resp_prac1.rt,pracBlock,prac_fback_text.started,top_target_prac1.stopped,tgt_fix_prac1.stopped,bott_target_prac1.stopped,target_resp_prac1.stopped,prac_fback_text.stopped,participant,date,expName,psychopyVersion,frameRate,
,,,,,,,,,,,,,,,,,,,,,,,,,,311.1591957830824,space,17.258227292913944,,,,,,,,,,,,,,,,,,,,,,,,,,,,,,,,,,,,,,,85891,2022-11-11_15h01.07.648,vts_reward_expectancy_bt_OFFLINE,2022.2.4,60.74368475417396,
1,0,0,0,0,0,1,0,triangle,hexagon,0,0,0,0,0,0,0,1,,,,,,,,,,,,361.5646781399846,361.5646781399846,361.5646781399846,361.5646781399846,361.5646781399846,361.5646781399846,361.5646781399846,361.5646781399846,361.5646781399846,361.5646781399846,l,3.4048381859902292,1,1,0,365.00175893702544,366.50356410001405,366.50356410001405,,,,,,,,,,,,,,,,,,,,,85891,2022-11-11_15h01.07.648,vts_reward_expectancy_bt_OFFLINE,2022.2.4,60.74368475417396,
0,0,1,0,1,0,0,0,hexagon,triangle,0,0,0,0,0,1,1,6,,,,,,,,,,,,367.0040613319725,367.0040613319725,367.0040613319725,367.0040613319725,367.0040613319725,367.0040613319725,367.0040613319725,367.0040613319725,367.0040613319725,367.0040613319725,a,1.4088784400373697,1,2,0,368.43903568410315,,369.94066983810626,,,,,,,,,,,,,,,,,,,,,85891,2022-11-11_15h01.07.648,vts_reward_expectancy_bt_OFFLINE,2022.2.4,60.74368475417396,
0,0,0,1,0,1,0,0,star ,circle,0,0,0,0,0,2,2,10,,,,,,,,,,,,370.4411406989675,370.4411406989675,370.4411406989675,370.4411406989675,370.4411406989675,370.4411406989675,370.4411406989675,370.4411406989675,370.4411406989675,370.4411406989675,a,1.5036734067834914,1,3,0,371.97611735993996,,373.47778149996884,,,,,,,,,,,,,,,,,,,,,85891,2022-11-11_15h01.07.648,vts_reward_expectancy_bt_OFFLINE,2022.2.4,60.74368475417396,
1,0,0,0,0,1,0,0,triangle,circle,0,0,0,0,0,3,3,0,,,,,,,,,,,,373.9784668551292,373.9784668551292,373.9784668551292,373.9784668551292,373.9784668551292,373.9784668551292,373.9784668551292,373.9784668551292,373.9784668551292,373.9784668551292,l,1.4336274317465723,10,13,0,375.446728823008,,376.94816132215783,,,,,,,,,,,,,,,,,,,,,85891,2022-11-11_15h01.07.648,vts_reward_expectancy_bt_OFFLINE,2022.2.4,60.74368475417396,
0,1,0,0,1,0,0,0,circle,triangle,0,0,0,0,0,4,4,3,,,,,,,,,,,,377.44894807296805,377.44894807296805,377.44894807296805,377.44894807296805,377.44894807296805,377.44894807296805,377.44894807296805,377.44894807296805,377.44894807296805,377.44894807296805,a,0.6403881448786706,10,23,0,378.11620883014984,,379.6178804249503,,,,,,,,,,,,,,,,,,,,,85891,2022-11-11_15h01.07.648,vts_reward_expectancy_bt_OFFLINE,2022.2.4,60.74368475417396,
0,0,1,0,0,0,0,1,hexagon,star,0,0,0,0,0,5,5,8,,,,,,,,,,,,380.1185425419826,380.1185425419826,380.1185425419826,380.1185425419826,380.1185425419826,380.1185425419826,380.1185425419826,380.1185425419826,380.1185425419826,380.1185425419826,a,1.9865997608285397,1,24,0,382.1376075751614,,383.63895341404714,,,,,,,,,,,,,,,,,,,,,85891,2022-11-11_15h01.07.648,vts_reward_expectancy_bt_OFFLINE,2022.2.4,60.74368475417396,
1,0,0,0,0,0,0,1,triangle,star,0,0,0,0,0,6,6,2,,,,,,,,,,,,384.139599832939,384.139599832939,384.139599832939,384.139599832939,384.139599832939,384.139599832939,384.139599832939,384.139599832939,384.139599832939,384.139599832939,a,0.8577707279473543,1,25,0,385.0238659279421,,386.5255190820899,,,,,,,,,,,,,,,,,,,,,85891,2022-11-11_15h01.07.648,vts_reward_expectancy_bt_OFFLINE,2022.2.4,60.74368475417396,
0,0,1,0,0,1,0,0,hexagon,circle,0,0,0,0,0,7,7,7,,,,,,,,,,,,387.0262767050881,387.0262767050881,387.0262767050881,387.0262767050881,387.0262767050881,387.0262767050881,387.0262767050881,387.0262767050881,387.0262767050881,387.0262767050881,l,0.827850392088294,10,35,0,387.8769993381575,389.37850645394064,389.37850645394064,,,,,,,,,,,,,,,,,,,,,85891,2022-11-11_15h01.07.648,vts_reward_expectancy_bt_OFFLINE,2022.2.4,60.74368475417396,
0,0,0,1,0,0,1,0,star,hexagon,0,0,0,0,0,8,8,11,,,,,,,,,,,,389.8792460821569,389.8792460821569,389.8792460821569,389.8792460821569,389.8792460821569,389.8792460821569,389.8792460821569,389.8792460821569,389.8792460821569,389.8792460821569,a,1.3516204599291086,1,36,0,391.24744274211116,392.7491109720431,392.7491109720431,,,,,,,,,,,,,,,,,,,,,85891,2022-11-11_15h01.07.648,vts_reward_expectancy_bt_OFFLINE,2022.2.4,60.74368475417396,
0,0,0,1,1,0,0,0,star,triangle,0,0,0,0,0,9,9,9,,,,,,,,,,,,393.24953558295965,393.24953558295965,393.24953558295965,393.24953558295965,393.24953558295965,393.24953558295965,393.24953558295965,393.24953558295965,393.24953558295965,393.24953558295965,a,1.9732200857251883,1,37,0,395.25194105296396,,396.75340318493545,,,,,,,,,,,,,,,,,,,,,85891,2022-11-11_15h01.07.648,vts_reward_expectancy_bt_OFFLINE,2022.2.4,60.74368475417396,
0,1,0,0,0,0,1,0,circle,hexagon,0,0,0,0,0,10,10,4,,,,,,,,,,,,397.25422666198574,397.25422666198574,397.25422666198574,397.25422666198574,397.25422666198574,397.25422666198574,397.25422666198574,397.25422666198574,397.25422666198574,397.25422666198574,a,0.5117903698701411,10,47,0,397.788065002067,,399.2897690590471,,,,,,,,,,,,,,,,,,,,,85891,2022-11-11_15h01.07.648,vts_reward_expectancy_bt_OFFLINE,2022.2.4,60.74368475417396,
0,1,0,0,0,0,0,1,circle,star,0,0,0,0,0,11,11,5,,,,,,,,,,,,399.7902873021085,399.7902873021085,399.7902873021085,399.7902873021085,399.7902873021085,399.7902873021085,399.7902873021085,399.7902873021085,399.7902873021085,399.7902873021085,a,0.5519498928915709,10,57,0,400.37410815199837,,401.8757615231443,,,,,,,,,,,,,,,,,,,,,85891,2022-11-11_15h01.07.648,vts_reward_expectancy_bt_OFFLINE,2022.2.4,60.74368475417396,
0,1,0,0,0,0,1,0,circle,hexagon,0,0,0,0,1,0,12,4,,,,,,,,,,,,402.3763308990747,402.3763308990747,402.3763308990747,402.3763308990747,402.3763308990747,402.3763308990747,402.3763308990747,402.3763308990747,402.3763308990747,402.3763308990747,a,0.5871465818490833,10,67,0,402.99369472498074,,404.4953393100295,,,,,,,,,,,,,,,,,,,,,85891,2022-11-11_15h01.07.648,vts_reward_expectancy_bt_OFFLINE,2022.2.4,60.74368475417396,
0,0,1,0,0,0,0,1,hexagon,star,0,0,0,0,1,1,13,8,,,,,,,,,,,,404.9956431090832,404.9956431090832,404.9956431090832,404.9956431090832,404.9956431090832,404.9956431090832,404.9956431090832,404.9956431090832,404.9956431090832,404.9956431090832,a,0.39878017688170075,1,68,0,405.4129724591039,,406.91457031900063,,,,,,,,,,,,,,,,,,,,,85891,2022-11-11_15h01.07.648,vts_reward_expectancy_bt_OFFLINE,2022.2.4,60.74368475417396,
1,0,0,0,0,1,0,0,triangle,circle,0,0,0,0,1,2,14,0,,,,,,,,,,,,407.41521769412793,407.41521769412793,407.41521769412793,407.41521769412793,407.41521769412793,407.41521769412793,407.41521769412793,407.41521769412793,407.41521769412793,407.41521769412793,l,0.6443633658345789,10,78,0,408.0826459550299,,409.58439984498546,,,,,,,,,,,,,,,,,,,,,85891,2022-11-11_15h01.07.648,vts_reward_expectancy_bt_OFFLINE,2022.2.4,60.74368475417396,
0,0,0,1,0,1,0,0,star ,circle,0,0,0,0,1,3,15,10,,,,,,,,,,,,410.08479116414674,410.08479116414674,410.08479116414674,410.08479116414674,410.08479116414674,410.08479116414674,410.08479116414674,410.08479116414674,410.08479116414674,410.08479116414674,l,0.5077500510960817,10,88,0,410.6187129570171,,412.1205319969449,,,,,,,,,,,,,,,,,,,,,85891,2022-11-11_15h01.07.648,vts_reward_expectancy_bt_OFFLINE,2022.2.4,60.74368475417396,
0,0,0,1,0,0,1,0,star,hexagon,0,0,0,0,1,4,16,11,,,,,,,,,,,,412.62081891996786,412.62081891996786,412.62081891996786,412.62081891996786,412.62081891996786,412.62081891996786,412.62081891996786,412.62081891996786,412.62081891996786,412.62081891996786,l,1.6855024490505457,1,89,0,414.32300539896823,415.82441290514544,415.82441290514544,,,,,,,,,,,,,,,,,,,,,85891,2022-11-11_15h01.07.648,vts_reward_expectancy_bt_OFFLINE,2022.2.4,60.74368475417396,
1,0,0,0,0,0,1,0,triangle,hexagon,0,0,0,0,1,5,17,1,,,,,,,,,,,,416.3251654631458,416.3251654631458,416.3251654631458,416.3251654631458,416.3251654631458,416.3251654631458,416.3251654631458,416.3251654631458,416.3251654631458,416.3251654631458,a,0.8701592008583248,10,99,0,417.2260971330106,418.7278214120306,418.7278214120306,419.2283879390452,,,,,,,,,,,,,,,,,,,,85891,2022-11-11_15h01.07.648,vts_reward_expectancy_bt_OFFLINE,2022.2.4,60.74368475417396,
0,0,1,0,1,0,0,0,hexagon,triangle,0,0,0,0,1,6,18,6,,,,,,,,,,,,419.2283879390452,419.2283879390452,419.2283879390452,419.2283879390452,419.2283879390452,419.2283879390452,419.2283879390452,419.2283879390452,419.2283879390452,419.2283879390452,l,0.9852862770203501,10,109,0,420.24609409994446,421.7477953969501,421.7477953969501,,,,,,,,,,,,,,,,,,,,,85891,2022-11-11_15h01.07.648,vts_reward_expectancy_bt_OFFLINE,2022.2.4,60.74368475417396,
0,0,0,1,1,0,0,0,star,triangle,0,0,0,0,1,7,19,9,,,,,,,,,,,,422.2483056469355,422.2483056469355,422.2483056469355,422.2483056469355,422.2483056469355,422.2483056469355,422.2483056469355,422.2483056469355,422.2483056469355,422.2483056469355,l,1.3709552448708564,10,119,0,423.6499647120945,425.15151677210815,425.15151677210815,,,,,,,,,,,,,,,,,,,,,85891,2022-11-11_15h01.07.648,vts_reward_expectancy_bt_OFFLINE,2022.2.4,60.74368475417396,
1,0,0,0,0,0,0,1,triangle,star,0,0,0,0,1,8,20,2,,,,,,,,,,,,425.65197617397644,425.65197617397644,425.65197617397644,425.65197617397644,425.65197617397644,425.65197617397644,425.65197617397644,425.65197617397644,425.65197617397644,425.65197617397644,a,0.6245659708511084,10,129,0,426.302600444993,,427.8043373289984,,,,,,,,,,,,,,,,,,,,,85891,2022-11-11_15h01.07.648,vts_reward_expectancy_bt_OFFLINE,2022.2.4,60.74368475417396,
0,1,0,0,1,0,0,0,circle,triangle,0,0,0,0,1,9,21,3,,,,,,,,,,,,428.30501264799386,428.30501264799386,428.30501264799386,428.30501264799386,428.30501264799386,428.30501264799386,428.30501264799386,428.30501264799386,428.30501264799386,428.30501264799386,a,1.6716668498702347,10,139,0,430.00666642794386,,431.50853220000863,,,,,,,,,,,,,,,,,,,,,85891,2022-11-11_15h01.07.648,vts_reward_expectancy_bt_OFFLINE,2022.2.4,60.74368475417396,
0,1,0,0,0,0,0,1,circle,star,0,0,0,0,1,10,22,5,,,,,,,,,,,,432.0091715150047,432.0091715150047,432.0091715150047,432.0091715150047,432.0091715150047,432.0091715150047,432.0091715150047,432.0091715150047,432.0091715150047,432.0091715150047,a,0.5012531909160316,10,149,0,432.5430565881543,,434.0446677771397,,,,,,,,,,,,,,,,,,,,,85891,2022-11-11_15h01.07.648,vts_reward_expectancy_bt_OFFLINE,2022.2.4,60.74368475417396,
0,0,1,0,0,1,0,0,hexagon,circle,0,0,0,0,1,11,23,7,,,,,,,,,,,,434.54535747808404,434.54535747808404,434.54535747808404,434.54535747808404,434.54535747808404,434.54535747808404,434.54535747808404,434.54535747808404,434.54535747808404,434.54535747808404,l,0.5741259139031172,10,159,0,435.14574239915237,,436.64745021797717,,,,,,,,,,,,,,,,,,,,,85891,2022-11-11_15h01.07.648,vts_reward_expectancy_bt_OFFLINE,2022.2.4,60.74368475417396,
0,0,1,0,1,0,0,0,hexagon,triangle,0,0,0,0,2,0,24,6,,,,,,,,,,,,437.1480562130455,437.1480562130455,437.1480562130455,437.1480562130455,437.1480562130455,437.1480562130455,437.1480562130455,437.1480562130455,437.1480562130455,437.1480562130455,l,0.7034072037786245,10,169,0,437.8823964979965,,439.3840512020979,,,,,,,,,,,,,,,,,,,,,85891,2022-11-11_15h01.07.648,vts_reward_expectancy_bt_OFFLINE,2022.2.4,60.74368475417396,
0,1,0,0,0,0,1,0,circle,hexagon,0,0,0,0,2,1,25,4,,,,,,,,,,,,439.88425381295383,439.88425381295383,439.88425381295383,439.88425381295383,439.88425381295383,439.88425381295383,439.88425381295383,439.88425381295383,439.88425381295383,439.88425381295383,a,0.712541245855391,10,179,0,440.61844555893913,,442.1201503491029,,,,,,,,,,,,,,,,,,,,,85891,2022-11-11_15h01.07.648,vts_reward_expectancy_bt_OFFLINE,2022.2.4,60.74368475417396,
1,0,0,0,0,0,1,0,triangle,hexagon,0,0,0,0,2,2,26,1,,,,,,,,,,,,442.62059210194275,442.62059210194275,442.62059210194275,442.62059210194275,442.62059210194275,442.62059210194275,442.62059210194275,442.62059210194275,442.62059210194275,442.62059210194275,a,0.8019401677884161,10,189,0,443.4549948051572,,444.95675085205585,,,,,,,,,,,,,,,,,,,,,85891,2022-11-11_15h01.07.648,vts_reward_expectancy_bt_OFFLINE,2022.2.4,60.74368475417396,
0,0,0,1,0,0,1,0,star,hexagon,0,0,0,0,2,3,27,11,,,,,,,,,,,,445.45713570015505,445.45713570015505,445.45713570015505,445.45713570015505,445.45713570015505,445.45713570015505,445.45713570015505,445.45713570015505,445.45713570015505,445.45713570015505,l,2.643863716861233,1,190,0,448.12685787910596,,449.62832308211364,,,,,,,,,,,,,,,,,,,,,85891,2022-11-11_15h01.07.648,vts_reward_expectancy_bt_OFFLINE,2022.2.4,60.74368475417396,
0,1,0,0,1,0,0,0,circle,triangle,0,0,0,0,2,4,28,3,,,,,,,,,,,,450.1289525090251,450.1289525090251,450.1289525090251,450.1289525090251,450.1289525090251,450.1289525090251,450.1289525090251,450.1289525090251,450.1289525090251,450.1289525090251,a,0.5606932940427214,10,200,0,450.7129069331568,,452.2146185140591,,,,,,,,,,,,,,,,,,,,,85891,2022-11-11_15h01.07.648,vts_reward_expectancy_bt_OFFLINE,2022.2.4,60.74368475417396,
0,0,1,0,0,1,0,0,hexagon,circle,0,0,0,0,2,5,29,7,,,,,,,,,,,,452.7152941201348,452.7152941201348,452.7152941201348,452.7152941201348,452.7152941201348,452.7152941201348,452.7152941201348,452.7152941201348,452.7152941201348,452.7152941201348,a,0.7186493589542806,1,201,0,453.4660943651106,,454.9677947370801,,,,,,,,,,,,,,,,,,,,,85891,2022-11-11_15h01.07.648,vts_reward_expectancy_bt_OFFLINE,2022.2.4,60.74368475417396,
1,0,0,0,0,0,0,1,triangle,star,0,0,0,0,2,6,30,2,,,,,,,,,,,,455.46821637800895,455.46821637800895,455.46821637800895,455.46821637800895,455.46821637800895,455.46821637800895,455.46821637800895,455.46821637800895,455.46821637800895,455.46821637800895,a,0.5672474368475378,10,211,0,456.05221351003274,457.5539079969749,457.5539079969749,,,,,,,,,,,,,,,,,,,,,85891,2022-11-11_15h01.07.648,vts_reward_expectancy_bt_OFFLINE,2022.2.4,60.74368475417396,
0,0,1,0,0,0,0,1,hexagon,star,0,0,0,0,2,7,31,8,,,,,,,,,,,,458.05449823010713,458.05449823010713,458.05449823010713,458.05449823010713,458.05449823010713,458.05449823010713,458.05449823010713,458.05449823010713,458.05449823010713,458.05449823010713,a,1.7826135188806802,1,212,0,459.85646804701537,,461.35811061016284,,,,,,,,,,,,,,,,,,,,,85891,2022-11-11_15h01.07.648,vts_reward_expectancy_bt_OFFLINE,2022.2.4,60.74368475417396,
0,0,0,1,1,0,0,0,star,triangle,0,0,0,0,2,8,32,9,,,,,,,,,,,,461.85865200916305,461.85865200916305,461.85865200916305,461.85865200916305,461.85865200916305,461.85865200916305,461.85865200916305,461.85865200916305,461.85865200916305,461.85865200916305,l,0.6009150769095868,10,222,0,462.4928890131414,,463.99451976199634,,,,,,,,,,,,,,,,,,,,,85891,2022-11-11_15h01.07.648,vts_reward_expectancy_bt_OFFLINE,2022.2.4,60.74368475417396,
1,0,0,0,0,1,0,0,triangle,circle,0,0,0,0,2,9,33,0,,,,,,,,,,,,464.47805446293205,464.47805446293205,464.47805446293205,464.47805446293205,464.47805446293205,464.47805446293205,464.47805446293205,464.47805446293205,464.47805446293205,464.47805446293205,l,0.6116831027902663,10,232,0,465.1120795791503,,466.6136850020848,,,,,,,,,,,,,,,,,,,,,85891,2022-11-11_15h01.07.648,vts_reward_expectancy_bt_OFFLINE,2022.2.4,60.74368475417396,
0,0,0,1,0,1,0,0,star ,circle,0,0,0,0,2,10,34,10,,,,,,,,,,,,467.11453187209554,467.11453187209554,467.11453187209554,467.11453187209554,467.11453187209554,467.11453187209554,467.11453187209554,467.11453187209554,467.11453187209554,467.11453187209554,l,0.49542794981971383,10,242,0,467.6318249499891,,469.13319909293205,,,,,,,,,,,,,,,,,,,,,85891,2022-11-11_15h01.07.648,vts_reward_expectancy_bt_OFFLINE,2022.2.4,60.74368475417396,
0,1,0,0,0,0,0,1,circle,star,0,0,0,0,2,11,35,5,,,,,,,,,,,,469.63392226793803,469.63392226793803,469.63392226793803,469.63392226793803,469.63392226793803,469.63392226793803,469.63392226793803,469.63392226793803,469.63392226793803,469.63392226793803,a,0.5419861748814583,10,252,0,470.2012882169802,,471.7027817289345,,,,,,,,,,,,,,,,,,,,,85891,2022-11-11_15h01.07.648,vts_reward_expectancy_bt_OFFLINE,2022.2.4,60.74368475417396,
0,1,0,0,0,0,1,0,circle,hexagon,0,0,0,0,3,0,36,4,,,,,,,,,,,,472.2034229100682,472.2034229100682,472.2034229100682,472.2034229100682,472.2034229100682,472.2034229100682,472.2034229100682,472.2034229100682,472.2034229100682,472.2034229100682,a,0.6950291760731488,10,262,0,472.9207994930912,,474.42248638998717,,,,,,,,,,,,,,,,,,,,,85891,2022-11-11_15h01.07.648,vts_reward_expectancy_bt_OFFLINE,2022.2.4,60.74368475417396,
0,0,0,1,0,0,1,0,star,hexagon,0,0,0,0,3,1,37,11,,,,,,,,,,,,474.92321001994424,474.92321001994424,474.92321001994424,474.92321001994424,474.92321001994424,474.92321001994424,474.92321001994424,474.92321001994424,474.92321001994424,474.92321001994424,l,2.081174133811146,1,263,0,477.0254472689703,,478.5270502299536,,,,,,,,,,,,,,,,,,,,,85891,2022-11-11_15h01.07.648,vts_reward_expectancy_bt_OFFLINE,2022.2.4,60.74368475417396,
0,0,1,0,1,0,0,0,hexagon,triangle,0,0,0,0,3,2,38,6,,,,,,,,,,,,479.02775014797226,479.02775014797226,479.02775014797226,479.02775014797226,479.02775014797226,479.02775014797226,479.02775014797226,479.02775014797226,479.02775014797226,479.02775014797226,l,0.8918781487736851,1,264,0,479.94540989701636,,481.4468177780509,,,,,,,,,,,,,,,,,,,,,85891,2022-11-11_15h01.07.648,vts_reward_expectancy_bt_OFFLINE,2022.2.4,60.74368475417396,
1,0,0,0,0,1,0,0,triangle,circle,0,0,0,0,3,3,39,0,,,,,,,,,,,,481.947443789104,481.947443789104,481.947443789104,481.947443789104,481.947443789104,481.947443789104,481.947443789104,481.947443789104,481.947443789104,481.947443789104,l,1.3022453549783677,10,274,0,483.2822497340385,,484.7839182971511,,,,,,,,,,,,,,,,,,,,,85891,2022-11-11_15h01.07.648,vts_reward_expectancy_bt_OFFLINE,2022.2.4,60.74368475417396,
0,0,0,1,1,0,0,0,star,triangle,0,0,0,0,3,4,40,9,,,,,,,,,,,,485.28450013906695,485.28450013906695,485.28450013906695,485.28450013906695,485.28450013906695,485.28450013906695,485.28450013906695,485.28450013906695,485.28450013906695,485.28450013906695,l,1.4640520317479968,10,284,0,486.76950912200846,,488.27132435911335,,,,,,,,,,,,,,,,,,,,,85891,2022-11-11_15h01.07.648,vts_reward_expectancy_bt_OFFLINE,2022.2.4,60.74368475417396,
1,0,0,0,0,0,1,0,triangle,hexagon,0,0,0,0,3,5,41,1,,,,,,,,,,,,488.77163056796417,488.77163056796417,488.77163056796417,488.77163056796417,488.77163056796417,488.77163056796417,488.77163056796417,488.77163056796417,488.77163056796417,488.77163056796417,a,1.0150369079783559,10,294,0,489.8061325950548,,491.3078749140259,,,,,,,,,,,,,,,,,,,,,85891,2022-11-11_15h01.07.648,vts_reward_expectancy_bt_OFFLINE,2022.2.4,60.74368475417396,
0,1,0,0,1,0,0,0,circle,triangle,0,0,0,0,3,6,42,3,,,,,,,,,,,,491.8082802291028,491.8082802291028,491.8082802291028,491.8082802291028,491.8082802291028,491.8082802291028,491.8082802291028,491.8082802291028,491.8082802291028,491.8082802291028,a,0.8922894108109176,10,304,0,492.7261434830725,,494.2277013489511,,,,,,,,,,,,,,,,,,,,,85891,2022-11-11_15h01.07.648,vts_reward_expectancy_bt_OFFLINE,2022.2.4,60.74368475417396,
0,1,0,0,0,0,0,1,circle,star,0,0,0,0,3,7,43,5,,,,,,,,,,,,494.72807657904923,494.72807657904923,494.72807657904923,494.72807657904923,494.72807657904923,494.72807657904923,494.72807657904923,494.72807657904923,494.72807657904923,494.72807657904923,a,0.5149832067545503,10,314,0,495.2622751521412,,496.7639521500096,,,,,,,,,,,,,,,,,,,,,85891,2022-11-11_15h01.07.648,vts_reward_expectancy_bt_OFFLINE,2022.2.4,60.74368475417396,
1,0,0,0,0,0,0,1,triangle,star,0,0,0,0,3,8,44,2,,,,,,,,,,,,497.26423055911437,497.26423055911437,497.26423055911437,497.26423055911437,497.26423055911437,497.26423055911437,497.26423055911437,497.26423055911437,497.26423055911437,497.26423055911437,a,0.634971089893952,10,324,0,497.9315830441192,,499.4334862700198,,,,,,,,,,,,,,,,,,,,,85891,2022-11-11_15h01.07.648,vts_reward_expectancy_bt_OFFLINE,2022.2.4,60.74368475417396,
0,0,0,1,0,1,0,0,star ,circle,0,0,0,0,3,9,45,10,,,,,,,,,,,,499.93384182895534,499.93384182895534,499.93384182895534,499.93384182895534,499.93384182895534,499.93384182895534,499.93384182895534,499.93384182895534,499.93384182895534,499.93384182895534,l,0.5081787798553705,10,334,0,500.46797896013595,501.9694339381531,501.9694339381531,,,,,,,,,,,,,,,,,,,,,85891,2022-11-11_15h01.07.648,vts_reward_expectancy_bt_OFFLINE,2022.2.4,60.74368475417396,
0,0,1,0,0,1,0,0,hexagon,circle,0,0,0,0,3,10,46,7,,,,,,,,,,,,502.4700761369895,502.4700761369895,502.4700761369895,502.4700761369895,502.4700761369895,502.4700761369895,502.4700761369895,502.4700761369895,502.4700761369895,502.4700761369895,l,0.625351452967152,10,344,0,503.1208388870582,504.6224582090508,504.6224582090508,,,,,,,,,,,,,,,,,,,,,85891,2022-11-11_15h01.07.648,vts_reward_expectancy_bt_OFFLINE,2022.2.4,60.74368475417396,
0,0,1,0,0,0,0,1,hexagon,star,0,0,0,0,3,11,47,8,,,,,,,,,,,,505.1228883340955,505.1228883340955,505.1228883340955,505.1228883340955,505.1228883340955,505.1228883340955,505.1228883340955,505.1228883340955,505.1228883340955,505.1228883340955,l,2.002430632011965,10,354,0,507.1418161171023,508.64366765716113,508.64366765716113,,,,,,,,,,,,,,,,,,,,,85891,2022-11-11_15h01.07.648,vts_reward_expectancy_bt_OFFLINE,2022.2.4,60.74368475417396,
0,0,0,1,0,1,0,0,star ,circle,1,0,1,0,0,0,0,10,,,,,,,,,,,,519.2384528589901,519.2384528589901,519.2384528589901,519.2384528589901,519.2384528589901,519.2384528589901,519.2384528589901,519.2384528589901,519.2384528589901,519.2384528589901,l,1.745906313881278,10,364,1,521.0072001321241,,522.5088565291371,,,,,,,,,,,,,,,,,,,,,85891,2022-11-11_15h01.07.648,vts_reward_expectancy_bt_OFFLINE,2022.2.4,60.74368475417396,
0,1,0,0,0,0,1,0,circle,hexagon,1,0,1,0,0,1,1,4,,,,,,,,,,,,523.0096770329401,523.0096770329401,523.0096770329401,523.0096770329401,523.0096770329401,523.0096770329401,523.0096770329401,523.0096770329401,523.0096770329401,523.0096770329401,a,0.9347339780069888,10,374,1,523.9770273489412,,525.4786867420189,,,,,,,,,,,,,,,,,,,,,85891,2022-11-11_15h01.07.648,vts_reward_expectancy_bt_OFFLINE,2022.2.4,60.74368475417396,
0,0,1,0,1,0,0,0,hexagon,triangle,1,0,1,0,0,2,2,6,,,,,,,,,,,,525.9792340521235,525.9792340521235,525.9792340521235,525.9792340521235,525.9792340521235,525.9792340521235,525.9792340521235,525.9792340521235,525.9792340521235,525.9792340521235,l,0.6530412880238146,10,384,1,526.6634956020862,,528.1650911690667,,,,,,,,,,,,,,,,,,,,,85891,2022-11-11_15h01.07.648,vts_reward_expectancy_bt_OFFLINE,2022.2.4,60.74368475417396,
1,0,0,0,0,0,1,0,triangle,hexagon,1,0,1,0,0,3,3,1,,,,,,,,,,,,528.6656823679805,528.6656823679805,528.6656823679805,528.6656823679805,528.6656823679805,528.6656823679805,528.6656823679805,528.6656823679805,528.6656823679805,528.6656823679805,a,0.8586256289854646,1,385,1,529.5500175820198,,531.0516116421204,,,,,,,,,,,,,,,,,,,,,85891,2022-11-11_15h01.07.648,vts_reward_expectancy_bt_OFFLINE,2022.2.4,60.74368475417396,
0,0,0,1,1,0,0,0,star,triangle,1,0,1,0,0,4,4,9,,,,,,,,,,,,531.5522158150561,531.5522158150561,531.5522158150561,531.5522158150561,531.5522158150561,531.5522158150561,531.5522158150561,531.5522158150561,531.5522158150561,531.5522158150561,l,0.4686312999110669,10,395,1,532.0526522949804,,533.5543727900367,,,,,,,,,,,,,,,,,,,,,85891,2022-11-11_15h01.07.648,vts_reward_expectancy_bt_OFFLINE,2022.2.4,60.74368475417396,
0,0,1,0,0,0,0,1,hexagon,star,1,0,1,0,0,5,5,8,,,,,,,,,,,,534.0549499739427,534.0549499739427,534.0549499739427,534.0549499739427,534.0549499739427,534.0549499739427,534.0549499739427,534.0549499739427,534.0549499739427,534.0549499739427,l,1.173118885839358,1,396,1,535.2563875080086,,536.7580408989452,,,,,,,,,,,,,,,,,,,,,85891,2022-11-11_15h01.07.648,vts_reward_expectancy_bt_OFFLINE,2022.2.4,60.74368475417396,
1,0,0,0,0,1,0,0,triangle,circle,1,0,1,0,0,6,6,0,,,,,,,,,,,,537.2585663539357,537.2585663539357,537.2585663539357,537.2585663539357,537.2585663539357,537.2585663539357,537.2585663539357,537.2585663539357,537.2585663539357,537.2585663539357,l,1.0856353240087628,10,406,1,538.3763461371418,,539.8780281420331,,,,,,,,,,,,,,,,,,,,,85891,2022-11-11_15h01.07.648,vts_reward_expectancy_bt_OFFLINE,2022.2.4,60.74368475417396,
0,0,0,1,0,0,1,0,star,hexagon,1,0,1,0,0,7,7,11,,,,,,,,,,,,540.37885606708,540.37885606708,540.37885606708,540.37885606708,540.37885606708,540.37885606708,540.37885606708,540.37885606708,540.37885606708,540.37885606708,a,1.8475180969107896,10,416,1,542.2473512189463,,543.7490695919842,,,,,,,,,,,,,,,,,,,,,85891,2022-11-11_15h01.07.648,vts_reward_expectancy_bt_OFFLINE,2022.2.4,60.74368475417396,
0,0,1,0,0,1,0,0,hexagon,circle,1,0,1,0,0,8,8,7,,,,,,,,,,,,544.2494294580538,544.2494294580538,544.2494294580538,544.2494294580538,544.2494294580538,544.2494294580538,544.2494294580538,544.2494294580538,544.2494294580538,544.2494294580538,l,0.8580835838802159,1,417,1,545.1338319601491,,546.6355805180501,,,,,,,,,,,,,,,,,,,,,85891,2022-11-11_15h01.07.648,vts_reward_expectancy_bt_OFFLINE,2022.2.4,60.74368475417396,
0,1,0,0,0,0,0,1,circle,star,1,0,1,0,0,9,9,5,,,,,,,,,,,,547.136099522002,547.136099522002,547.136099522002,547.136099522002,547.136099522002,547.136099522002,547.136099522002,547.136099522002,547.136099522002,547.136099522002,a,0.7167868388351053,10,427,1,547.8701707629953,549.371847829083,549.371847829083,,,,,,,,,,,,,,,,,,,,,85891,2022-11-11_15h01.07.648,vts_reward_expectancy_bt_OFFLINE,2022.2.4,60.74368475417396,
0,1,0,0,1,0,0,0,circle,triangle,1,0,1,0,0,10,10,3,,,,,,,,,,,,549.8722498291172,549.8722498291172,549.8722498291172,549.8722498291172,549.8722498291172,549.8722498291172,549.8722498291172,549.8722498291172,549.8722498291172,549.8722498291172,a,0.624289657920599,10,437,1,550.5230513990391,,552.0247278020252,,,,,,,,,,,,,,,,,,,,,85891,2022-11-11_15h01.07.648,vts_reward_expectancy_bt_OFFLINE,2022.2.4,60.74368475417396,
1,0,0,0,0,0,0,1,triangle,star,1,0,1,0,0,11,11,2,,,,,,,,,,,,552.5251938579604,552.5251938579604,552.5251938579604,552.5251938579604,552.5251938579604,552.5251938579604,552.5251938579604,552.5251938579604,552.5251938579604,552.5251938579604,a,0.444519248791039,10,447,1,552.992402855074,,554.4940394849982,,,,,,,,,,,,,,,,,,,,,85891,2022-11-11_15h01.07.648,vts_reward_expectancy_bt_OFFLINE,2022.2.4,60.74368475417396,
1,0,0,0,0,0,0,1,triangle,star,1,0,1,0,1,0,12,2,,,,,,,,,,,,554.9948282870464,554.9948282870464,554.9948282870464,554.9948282870464,554.9948282870464,554.9948282870464,554.9948282870464,554.9948282870464,554.9948282870464,554.9948282870464,a,0.6991911148652434,10,457,1,555.7122480431572,,557.2137612090446,,,,,,,,,,,,,,,,,,,,,85891,2022-11-11_15h01.07.648,vts_reward_expectancy_bt_OFFLINE,2022.2.4,60.74368475417396,
0,0,1,0,0,1,0,0,hexagon,circle,1,0,1,0,1,1,13,7,,,,,,,,,,,,557.7144526590127,557.7144526590127,557.7144526590127,557.7144526590127,557.7144526590127,557.7144526590127,557.7144526590127,557.7144526590127,557.7144526590127,557.7144526590127,a,0.6680143598932773,10,467,1,558.4152393341064,,559.9168014079332,,,,,,,,,,,,,,,,,,,,,85891,2022-11-11_15h01.07.648,vts_reward_expectancy_bt_OFFLINE,2022.2.4,60.74368475417396,
0,1,0,0,0,0,0,1,circle,star,1,0,1,0,1,2,14,5,,,,,,,,,,,,560.4174811390694,560.4174811390694,560.4174811390694,560.4174811390694,560.4174811390694,560.4174811390694,560.4174811390694,560.4174811390694,560.4174811390694,560.4174811390694,a,0.3609527868684381,10,477,1,560.8010787379462,,562.3027198889758,,,,,,,,,,,,,,,,,,,,,85891,2022-11-11_15h01.07.648,vts_reward_expectancy_bt_OFFLINE,2022.2.4,60.74368475417396,
0,0,1,0,0,0,0,1,hexagon,star,1,0,1,0,1,3,15,8,,,,,,,,,,,,562.8034725720063,562.8034725720063,562.8034725720063,562.8034725720063,562.8034725720063,562.8034725720063,562.8034725720063,562.8034725720063,562.8034725720063,562.8034725720063,a,0.3035660858731717,1,478,1,563.1370957170147,,564.6387041590642,,,,,,,,,,,,,,,,,,,,,85891,2022-11-11_15h01.07.648,vts_reward_expectancy_bt_OFFLINE,2022.2.4,60.74368475417396,
0,0,0,1,0,0,1,0,star,hexagon,1,0,1,0,1,4,16,11,,,,,,,,,,,,565.1391788329929,565.1391788329929,565.1391788329929,565.1391788329929,565.1391788329929,565.1391788329929,565.1391788329929,565.1391788329929,565.1391788329929,565.1391788329929,a,1.06220270995982,1,479,1,566.2238702869508,,567.7254733070731,,,,,,,,,,,,,,,,,,,,,85891,2022-11-11_15h01.07.648,vts_reward_expectancy_bt_OFFLINE,2022.2.4,60.74368475417396,
0,1,0,0,1,0,0,0,circle,triangle,1,0,1,0,1,5,17,3,,,,,,,,,,,,568.225821997039,568.225821997039,568.225821997039,568.225821997039,568.225821997039,568.225821997039,568.225821997039,568.225821997039,568.225821997039,568.225821997039,a,1.0689864477608353,10,489,1,569.3271872629412,,570.8289915791247,,,,,,,,,,,,,,,,,,,,,85891,2022-11-11_15h01.07.648,vts_reward_expectancy_bt_OFFLINE,2022.2.4,60.74368475417396,
1,0,0,0,0,0,1,0,triangle,hexagon,1,0,1,0,1,6,18,1,,,,,,,,,,,,571.3296408669557,571.3296408669557,571.3296408669557,571.3296408669557,571.3296408669557,571.3296408669557,571.3296408669557,571.3296408669557,571.3296408669557,571.3296408669557,a,0.553086734842509,1,490,1,571.9134917040356,573.4149773479439,573.4149773479439,,,,,,,,,,,,,,,,,,,,,85891,2022-11-11_15h01.07.648,vts_reward_expectancy_bt_OFFLINE,2022.2.4,60.74368475417396,
1,0,0,0,0,1,0,0,triangle,circle,1,0,1,0,1,7,19,0,,,,,,,,,,,,573.9157374440692,573.9157374440692,573.9157374440692,573.9157374440692,573.9157374440692,573.9157374440692,573.9157374440692,573.9157374440692,573.9157374440692,573.9157374440692,l,1.2758356488775462,1,491,1,575.2169480540324,,576.7186423470266,,,,,,,,,,,,,,,,,,,,,85891,2022-11-11_15h01.07.648,vts_reward_expectancy_bt_OFFLINE,2022.2.4,60.74368475417396,
0,0,0,1,0,1,0,0,star ,circle,1,0,1,0,1,8,20,10,,,,,,,,,,,,577.2191083000507,577.2191083000507,577.2191083000507,577.2191083000507,577.2191083000507,577.2191083000507,577.2191083000507,577.2191083000507,577.2191083000507,577.2191083000507,l,0.7181422628927976,10,501,1,577.9701789619867,579.4718075490091,579.4718075490091,579.9725167041179,,,,,,,,,,,,,,,,,,,,85891,2022-11-11_15h01.07.648,vts_reward_expectancy_bt_OFFLINE,2022.2.4,60.74368475417396,
0,1,0,0,0,0,1,0,circle,hexagon,1,0,1,0,1,9,21,4,,,,,,,,,,,,579.9725167041179,579.9725167041179,579.9725167041179,579.9725167041179,579.9725167041179,579.9725167041179,579.9725167041179,579.9725167041179,579.9725167041179,579.9725167041179,a,0.6635846470016986,1,502,1,580.6562845190056,,582.1581681771204,,,,,,,,,,,,,,,,,,,,,85891,2022-11-11_15h01.07.648,vts_reward_expectancy_bt_OFFLINE,2022.2.4,60.74368475417396,
0,0,1,0,1,0,0,0,hexagon,triangle,1,0,1,0,1,10,22,6,,,,,,,,,,,,582.6587762800045,582.6587762800045,582.6587762800045,582.6587762800045,582.6587762800045,582.6587762800045,582.6587762800045,582.6587762800045,582.6587762800045,582.6587762800045,a,0.801724593853578,1,503,1,583.492837394122,584.9945466481149,584.9945466481149,585.4951855950058,,,,,,,,,,,,,,,,,,,,85891,2022-11-11_15h01.07.648,vts_reward_expectancy_bt_OFFLINE,2022.2.4,60.74368475417396,
0,0,0,1,1,0,0,0,star,triangle,1,0,1,0,1,11,23,9,,,,,,,,,,,,585.4951855950058,585.4951855950058,585.4951855950058,585.4951855950058,585.4951855950058,585.4951855950058,585.4951855950058,585.4951855950058,585.4951855950058,585.4951855950058,l,0.8012072569690645,10,513,1,586.3292944091372,,587.8309626190457,,,,,,,,,,,,,,,,,,,,,85891,2022-11-11_15h01.07.648,vts_reward_expectancy_bt_OFFLINE,2022.2.4,60.74368475417396,
0,1,0,0,0,0,1,0,circle,hexagon,1,0,1,0,2,0,24,4,,,,,,,,,,,,588.3148754539434,588.3148754539434,588.3148754539434,588.3148754539434,588.3148754539434,588.3148754539434,588.3148754539434,588.3148754539434,588.3148754539434,588.3148754539434,l,1.2326543158851564,10,523,1,589.566301187966,,591.0678566989955,,,,,,,,,,,,,,,,,,,,,85891,2022-11-11_15h01.07.648,vts_reward_expectancy_bt_OFFLINE,2022.2.4,60.74368475417396,
0,0,0,1,0,1,0,0,star ,circle,1,0,1,0,2,1,25,10,,,,,,,,,,,,591.5686262969393,591.5686262969393,591.5686262969393,591.5686262969393,591.5686262969393,591.5686262969393,591.5686262969393,591.5686262969393,591.5686262969393,591.5686262969393,l,1.094058692920953,1,524,1,592.6864126641303,,594.1881929270457,,,,,,,,,,,,,,,,,,,,,85891,2022-11-11_15h01.07.648,vts_reward_expectancy_bt_OFFLINE,2022.2.4,60.74368475417396,
0,0,0,1,0,0,1,0,star,hexagon,1,0,1,0,2,2,26,11,,,,,,,,,,,,594.688346787123,594.688346787123,594.688346787123,594.688346787123,594.688346787123,594.688346787123,594.688346787123,594.688346787123,594.688346787123,594.688346787123,a,1.114275136962533,1,525,1,595.8234213590622,,597.3246907489374,,,,,,,,,,,,,,,,,,,,,85891,2022-11-11_15h01.07.648,vts_reward_expectancy_bt_OFFLINE,2022.2.4,60.74368475417396,
1,0,0,0,0,1,0,0,triangle,circle,1,0,1,0,2,3,27,0,,,,,,,,,,,,597.8252199951094,597.8252199951094,597.8252199951094,597.8252199951094,597.8252199951094,597.8252199951094,597.8252199951094,597.8252199951094,597.8252199951094,597.8252199951094,l,1.2742416867986321,10,535,1,599.1266936780885,,600.6285625989549,,,,,,,,,,,,,,,,,,,,,85891,2022-11-11_15h01.07.648,vts_reward_expectancy_bt_OFFLINE,2022.2.4,60.74368475417396,
0,1,0,0,1,0,0,0,circle,triangle,1,0,1,0,2,4,28,3,,,,,,,,,,,,601.1288718790747,601.1288718790747,601.1288718790747,601.1288718790747,601.1288718790747,601.1288718790747,601.1288718790747,601.1288718790747,601.1288718790747,601.1288718790747,a,1.254816897911951,10,545,1,602.4137864790391,,603.915341258049,,,,,,,,,,,,,,,,,,,,,85891,2022-11-11_15h01.07.648,vts_reward_expectancy_bt_OFFLINE,2022.2.4,60.74368475417396,
0,0,1,0,0,1,0,0,hexagon,circle,1,0,1,0,2,5,29,7,,,,,,,,,,,,604.4158268489409,604.4158268489409,604.4158268489409,604.4158268489409,604.4158268489409,604.4158268489409,604.4158268489409,604.4158268489409,604.4158268489409,604.4158268489409,a,0.7813755269162357,1,546,1,605.2167728701606,,606.7185851531103,,,,,,,,,,,,,,,,,,,,,85891,2022-11-11_15h01.07.648,vts_reward_expectancy_bt_OFFLINE,2022.2.4,60.74368475417396,
0,0,1,0,1,0,0,0,hexagon,triangle,1,0,1,0,2,6,30,6,,,,,,,,,,,,607.2190614049323,607.2190614049323,607.2190614049323,607.2190614049323,607.2190614049323,607.2190614049323,607.2190614049323,607.2190614049323,607.2190614049323,607.2190614049323,a,0.7912760500330478,1,547,1,608.0366987879388,,609.5383517921437,,,,,,,,,,,,,,,,,,,,,85891,2022-11-11_15h01.07.648,vts_reward_expectancy_bt_OFFLINE,2022.2.4,60.74368475417396,
0,0,1,0,0,0,0,1,hexagon,star,1,0,1,0,2,7,31,8,,,,,,,,,,,,610.0387373650447,610.0387373650447,610.0387373650447,610.0387373650447,610.0387373650447,610.0387373650447,610.0387373650447,610.0387373650447,610.0387373650447,610.0387373650447,a,1.2213965740520507,1,548,1,611.2901268231217,,612.7916201839689,,,,,,,,,,,,,,,,,,,,,85891,2022-11-11_15h01.07.648,vts_reward_expectancy_bt_OFFLINE,2022.2.4,60.74368475417396,
1,0,0,0,0,0,0,1,triangle,star,1,0,1,0,2,8,32,2,,,,,,,,,,,,613.2921621401329,613.2921621401329,613.2921621401329,613.2921621401329,613.2921621401329,613.2921621401329,613.2921621401329,613.2921621401329,613.2921621401329,613.2921621401329,a,0.6129220607690513,10,558,1,613.9264508199412,,615.4280014371034,,,,,,,,,,,,,,,,,,,,,85891,2022-11-11_15h01.07.648,vts_reward_expectancy_bt_OFFLINE,2022.2.4,60.74368475417396,
0,0,0,1,1,0,0,0,star,triangle,1,0,1,0,2,9,33,9,,,,,,,,,,,,615.9290003830101,615.9290003830101,615.9290003830101,615.9290003830101,615.9290003830101,615.9290003830101,615.9290003830101,615.9290003830101,615.9290003830101,615.9290003830101,l,0.45126244286075234,10,568,1,616.4124294919893,,617.9140488500707,,,,,,,,,,,,,,,,,,,,,85891,2022-11-11_15h01.07.648,vts_reward_expectancy_bt_OFFLINE,2022.2.4,60.74368475417396,
0,1,0,0,0,0,0,1,circle,star,1,0,1,0,2,10,34,5,,,,,,,,,,,,618.4147938571405,618.4147938571405,618.4147938571405,618.4147938571405,618.4147938571405,618.4147938571405,618.4147938571405,618.4147938571405,618.4147938571405,618.4147938571405,a,0.4416229338385165,1,569,1,618.8817586691584,,620.3835421239492,,,,,,,,,,,,,,,,,,,,,85891,2022-11-11_15h01.07.648,vts_reward_expectancy_bt_OFFLINE,2022.2.4,60.74368475417396,
1,0,0,0,0,0,1,0,triangle,hexagon,1,0,1,0,2,11,35,1,,,,,,,,,,,,620.8843132441398,620.8843132441398,620.8843132441398,620.8843132441398,620.8843132441398,620.8843132441398,620.8843132441398,620.8843132441398,620.8843132441398,620.8843132441398,a,0.8746236739680171,10,579,1,621.7851893680636,,623.2866031730082,,,,,,,,,,,,,,,,,,,,,85891,2022-11-11_15h01.07.648,vts_reward_expectancy_bt_OFFLINE,2022.2.4,60.74368475417396,
0,0,1,0,0,1,0,0,hexagon,circle,1,0,1,0,3,0,36,7,,,,,,,,,,,,623.7872697690036,623.7872697690036,623.7872697690036,623.7872697690036,623.7872697690036,623.7872697690036,623.7872697690036,623.7872697690036,623.7872697690036,623.7872697690036,l,0.5820301398634911,1,580,1,624.3879720929544,,625.8896578929853,,,,,,,,,,,,,,,,,,,,,85891,2022-11-11_15h01.07.648,vts_reward_expectancy_bt_OFFLINE,2022.2.4,60.74368475417396,
0,0,0,1,0,1,0,0,star ,circle,1,0,1,0,3,1,37,10,,,,,,,,,,,,626.3900119131431,626.3900119131431,626.3900119131431,626.3900119131431,626.3900119131431,626.3900119131431,626.3900119131431,626.3900119131431,626.3900119131431,626.3900119131431,l,0.6013268819078803,1,581,1,627.0242362690624,628.5257135331631,628.5257135331631,629.0262925450224,,,,,,,,,,,,,,,,,,,,85891,2022-11-11_15h01.07.648,vts_reward_expectancy_bt_OFFLINE,2022.2.4,60.74368475417396,
0,1,0,0,0,0,0,1,circle,star,1,0,1,0,3,2,38,5,,,,,,,,,,,,629.0262925450224,629.0262925450224,629.0262925450224,629.0262925450224,629.0262925450224,629.0262925450224,629.0262925450224,629.0262925450224,629.0262925450224,629.0262925450224,a,1.0691585259046406,10,591,1,630.1277003090363,,631.629424219951,,,,,,,,,,,,,,,,,,,,,85891,2022-11-11_15h01.07.648,vts_reward_expectancy_bt_OFFLINE,2022.2.4,60.74368475417396,
1,0,0,0,0,1,0,0,triangle,circle,1,0,1,0,3,3,39,0,,,,,,,,,,,,632.1297554930206,632.1297554930206,632.1297554930206,632.1297554930206,632.1297554930206,632.1297554930206,632.1297554930206,632.1297554930206,632.1297554930206,632.1297554930206,l,1.2278935080394149,10,601,1,633.3812654321082,,634.8829152490944,,,,,,,,,,,,,,,,,,,,,85891,2022-11-11_15h01.07.648,vts_reward_expectancy_bt_OFFLINE,2022.2.4,60.74368475417396,
0,0,1,0,0,0,0,1,hexagon,star,1,0,1,0,3,4,40,8,,,,,,,,,,,,635.3834450379945,635.3834450379945,635.3834450379945,635.3834450379945,635.3834450379945,635.3834450379945,635.3834450379945,635.3834450379945,635.3834450379945,635.3834450379945,a,0.39279186888597906,1,602,1,635.800632989034,,637.3021690519527,,,,,,,,,,,,,,,,,,,,,85891,2022-11-11_15h01.07.648,vts_reward_expectancy_bt_OFFLINE,2022.2.4,60.74368475417396,
0,0,0,1,0,0,1,0,star,hexagon,1,0,1,0,3,5,41,11,,,,,,,,,,,,637.8027091280092,637.8027091280092,637.8027091280092,637.8027091280092,637.8027091280092,637.8027091280092,637.8027091280092,637.8027091280092,637.8027091280092,637.8027091280092,l,1.101902399910614,1,603,1,638.9374347350094,,640.4389900839888,,,,,,,,,,,,,,,,,,,,,85891,2022-11-11_15h01.07.648,vts_reward_expectancy_bt_OFFLINE,2022.2.4,60.74368475417396,
1,0,0,0,0,0,1,0,triangle,hexagon,1,0,1,0,3,6,42,1,,,,,,,,,,,,640.9396601479966,640.9396601479966,640.9396601479966,640.9396601479966,640.9396601479966,640.9396601479966,640.9396601479966,640.9396601479966,640.9396601479966,640.9396601479966,a,0.6994980708695948,1,604,1,641.6578225390986,643.1586453069467,643.1586453069467,,,,,,,,,,,,,,,,,,,,,85891,2022-11-11_15h01.07.648,vts_reward_expectancy_bt_OFFLINE,2022.2.4,60.74368475417396,
1,0,0,0,0,0,0,1,triangle,star,1,0,1,0,3,7,43,2,,,,,,,,,,,,643.6591527650598,643.6591527650598,643.6591527650598,643.6591527650598,643.6591527650598,643.6591527650598,643.6591527650598,643.6591527650598,643.6591527650598,643.6591527650598,a,1.9278521528467536,10,614,1,645.6112789949402,,647.1129582740832,,,,,,,,,,,,,,,,,,,,,85891,2022-11-11_15h01.07.648,vts_reward_expectancy_bt_OFFLINE,2022.2.4,60.74368475417396,
0,1,0,0,1,0,0,0,circle,triangle,1,0,1,0,3,8,44,3,,,,,,,,,,,,647.6135737530421,647.6135737530421,647.6135737530421,647.6135737530421,647.6135737530421,647.6135737530421,647.6135737530421,647.6135737530421,647.6135737530421,647.6135737530421,a,1.1119349878281355,10,624,1,648.7480164950248,,650.2498974429909,,,,,,,,,,,,,,,,,,,,,85891,2022-11-11_15h01.07.648,vts_reward_expectancy_bt_OFFLINE,2022.2.4,60.74368475417396,
0,0,1,0,1,0,0,0,hexagon,triangle,1,0,1,0,3,9,45,6,,,,,,,,,,,,650.7503443900496,650.7503443900496,650.7503443900496,650.7503443900496,650.7503443900496,650.7503443900496,650.7503443900496,650.7503443900496,650.7503443900496,650.7503443900496,a,1.0357434749603271,1,625,1,651.8180756501388,653.3199626740534,653.3199626740534,653.8204404590651,,,,,,,,,,,,,,,,,,,,85891,2022-11-11_15h01.07.648,vts_reward_expectancy_bt_OFFLINE,2022.2.4,60.74368475417396,
0,0,0,1,1,0,0,0,star,triangle,1,0,1,0,3,10,46,9,,,,,,,,,,,,653.8204404590651,653.8204404590651,653.8204404590651,653.8204404590651,653.8204404590651,653.8204404590651,653.8204404590651,653.8204404590651,653.8204404590651,653.8204404590651,a,1.567403009859845,1,626,1,655.4062222519424,656.9071614900604,656.9071614900604,,,,,,,,,,,,,,,,,,,,,85891,2022-11-11_15h01.07.648,vts_reward_expectancy_bt_OFFLINE,2022.2.4,60.74368475417396,
0,1,0,0,0,0,1,0,circle,hexagon,1,0,1,0,3,11,47,4,,,,,,,,,,,,657.4078090251423,657.4078090251423,657.4078090251423,657.4078090251423,657.4078090251423,657.4078090251423,657.4078090251423,657.4078090251423,657.4078090251423,657.4078090251423,a,1.7596181859262288,10,636,1,659.2099875130225,,660.7112929590512,,,,,,,,,,,,,,,,,,,,,85891,2022-11-11_15h01.07.648,vts_reward_expectancy_bt_OFFLINE,2022.2.4,60.74368475417396,
0,1,0,0,1,0,0,0,circle,triangle,2,0,2,0,0,0,0,3,,,,,,,,,,,,671.523429577006,671.523429577006,671.523429577006,671.523429577006,671.523429577006,671.523429577006,671.523429577006,671.523429577006,671.523429577006,671.523429577006,a,6.107366380048916,10,646,2,677.663551797159,,679.1650727279484,,,,,,,,,,,,,,,,,,,,,85891,2022-11-11_15h01.07.648,vts_reward_expectancy_bt_OFFLINE,2022.2.4,60.74368475417396,
0,0,0,1,1,0,0,0,star,triangle,2,0,2,0,0,1,1,9,,,,,,,,,,,,679.6656594481319,679.6656594481319,679.6656594481319,679.6656594481319,679.6656594481319,679.6656594481319,679.6656594481319,679.6656594481319,679.6656594481319,679.6656594481319,l,0.4737455639988184,10,656,2,680.1660379171371,,681.6678715529852,,,,,,,,,,,,,,,,,,,,,85891,2022-11-11_15h01.07.648,vts_reward_expectancy_bt_OFFLINE,2022.2.4,60.74368475417396,
0,0,1,0,0,1,0,0,hexagon,circle,2,0,2,0,0,2,2,7,,,,,,,,,,,,682.168382212054,682.168382212054,682.168382212054,682.168382212054,682.168382212054,682.168382212054,682.168382212054,682.168382212054,682.168382212054,682.168382212054,l,0.7032530978322029,10,666,2,682.9025626480579,684.4042283350136,684.4042283350136,,,,,,,,,,,,,,,,,,,,,85891,2022-11-11_15h01.07.648,vts_reward_expectancy_bt_OFFLINE,2022.2.4,60.74368475417396,
0,0,1,0,0,0,0,1,hexagon,star,2,0,2,0,0,3,3,8,,,,,,,,,,,,684.9047256149352,684.9047256149352,684.9047256149352,684.9047256149352,684.9047256149352,684.9047256149352,684.9047256149352,684.9047256149352,684.9047256149352,684.9047256149352,a,1.0520660148467869,10,676,2,685.9894230831414,,687.4908689369913,,,,,,,,,,,,,,,,,,,,,85891,2022-11-11_15h01.07.648,vts_reward_expectancy_bt_OFFLINE,2022.2.4,60.74368475417396,
1,0,0,0,0,0,0,1,triangle,star,2,0,2,0,0,4,4,2,,,,,,,,,,,,687.9914478270803,687.9914478270803,687.9914478270803,687.9914478270803,687.9914478270803,687.9914478270803,687.9914478270803,687.9914478270803,687.9914478270803,687.9914478270803,a,0.6856726238038391,10,686,2,688.7088021589443,,690.2107729800045,,,,,,,,,,,,,,,,,,,,,85891,2022-11-11_15h01.07.648,vts_reward_expectancy_bt_OFFLINE,2022.2.4,60.74368475417396,
0,0,0,1,0,0,1,0,star,hexagon,2,0,2,0,0,5,5,11,,,,,,,,,,,,690.7111634069588,690.7111634069588,690.7111634069588,690.7111634069588,690.7111634069588,690.7111634069588,690.7111634069588,690.7111634069588,690.7111634069588,690.7111634069588,l,0.634896008996293,1,687,2,691.3785059100483,,692.880078978138,,,,,,,,,,,,,,,,,,,,,85891,2022-11-11_15h01.07.648,vts_reward_expectancy_bt_OFFLINE,2022.2.4,60.74368475417396,
0,0,0,1,0,1,0,0,star ,circle,2,0,2,0,0,6,6,10,,,,,,,,,,,,693.3806481650099,693.3806481650099,693.3806481650099,693.3806481650099,693.3806481650099,693.3806481650099,693.3806481650099,693.3806481650099,693.3806481650099,693.3806481650099,l,0.47225151490420103,10,697,2,693.8979783931281,,695.3830122130457,,,,,,,,,,,,,,,,,,,,,85891,2022-11-11_15h01.07.648,vts_reward_expectancy_bt_OFFLINE,2022.2.4,60.74368475417396,
1,0,0,0,0,1,0,0,triangle,circle,2,0,2,0,0,7,7,0,,,,,,,,,,,,695.8833443950862,695.8833443950862,695.8833443950862,695.8833443950862,695.8833443950862,695.8833443950862,695.8833443950862,695.8833443950862,695.8833443950862,695.8833443950862,l,0.8953285519964993,10,707,2,696.8012825420592,,698.3029421980027,,,,,,,,,,,,,,,,,,,,,85891,2022-11-11_15h01.07.648,vts_reward_expectancy_bt_OFFLINE,2022.2.4,60.74368475417396,
0,1,0,0,0,0,1,0,circle,hexagon,2,0,2,0,0,8,8,4,,,,,,,,,,,,698.80355616007,698.80355616007,698.80355616007,698.80355616007,698.80355616007,698.80355616007,698.80355616007,698.80355616007,698.80355616007,698.80355616007,a,1.4855353529565036,10,717,2,700.321584027959,,701.8233729391359,,,,,,,,,,,,,,,,,,,,,85891,2022-11-11_15h01.07.648,vts_reward_expectancy_bt_OFFLINE,2022.2.4,60.74368475417396,
0,1,0,0,0,0,0,1,circle,star,2,0,2,0,0,9,9,5,,,,,,,,,,,,702.3240222069435,702.3240222069435,702.3240222069435,702.3240222069435,702.3240222069435,702.3240222069435,702.3240222069435,702.3240222069435,702.3240222069435,702.3240222069435,a,0.4847108058165759,10,727,2,702.8412512789946,,704.3428595040459,,,,,,,,,,,,,,,,,,,,,85891,2022-11-11_15h01.07.648,vts_reward_expectancy_bt_OFFLINE,2022.2.4,60.74368475417396,
0,0,1,0,1,0,0,0,hexagon,triangle,2,0,2,0,0,10,10,6,,,,,,,,,,,,704.8436410331633,704.8436410331633,704.8436410331633,704.8436410331633,704.8436410331633,704.8436410331633,704.8436410331633,704.8436410331633,704.8436410331633,704.8436410331633,l,1.0919409417547286,10,737,2,705.961267623119,,707.4631116720848,,,,,,,,,,,,,,,,,,,,,85891,2022-11-11_15h01.07.648,vts_reward_expectancy_bt_OFFLINE,2022.2.4,60.74368475417396,
1,0,0,0,0,0,1,0,triangle,hexagon,2,0,2,0,0,11,11,1,,,,,,,,,,,,707.9636034800205,707.9636034800205,707.9636034800205,707.9636034800205,707.9636034800205,707.9636034800205,707.9636034800205,707.9636034800205,707.9636034800205,707.9636034800205,a,0.9422954528126866,10,747,2,708.9324129871093,,710.432797587011,,,,,,,,,,,,,,,,,,,,,85891,2022-11-11_15h01.07.648,vts_reward_expectancy_bt_OFFLINE,2022.2.4,60.74368475417396,
0,1,0,0,1,0,0,0,circle,triangle,2,0,2,0,1,0,12,3,,,,,,,,,,,,710.9333770149387,710.9333770149387,710.9333770149387,710.9333770149387,710.9333770149387,710.9333770149387,710.9333770149387,710.9333770149387,710.9333770149387,710.9333770149387,l,0.3913099397905171,10,757,2,711.3505905640777,,712.8522760891356,,,,,,,,,,,,,,,,,,,,,85891,2022-11-11_15h01.07.648,vts_reward_expectancy_bt_OFFLINE,2022.2.4,60.74368475417396,
1,0,0,0,0,0,0,1,triangle,star,2,0,2,0,1,1,13,2,,,,,,,,,,,,713.3528015920892,713.3528015920892,713.3528015920892,713.3528015920892,713.3528015920892,713.3528015920892,713.3528015920892,713.3528015920892,713.3528015920892,713.3528015920892,a,0.6394032777752727,10,767,2,714.0201205019839,,715.5219308380038,,,,,,,,,,,,,,,,,,,,,85891,2022-11-11_15h01.07.648,vts_reward_expectancy_bt_OFFLINE,2022.2.4,60.74368475417396,
0,0,0,1,0,1,0,0,star ,circle,2,0,2,0,1,2,14,10,,,,,,,,,,,,716.0224753580987,716.0224753580987,716.0224753580987,716.0224753580987,716.0224753580987,716.0224753580987,716.0224753580987,716.0224753580987,716.0224753580987,716.0224753580987,l,0.5345891248434782,10,777,2,716.58962660213,,718.0912134831306,,,,,,,,,,,,,,,,,,,,,85891,2022-11-11_15h01.07.648,vts_reward_expectancy_bt_OFFLINE,2022.2.4,60.74368475417396,
0,0,1,0,0,0,0,1,hexagon,star,2,0,2,0,1,3,15,8,,,,,,,,,,,,718.5919921379536,718.5919921379536,718.5919921379536,718.5919921379536,718.5919921379536,718.5919921379536,718.5919921379536,718.5919921379536,718.5919921379536,718.5919921379536,a,1.6438664668239653,1,778,2,720.260216783965,,721.7618339350447,,,,,,,,,,,,,,,,,,,,,85891,2022-11-11_15h01.07.648,vts_reward_expectancy_bt_OFFLINE,2022.2.4,60.74368475417396,
1,0,0,0,0,1,0,0,triangle,circle,2,0,2,0,1,4,16,0,,,,,,,,,,,,722.2626774541568,722.2626774541568,722.2626774541568,722.2626774541568,722.2626774541568,722.2626774541568,722.2626774541568,722.2626774541568,722.2626774541568,722.2626774541568,a,1.574016174999997,10,788,2,723.8644352171104,,725.3659545250703,,,,,,,,,,,,,,,,,,,,,85891,2022-11-11_15h01.07.648,vts_reward_expectancy_bt_OFFLINE,2022.2.4,60.74368475417396,
0,0,0,1,1,0,0,0,star,triangle,2,0,2,0,1,5,17,9,,,,,,,,,,,,725.8663546021562,725.8663546021562,725.8663546021562,725.8663546021562,725.8663546021562,725.8663546021562,725.8663546021562,725.8663546021562,725.8663546021562,725.8663546021562,l,0.997012126725167,10,798,2,726.8842373730149,,728.3859164619353,,,,,,,,,,,,,,,,,,,,,85891,2022-11-11_15h01.07.648,vts_reward_expectancy_bt_OFFLINE,2022.2.4,60.74368475417396,
0,0,1,0,1,0,0,0,hexagon,triangle,2,0,2,0,1,6,18,6,,,,,,,,,,,,728.8864214001223,728.8864214001223,728.8864214001223,728.8864214001223,728.8864214001223,728.8864214001223,728.8864214001223,728.8864214001223,728.8864214001223,728.8864214001223,l,0.7895532017573714,10,808,2,729.704073210014,,731.2059328029864,,,,,,,,,,,,,,,,,,,,,85891,2022-11-11_15h01.07.648,vts_reward_expectancy_bt_OFFLINE,2022.2.4,60.74368475417396,
0,0,0,1,0,0,1,0,star,hexagon,2,0,2,0,1,7,19,11,,,,,,,,,,,,731.7063322139438,731.7063322139438,731.7063322139438,731.7063322139438,731.7063322139438,731.7063322139438,731.7063322139438,731.7063322139438,731.7063322139438,731.7063322139438,l,0.6123994358349591,1,809,2,732.3404601570219,,733.8420295200776,,,,,,,,,,,,,,,,,,,,,85891,2022-11-11_15h01.07.648,vts_reward_expectancy_bt_OFFLINE,2022.2.4,60.74368475417396,
0,0,1,0,0,1,0,0,hexagon,circle,2,0,2,0,1,8,20,7,,,,,,,,,,,,734.3428391769994,734.3428391769994,734.3428391769994,734.3428391769994,734.3428391769994,734.3428391769994,734.3428391769994,734.3428391769994,734.3428391769994,734.3428391769994,l,0.9919371218420565,1,810,2,735.3618731750175,,736.8619310529903,,,,,,,,,,,,,,,,,,,,,85891,2022-11-11_15h01.07.648,vts_reward_expectancy_bt_OFFLINE,2022.2.4,60.74368475417396,
0,1,0,0,0,0,0,1,circle,star,2,0,2,0,1,9,21,5,,,,,,,,,,,,737.3625610540621,737.3625610540621,737.3625610540621,737.3625610540621,737.3625610540621,737.3625610540621,737.3625610540621,737.3625610540621,737.3625610540621,737.3625610540621,a,0.6514135049656034,10,820,2,738.0468818820082,,739.548444458982,,,,,,,,,,,,,,,,,,,,,85891,2022-11-11_15h01.07.648,vts_reward_expectancy_bt_OFFLINE,2022.2.4,60.74368475417396,
1,0,0,0,0,0,1,0,triangle,hexagon,2,0,2,0,1,10,22,1,,,,,,,,,,,,740.0487644150853,740.0487644150853,740.0487644150853,740.0487644150853,740.0487644150853,740.0487644150853,740.0487644150853,740.0487644150853,740.0487644150853,740.0487644150853,a,0.9350832840427756,10,830,2,741.0164581690915,,742.5183480370324,,,,,,,,,,,,,,,,,,,,,85891,2022-11-11_15h01.07.648,vts_reward_expectancy_bt_OFFLINE,2022.2.4,60.74368475417396,
0,1,0,0,0,0,1,0,circle,hexagon,2,0,2,0,1,11,23,4,,,,,,,,,,,,743.0187806140166,743.0187806140166,743.0187806140166,743.0187806140166,743.0187806140166,743.0187806140166,743.0187806140166,743.0187806140166,743.0187806140166,743.0187806140166,l,1.3953658158425242,1,831,2,744.4369980990887,,745.9388067950495,,,,,,,,,,,,,,,,,,,,,85891,2022-11-11_15h01.07.648,vts_reward_expectancy_bt_OFFLINE,2022.2.4,60.74368475417396,
0,1,0,0,1,0,0,0,circle,triangle,2,0,2,0,2,0,24,3,,,,,,,,,,,,746.439203612972,746.439203612972,746.439203612972,746.439203612972,746.439203612972,746.439203612972,746.439203612972,746.439203612972,746.439203612972,746.439203612972,l,0.9685488669201732,10,841,2,747.4571730880998,,748.9586798851378,,,,,,,,,,,,,,,,,,,,,85891,2022-11-11_15h01.07.648,vts_reward_expectancy_bt_OFFLINE,2022.2.4,60.74368475417396,
1,0,0,0,0,0,0,1,triangle,star,2,0,2,0,2,1,25,2,,,,,,,,,,,,749.4593829840887,749.4593829840887,749.4593829840887,749.4593829840887,749.4593829840887,749.4593829840887,749.4593829840887,749.4593829840887,749.4593829840887,749.4593829840887,a,0.9281186100561172,10,851,2,750.4101954901125,,751.9119696679991,,,,,,,,,,,,,,,,,,,,,85891,2022-11-11_15h01.07.648,vts_reward_expectancy_bt_OFFLINE,2022.2.4,60.74368475417396,
0,0,1,0,0,0,0,1,hexagon,star,2,0,2,0,2,2,26,8,,,,,,,,,,,,752.4126494289376,752.4126494289376,752.4126494289376,752.4126494289376,752.4126494289376,752.4126494289376,752.4126494289376,752.4126494289376,752.4126494289376,752.4126494289376,l,0.7881436448078603,1,852,2,753.2467909180559,,754.7486660371069,,,,,,,,,,,,,,,,,,,,,85891,2022-11-11_15h01.07.648,vts_reward_expectancy_bt_OFFLINE,2022.2.4,60.74368475417396,
0,0,0,1,1,0,0,0,star,triangle,2,0,2,0,2,3,27,9,,,,,,,,,,,,755.2491614380851,755.2491614380851,755.2491614380851,755.2491614380851,755.2491614380851,755.2491614380851,755.2491614380851,755.2491614380851,755.2491614380851,755.2491614380851,l,0.5408008620142937,1,853,2,755.8178992201574,,757.317909988109,,,,,,,,,,,,,,,,,,,,,85891,2022-11-11_15h01.07.648,vts_reward_expectancy_bt_OFFLINE,2022.2.4,60.74368475417396,
0,0,1,0,0,1,0,0,hexagon,circle,2,0,2,0,2,4,28,7,,,,,,,,,,,,757.8185582030565,757.8185582030565,757.8185582030565,757.8185582030565,757.8185582030565,757.8185582030565,757.8185582030565,757.8185582030565,757.8185582030565,757.8185582030565,l,1.4802674839738756,10,863,2,759.3202604290564,,760.8216944769956,,,,,,,,,,,,,,,,,,,,,85891,2022-11-11_15h01.07.648,vts_reward_expectancy_bt_OFFLINE,2022.2.4,60.74368475417396,
0,0,0,1,0,1,0,0,star ,circle,2,0,2,0,2,5,29,10,,,,,,,,,,,,761.3223212820012,761.3223212820012,761.3223212820012,761.3223212820012,761.3223212820012,761.3223212820012,761.3223212820012,761.3223212820012,761.3223212820012,761.3223212820012,l,0.9585631398949772,10,873,2,762.3063721619546,,763.808360675117,,,,,,,,,,,,,,,,,,,,,85891,2022-11-11_15h01.07.648,vts_reward_expectancy_bt_OFFLINE,2022.2.4,60.74368475417396,
0,1,0,0,0,0,1,0,circle,hexagon,2,0,2,0,2,6,30,4,,,,,,,,,,,,764.3090642390307,764.3090642390307,764.3090642390307,764.3090642390307,764.3090642390307,764.3090642390307,764.3090642390307,764.3090642390307,764.3090642390307,764.3090642390307,a,0.5584822159726173,10,883,2,764.8927908630576,,766.3946585841477,,,,,,,,,,,,,,,,,,,,,85891,2022-11-11_15h01.07.648,vts_reward_expectancy_bt_OFFLINE,2022.2.4,60.74368475417396,
0,1,0,0,0,0,0,1,circle,star,2,0,2,0,2,7,31,5,,,,,,,,,,,,766.8950720990542,766.8950720990542,766.8950720990542,766.8950720990542,766.8950720990542,766.8950720990542,766.8950720990542,766.8950720990542,766.8950720990542,766.8950720990542,a,0.5935982838273048,10,893,2,767.5122659320477,,769.0140527579933,,,,,,,,,,,,,,,,,,,,,85891,2022-11-11_15h01.07.648,vts_reward_expectancy_bt_OFFLINE,2022.2.4,60.74368475417396,
1,0,0,0,0,1,0,0,triangle,circle,2,0,2,0,2,8,32,0,,,,,,,,,,,,769.5149008149747,769.5149008149747,769.5149008149747,769.5149008149747,769.5149008149747,769.5149008149747,769.5149008149747,769.5149008149747,769.5149008149747,769.5149008149747,a,1.2254330469295382,10,903,2,770.7662881191354,772.2676421499345,772.2676421499345,,,,,,,,,,,,,,,,,,,,,85891,2022-11-11_15h01.07.648,vts_reward_expectancy_bt_OFFLINE,2022.2.4,60.74368475417396,
0,0,1,0,1,0,0,0,hexagon,triangle,2,0,2,0,2,9,33,6,,,,,,,,,,,,772.7683405431453,772.7683405431453,772.7683405431453,772.7683405431453,772.7683405431453,772.7683405431453,772.7683405431453,772.7683405431453,772.7683405431453,772.7683405431453,l,1.0900561879388988,10,913,2,773.8860321450047,,775.3880626701284,,,,,,,,,,,,,,,,,,,,,85891,2022-11-11_15h01.07.648,vts_reward_expectancy_bt_OFFLINE,2022.2.4,60.74368475417396,
0,0,0,1,0,0,1,0,star,hexagon,2,0,2,0,2,10,34,11,,,,,,,,,,,,775.8882236790378,775.8882236790378,775.8882236790378,775.8882236790378,775.8882236790378,775.8882236790378,775.8882236790378,775.8882236790378,775.8882236790378,775.8882236790378,l,3.1444938769564033,1,914,2,779.0589272740763,,780.5602181139402,,,,,,,,,,,,,,,,,,,,,85891,2022-11-11_15h01.07.648,vts_reward_expectancy_bt_OFFLINE,2022.2.4,60.74368475417396,
1,0,0,0,0,0,1,0,triangle,hexagon,2,0,2,0,2,11,35,1,,,,,,,,,,,,781.060930327978,781.060930327978,781.060930327978,781.060930327978,781.060930327978,781.060930327978,781.060930327978,781.060930327978,781.060930327978,781.060930327978,a,0.6175080097746104,10,924,2,781.7284139499534,,783.2300342740491,,,,,,,,,,,,,,,,,,,,,85891,2022-11-11_15h01.07.648,vts_reward_expectancy_bt_OFFLINE,2022.2.4,60.74368475417396,
0,0,0,1,0,1,0,0,star ,circle,2,0,2,0,3,0,36,10,,,,,,,,,,,,783.7305458451156,783.7305458451156,783.7305458451156,783.7305458451156,783.7305458451156,783.7305458451156,783.7305458451156,783.7305458451156,783.7305458451156,783.7305458451156,a,0.9382708929479122,10,934,2,784.6981359489728,786.1996317340527,786.1996317340527,,,,,,,,,,,,,,,,,,,,,85891,2022-11-11_15h01.07.648,vts_reward_expectancy_bt_OFFLINE,2022.2.4,60.74368475417396,
0,0,1,0,0,1,0,0,hexagon,circle,2,0,2,0,3,1,37,7,,,,,,,,,,,,786.6998401079327,786.6998401079327,786.6998401079327,786.6998401079327,786.6998401079327,786.6998401079327,786.6998401079327,786.6998401079327,786.6998401079327,786.6998401079327,a,0.6247896198183298,1,935,2,787.3672834420577,,788.8527844920754,,,,,,,,,,,,,,,,,,,,,85891,2022-11-11_15h01.07.648,vts_reward_expectancy_bt_OFFLINE,2022.2.4,60.74368475417396,
0,0,0,1,0,0,1,0,star,hexagon,2,0,2,0,3,2,38,11,,,,,,,,,,,,789.3532270740252,789.3532270740252,789.3532270740252,789.3532270740252,789.3532270740252,789.3532270740252,789.3532270740252,789.3532270740252,789.3532270740252,789.3532270740252,a,0.6847590189427137,10,945,2,790.0875002969988,,791.5889864650089,,,,,,,,,,,,,,,,,,,,,85891,2022-11-11_15h01.07.648,vts_reward_expectancy_bt_OFFLINE,2022.2.4,60.74368475417396,
0,0,1,0,0,0,0,1,hexagon,star,2,0,2,0,3,3,39,8,,,,,,,,,,,,792.0896974271163,792.0896974271163,792.0896974271163,792.0896974271163,792.0896974271163,792.0896974271163,792.0896974271163,792.0896974271163,792.0896974271163,792.0896974271163,a,1.3440340850502253,1,946,2,793.4744752231054,,794.959611261962,,,,,,,,,,,,,,,,,,,,,85891,2022-11-11_15h01.07.648,vts_reward_expectancy_bt_OFFLINE,2022.2.4,60.74368475417396,
0,0,0,1,1,0,0,0,star,triangle,2,0,2,0,3,4,40,9,,,,,,,,,,,,795.4601365551353,795.4601365551353,795.4601365551353,795.4601365551353,795.4601365551353,795.4601365551353,795.4601365551353,795.4601365551353,795.4601365551353,795.4601365551353,l,0.6851862298790365,10,956,2,796.1942036149558,797.6960751640145,797.6960751640145,,,,,,,,,,,,,,,,,,,,,85891,2022-11-11_15h01.07.648,vts_reward_expectancy_bt_OFFLINE,2022.2.4,60.74368475417396,
1,0,0,0,0,0,0,1,triangle,star,2,0,2,0,3,5,41,2,,,,,,,,,,,,798.1962523150723,798.1962523150723,798.1962523150723,798.1962523150723,798.1962523150723,798.1962523150723,798.1962523150723,798.1962523150723,798.1962523150723,798.1962523150723,l,0.07469981489703059,1,957,2,798.296717182966,,799.7982275651302,,,,,,,,,,,,,,,,,,,,,85891,2022-11-11_15h01.07.648,vts_reward_expectancy_bt_OFFLINE,2022.2.4,60.74368475417396,
0,1,0,0,1,0,0,0,circle,triangle,2,0,2,0,3,6,42,3,,,,,,,,,,,,800.2986758050974,800.2986758050974,800.2986758050974,800.2986758050974,800.2986758050974,800.2986758050974,800.2986758050974,800.2986758050974,800.2986758050974,800.2986758050974,l,0.8757145397830755,1,958,2,801.1997945881449,,802.701392494142,,,,,,,,,,,,,,,,,,,,,85891,2022-11-11_15h01.07.648,vts_reward_expectancy_bt_OFFLINE,2022.2.4,60.74368475417396,
0,1,0,0,0,0,1,0,circle,hexagon,2,0,2,0,3,7,43,4,,,,,,,,,,,,803.201838237932,803.201838237932,803.201838237932,803.201838237932,803.201838237932,803.201838237932,803.201838237932,803.201838237932,803.201838237932,803.201838237932,a,1.1018100047949702,10,968,2,804.3364284019917,,805.8380932500586,,,,,,,,,,,,,,,,,,,,,85891,2022-11-11_15h01.07.648,vts_reward_expectancy_bt_OFFLINE,2022.2.4,60.74368475417396,
1,0,0,0,0,0,1,0,triangle,hexagon,2,0,2,0,3,8,44,1,,,,,,,,,,,,806.3386304820888,806.3386304820888,806.3386304820888,806.3386304820888,806.3386304820888,806.3386304820888,806.3386304820888,806.3386304820888,806.3386304820888,806.3386304820888,a,0.5285529680550098,10,978,2,806.889131629141,,808.3908141041175,,,,,,,,,,,,,,,,,,,,,85891,2022-11-11_15h01.07.648,vts_reward_expectancy_bt_OFFLINE,2022.2.4,60.74368475417396,
0,0,1,0,1,0,0,0,hexagon,triangle,2,0,2,0,3,9,45,6,,,,,,,,,,,,808.8916340239812,808.8916340239812,808.8916340239812,808.8916340239812,808.8916340239812,808.8916340239812,808.8916340239812,808.8916340239812,808.8916340239812,808.8916340239812,l,0.48445761180482805,10,988,2,809.4088562789839,,810.9105123130139,,,,,,,,,,,,,,,,,,,,,85891,2022-11-11_15h01.07.648,vts_reward_expectancy_bt_OFFLINE,2022.2.4,60.74368475417396,
1,0,0,0,0,1,0,0,triangle,circle,2,0,2,0,3,10,46,0,,,,,,,,,,,,811.4112247680314,811.4112247680314,811.4112247680314,811.4112247680314,811.4112247680314,811.4112247680314,811.4112247680314,811.4112247680314,811.4112247680314,811.4112247680314,a,0.4180754548870027,10,998,2,811.8614437230863,,813.3632396371104,,,,,,,,,,,,,,,,,,,,,85891,2022-11-11_15h01.07.648,vts_reward_expectancy_bt_OFFLINE,2022.2.4,60.74368475417396,
0,1,0,0,0,0,0,1,circle,star,2,0,2,0,3,11,47,5,,,,,,,,,,,,813.8637197441421,813.8637197441421,813.8637197441421,813.8637197441421,813.8637197441421,813.8637197441421,813.8637197441421,813.8637197441421,813.8637197441421,813.8637197441421,a,0.4514480878133327,1,999,2,814.3475479939952,,815.8491903049871,,,,,,,,,,,,,,,,,,,,,85891,2022-11-11_15h01.07.648,vts_reward_expectancy_bt_OFFLINE,2022.2.4,60.74368475417396,
,,,,,,,,,,,,,,,,,,0,0,0,0,0,0,0,0,,,,,,,,,,,,,,,,,,,,,853.2572099741083,,160,D,circle,0.0018941741436719894,848.5519284580369,850.0535594699904,850.0535594699904,850.0535594699904,0,0,d,1.681639829883352,0,851.7724276429508,,,,,,85891,2022-11-11_15h01.07.648,vts_reward_expectancy_bt_OFFLINE,2022.2.4,60.74368475417396,
,,,,,,,,,,,,,,,,,,0,0,0,0,1,0,1,0,,,,,,,,,,,,,,,,,,,,,860.2482938331086,860.7484506440815,181,S,hexagon,0.0011263061314821243,854.2416135079693,855.7433573079761,855.7433573079761,855.7433573079761,0,1,None,,0,858.7464865390211,858.7464865390211,858.7464865390211,858.7464865390211,858.7464865390211,860.2482938331086,85891,2022-11-11_15h01.07.648,vts_reward_expectancy_bt_OFFLINE,2022.2.4,60.74368475417396,
,,,,,,,,,,,,,,,,,,0,0,0,0,2,0,2,0,,,,,,,,,,,,,,,,,,,,,865.3703601281159,,174,F,triangle,0.008111281087622046,861.2488852890674,862.7509950289968,862.7509950289968,862.7509950289968,1,1,f,1.0916566068772227,0,863.8856105201412,,,,,,85891,2022-11-11_15h01.07.648,vts_reward_expectancy_bt_OFFLINE,2022.2.4,60.74368475417396,
,,,,,,,,,,,,,,,,,,0,0,0,0,3,0,3,0,,,,,,,,,,,,,,,,,,,,,870.1255773389712,,139,W,star,0.001360089983791113,866.3554111081176,867.856589152012,867.856589152012,867.856589152012,1,0,d,0.7437929038424045,0,868.6241116370074,,,,,,85891,2022-11-11_15h01.07.648,vts_reward_expectancy_bt_OFFLINE,2022.2.4,60.74368475417396,
,,,,,,,,,,,,,,,,,,0,0,0,0,4,0,4,0,,,,,,,,,,,,,,,,,,,,,874.9644964730833,,167,U,hexagon,0.0012612789869308472,871.1101208999753,872.6119101271033,872.6119101271033,872.6119101271033,1,0,f,0.8264068090356886,0,873.4626462899614,,,,,,85891,2022-11-11_15h01.07.648,vts_reward_expectancy_bt_OFFLINE,2022.2.4,60.74368475417396,
,,,,,,,,,,,,,,,,,,0,0,0,0,5,0,5,0,,,,,,,,,,,,,,,,,,,,,879.9530978300609,,146,H,star,0.0010165469720959663,875.948877785122,877.4503769050352,877.4503769050352,877.4503769050352,1,0,d,0.9714438777882606,0,878.4515153190587,,,,,,85891,2022-11-11_15h01.07.648,vts_reward_expectancy_bt_OFFLINE,2022.2.4,60.74368475417396,
,,,,,,,,,,,,,,,,,,0,0,0,0,6,0,6,0,,,,,,,,,,,,,,,,,,,,,884.5249122169334,,132,Y,circle,0.0014599610585719347,880.9376782390755,882.4393209440168,882.4393209440168,882.4393209440168,1,0,d,0.5511413859203458,0,883.0231257751584,,,,,,85891,2022-11-11_15h01.07.648,vts_reward_expectancy_bt_OFFLINE,2022.2.4,60.74368475417396,
,,,,,,,,,,,,,,,,,,0,0,0,0,7,0,7,0,,,,,,,,,,,,,,,,,,,,,889.3802303180564,,125,B,triangle,0.0014419839717447758,885.5101659500506,887.0109130649362,887.0109130649362,887.0109130649362,1,0,d,0.8405372030101717,0,887.8784784839954,,,,,,85891,2022-11-11_15h01.07.648,vts_reward_expectancy_bt_OFFLINE,2022.2.4,60.74368475417396,
,,,,,,,,,,,,,,,,,,0,0,0,0,8,0,8,0,,,,,,,,,,,,,,,,,,,,,894.0188607501332,,160,D,circle,0.001277129864320159,890.3646791391075,891.866389689967,891.866389689967,891.866389689967,1,0,f,0.6310260291211307,0,892.5168463969603,,,,,,85891,2022-11-11_15h01.07.648,vts_reward_expectancy_bt_OFFLINE,2022.2.4,60.74368475417396,
,,,,,,,,,,,,,,,,,,0,0,0,0,9,0,9,0,,,,,,,,,,,,,,,,,,,,,899.0243116091006,,181,S,star,0.0014545719604939222,895.0032475399785,896.5048437770456,896.5048437770456,896.5048437770456,1,0,f,0.9870801570359617,0,897.5226928989869,,,,,,85891,2022-11-11_15h01.07.648,vts_reward_expectancy_bt_OFFLINE,2022.2.4,60.74368475417396,
