LTriangleOpac,LCircleOpac,LHexagonOpac,LStarOpac,RTriangleOpac,RCircleOpac,RHexagonOpac,RStarOpac,LShape_ID,RShape_ID,training_blocks.thisRepN,training_blocks.thisTrialN,training_blocks.thisN,training_blocks.thisIndex,training.thisRepN,training.thisTrialN,training.thisN,training.thisIndex,task1_prac_redo.thisRepN,task1_prac_redo.thisTrialN,task1_prac_redo.thisN,task1_prac_redo.thisIndex,task1_prac_trials.thisRepN,task1_prac_trials.thisTrialN,task1_prac_trials.thisN,task1_prac_trials.thisIndex,task2_prac_redo.thisRepN,task2_prac_redo.thisTrialN,task2_prac_redo.thisN,task2_prac_redo.thisIndex,task2_praac_trials.thisRepN,task2_praac_trials.thisTrialN,task2_praac_trials.thisN,task2_praac_trials.thisIndex,key_resp.started,key_resp.keys,key_resp.rt,left_circle.started,right_circle.started,left_triangle.started,right_triangle.started,left_star.started,right_star.started,left_hexagon.started,right_hexagon.started,training_fix.started,training_resp.started,training_resp.keys,training_resp.rt,points_trial,points_cumul,trainBlock,training_feedback_txt.started,training_feedback_txt.stopped,fix.started,fix.stopped,curr_topStim,curr_bottStim,curr_shape,ISI.started,tgt_fix_prac1.started,top_target_prac1.started,bott_target_prac1.started,target_resp_prac1.started,acc,E1,target_resp_prac1.keys,target_resp_prac1.rt,pracBlock,prac_fback_text.started,prac_fback_text.stopped,tgt_fix_prac2.started,top_target_prac2.started,bott_target_prac2.started,target_resp_prac2.started,target_resp_prac2.keys,target_resp_prac2.rt,top_target_prac2.stopped,bott_target_prac2.stopped,target_resp_prac2.stopped,participant,date,expName,psychopyVersion,frameRate,
,,,,,,,,,,,,,,,,,,,,,,,,,,,,,,,,,,228.83610825799406,space,21.483341020997614,,,,,,,,,,,,,,,,,,,,,,,,,,,,,,,,,,,,,,,,,,,,90376,2022-11-11_14h54.10.806,vts_reward_expectancy_bt_OFFLINE,2022.2.4,59.923432812272395,
1,0,0,0,0,1,0,0,triangle,circle,0,0,0,0,0,0,0,0,,,,,,,,,,,,,,,,,,,,275.16957771684974,275.16957771684974,275.16957771684974,275.16957771684974,275.16957771684974,275.16957771684974,275.16957771684974,275.16957771684974,275.16957771684974,275.16957771684974,a,1.9944072260987014,10,10,0,277.1969023589045,278.69662565900944,278.69662565900944,279.1968168099411,,,,,,,,,,,,,,,,,,,,,,,,,90376,2022-11-11_14h54.10.806,vts_reward_expectancy_bt_OFFLINE,2022.2.4,59.923432812272395,
0,1,0,0,1,0,0,0,circle,triangle,0,0,0,0,0,1,1,3,,,,,,,,,,,,,,,,,,,,279.1968168099411,279.1968168099411,279.1968168099411,279.1968168099411,279.1968168099411,279.1968168099411,279.1968168099411,279.1968168099411,279.1968168099411,279.1968168099411,l,1.262898860964924,1,11,0,280.48371537588537,281.98292303900234,281.98292303900234,282.4832905458752,,,,,,,,,,,,,,,,,,,,,,,,,90376,2022-11-11_14h54.10.806,vts_reward_expectancy_bt_OFFLINE,2022.2.4,59.923432812272395,
0,0,0,1,0,1,0,0,star ,circle,0,0,0,0,0,2,2,10,,,,,,,,,,,,,,,,,,,,282.4832905458752,282.4832905458752,282.4832905458752,282.4832905458752,282.4832905458752,282.4832905458752,282.4832905458752,282.4832905458752,282.4832905458752,282.4832905458752,a,2.140226670075208,1,12,0,284.6506704748608,,286.1530635829549,,,,,,,,,,,,,,,,,,,,,,,,,,90376,2022-11-11_14h54.10.806,vts_reward_expectancy_bt_OFFLINE,2022.2.4,59.923432812272395,
1,0,0,0,0,0,0,1,triangle,star,0,0,0,0,0,3,3,2,,,,,,,,,,,,,,,,,,,,286.65326133882627,286.65326133882627,286.65326133882627,286.65326133882627,286.65326133882627,286.65326133882627,286.65326133882627,286.65326133882627,286.65326133882627,286.65326133882627,a,0.7257076299283653,10,22,0,287.40432166983373,288.9042141728569,288.9042141728569,289.40405133483,,,,,,,,,,,,,,,,,,,,,,,,,90376,2022-11-11_14h54.10.806,vts_reward_expectancy_bt_OFFLINE,2022.2.4,59.923432812272395,
0,0,1,0,1,0,0,0,hexagon,triangle,0,0,0,0,0,4,4,6,,,,,,,,,,,,,,,,,,,,289.40405133483,289.40405133483,289.40405133483,289.40405133483,289.40405133483,289.40405133483,289.40405133483,289.40405133483,289.40405133483,289.40405133483,a,1.4968337540049106,10,32,0,290.92345927702263,292.4239912349731,292.4239912349731,292.924001486972,,,,,,,,,,,,,,,,,,,,,,,,,90376,2022-11-11_14h54.10.806,vts_reward_expectancy_bt_OFFLINE,2022.2.4,59.923432812272395,
0,0,0,1,0,0,1,0,star,hexagon,0,0,0,0,0,5,5,11,,,,,,,,,,,,,,,,,,,,292.924001486972,292.924001486972,292.924001486972,292.924001486972,292.924001486972,292.924001486972,292.924001486972,292.924001486972,292.924001486972,292.924001486972,l,1.6889906539581716,1,33,0,294.64197257184424,,296.14378630695865,,,,,,,,,,,,,,,,,,,,,,,,,,90376,2022-11-11_14h54.10.806,vts_reward_expectancy_bt_OFFLINE,2022.2.4,59.923432812272395,
0,0,1,0,0,0,0,1,hexagon,star,0,0,0,0,0,6,6,8,,,,,,,,,,,,,,,,,,,,296.64391679898836,296.64391679898836,296.64391679898836,296.64391679898836,296.64391679898836,296.64391679898836,296.64391679898836,296.64391679898836,296.64391679898836,296.64391679898836,l,1.7042241399176419,10,43,0,298.37824405683205,299.87839613482356,299.87839613482356,,,,,,,,,,,,,,,,,,,,,,,,,,90376,2022-11-11_14h54.10.806,vts_reward_expectancy_bt_OFFLINE,2022.2.4,59.923432812272395,
1,0,0,0,0,0,1,0,triangle,hexagon,0,0,0,0,0,7,7,1,,,,,,,,,,,,,,,,,,,,300.38040757202543,300.38040757202543,300.38040757202543,300.38040757202543,300.38040757202543,300.38040757202543,300.38040757202543,300.38040757202543,300.38040757202543,300.38040757202543,a,0.83741739182733,10,53,0,301.2472501108423,302.74779842281714,302.74779842281714,303.24811369995587,,,,,,,,,,,,,,,,,,,,,,,,,90376,2022-11-11_14h54.10.806,vts_reward_expectancy_bt_OFFLINE,2022.2.4,59.923432812272395,
0,0,1,0,0,1,0,0,hexagon,circle,0,0,0,0,0,8,8,7,,,,,,,,,,,,,,,,,,,,303.24811369995587,303.24811369995587,303.24811369995587,303.24811369995587,303.24811369995587,303.24811369995587,303.24811369995587,303.24811369995587,303.24811369995587,303.24811369995587,l,2.413220260059461,10,63,0,305.6842315469403,,307.18485981295817,307.6850140108727,,,,,,,,,,,,,,,,,,,,,,,,,90376,2022-11-11_14h54.10.806,vts_reward_expectancy_bt_OFFLINE,2022.2.4,59.923432812272395,
0,1,0,0,0,0,1,0,circle,hexagon,0,0,0,0,0,9,9,4,,,,,,,,,,,,,,,,,,,,307.6850140108727,307.6850140108727,307.6850140108727,307.6850140108727,307.6850140108727,307.6850140108727,307.6850140108727,307.6850140108727,307.6850140108727,307.6850140108727,l,1.4764771978370845,1,64,0,309.18631531181745,,310.6878153870348,,,,,,,,,,,,,,,,,,,,,,,,,,90376,2022-11-11_14h54.10.806,vts_reward_expectancy_bt_OFFLINE,2022.2.4,59.923432812272395,
0,1,0,0,0,0,0,1,circle,star,0,0,0,0,0,10,10,5,,,,,,,,,,,,,,,,,,,,311.187963002827,311.187963002827,311.187963002827,311.187963002827,311.187963002827,311.187963002827,311.187963002827,311.187963002827,311.187963002827,311.187963002827,a,1.7184380900580436,10,74,0,312.9384348518215,314.43920378084294,314.43920378084294,314.9392915358767,,,,,,,,,,,,,,,,,,,,,,,,,90376,2022-11-11_14h54.10.806,vts_reward_expectancy_bt_OFFLINE,2022.2.4,59.923432812272395,
0,0,0,1,1,0,0,0,star,triangle,0,0,0,0,0,11,11,9,,,,,,,,,,,,,,,,,,,,314.9392915358767,314.9392915358767,314.9392915358767,314.9392915358767,314.9392915358767,314.9392915358767,314.9392915358767,314.9392915358767,314.9392915358767,314.9392915358767,l,0.859066299861297,10,84,0,315.8248053358402,317.32537603680976,317.32537603680976,317.8255634899251,,,,,,,,,,,,,,,,,,,,,,,,,90376,2022-11-11_14h54.10.806,vts_reward_expectancy_bt_OFFLINE,2022.2.4,59.923432812272395,
1,0,0,0,0,0,0,1,triangle,star,0,0,0,0,1,0,12,2,,,,,,,,,,,,,,,,,,,,317.8255634899251,317.8255634899251,317.8255634899251,317.8255634899251,317.8255634899251,317.8255634899251,317.8255634899251,317.8255634899251,317.8255634899251,317.8255634899251,l,2.3387390098068863,10,94,0,320.1926682209596,,321.69560428801924,,,,,,,,,,,,,,,,,,,,,,,,,,90376,2022-11-11_14h54.10.806,vts_reward_expectancy_bt_OFFLINE,2022.2.4,59.923432812272395,
1,0,0,0,0,1,0,0,triangle,circle,0,0,0,0,1,1,13,0,,,,,,,,,,,,,,,,,,,,322.19556762091815,322.19556762091815,322.19556762091815,322.19556762091815,322.19556762091815,322.19556762091815,322.19556762091815,322.19556762091815,322.19556762091815,322.19556762091815,a,2.9291464060079306,1,95,0,325.14729984197766,,326.64894955581985,,,,,,,,,,,,,,,,,,,,,,,,,,90376,2022-11-11_14h54.10.806,vts_reward_expectancy_bt_OFFLINE,2022.2.4,59.923432812272395,
0,0,1,0,0,0,0,1,hexagon,star,0,0,0,0,1,2,14,8,,,,,,,,,,,,,,,,,,,,327.1491411149036,327.1491411149036,327.1491411149036,327.1491411149036,327.1491411149036,327.1491411149036,327.1491411149036,327.1491411149036,327.1491411149036,327.1491411149036,l,1.565344270085916,1,96,0,328.7331484318711,330.2314988519065,330.2314988519065,,,,,,,,,,,,,,,,,,,,,,,,,,90376,2022-11-11_14h54.10.806,vts_reward_expectancy_bt_OFFLINE,2022.2.4,59.923432812272395,
0,1,0,0,0,0,0,1,circle,star,0,0,0,0,1,3,15,5,,,,,,,,,,,,,,,,,,,,330.7358002769761,330.7358002769761,330.7358002769761,330.7358002769761,330.7358002769761,330.7358002769761,330.7358002769761,330.7358002769761,330.7358002769761,330.7358002769761,l,2.039208612870425,10,106,0,332.80431396793574,334.30361464596353,334.30361464596353,334.803661871003,,,,,,,,,,,,,,,,,,,,,,,,,90376,2022-11-11_14h54.10.806,vts_reward_expectancy_bt_OFFLINE,2022.2.4,59.923432812272395,
0,1,0,0,0,0,1,0,circle,hexagon,0,0,0,0,1,4,16,4,,,,,,,,,,,,,,,,,,,,334.803661871003,334.803661871003,334.803661871003,334.803661871003,334.803661871003,334.803661871003,334.803661871003,334.803661871003,334.803661871003,334.803661871003,l,1.2791715329512954,10,116,0,336.10616704891436,,337.6067567570135,,,,,,,,,,,,,,,,,,,,,,,,,,90376,2022-11-11_14h54.10.806,vts_reward_expectancy_bt_OFFLINE,2022.2.4,59.923432812272395,
0,0,0,1,0,1,0,0,star ,circle,0,0,0,0,1,5,17,10,,,,,,,,,,,,,,,,,,,,338.10699281282723,338.10699281282723,338.10699281282723,338.10699281282723,338.10699281282723,338.10699281282723,338.10699281282723,338.10699281282723,338.10699281282723,338.10699281282723,a,1.0693676979281008,10,126,0,339.2073163508903,,340.7094952929765,,,,,,,,,,,,,,,,,,,,,,,,,,90376,2022-11-11_14h54.10.806,vts_reward_expectancy_bt_OFFLINE,2022.2.4,59.923432812272395,
0,0,1,0,1,0,0,0,hexagon,triangle,0,0,0,0,1,6,18,6,,,,,,,,,,,,,,,,,,,,341.20992319099605,341.20992319099605,341.20992319099605,341.20992319099605,341.20992319099605,341.20992319099605,341.20992319099605,341.20992319099605,341.20992319099605,341.20992319099605,l,0.9819318030495197,10,136,0,342.2102889090311,343.7107816010248,343.7107816010248,,,,,,,,,,,,,,,,,,,,,,,,,,90376,2022-11-11_14h54.10.806,vts_reward_expectancy_bt_OFFLINE,2022.2.4,59.923432812272395,
0,0,0,1,1,0,0,0,star,triangle,0,0,0,0,1,7,19,9,,,,,,,,,,,,,,,,,,,,344.21115208487026,344.21115208487026,344.21115208487026,344.21115208487026,344.21115208487026,344.21115208487026,344.21115208487026,344.21115208487026,344.21115208487026,344.21115208487026,l,1.0181482818443328,10,146,0,345.25455069891177,,346.76341668795794,,,,,,,,,,,,,,,,,,,,,,,,,,90376,2022-11-11_14h54.10.806,vts_reward_expectancy_bt_OFFLINE,2022.2.4,59.923432812272395,
1,0,0,0,0,0,1,0,triangle,hexagon,0,0,0,0,1,8,20,1,,,,,,,,,,,,,,,,,,,,347.26390438200906,347.26390438200906,347.26390438200906,347.26390438200906,347.26390438200906,347.26390438200906,347.26390438200906,347.26390438200906,347.26390438200906,347.26390438200906,l,1.1385047051589936,1,147,0,348.4321728700306,349.93144397693686,349.93144397693686,,,,,,,,,,,,,,,,,,,,,,,,,,90376,2022-11-11_14h54.10.806,vts_reward_expectancy_bt_OFFLINE,2022.2.4,59.923432812272395,
0,1,0,0,1,0,0,0,circle,triangle,0,0,0,0,1,9,21,3,,,,,,,,,,,,,,,,,,,,350.43340178299695,350.43340178299695,350.43340178299695,350.43340178299695,350.43340178299695,350.43340178299695,350.43340178299695,350.43340178299695,350.43340178299695,350.43340178299695,l,0.7589951399713755,1,148,0,351.2171063348651,,352.71771664498374,,,,,,,,,,,,,,,,,,,,,,,,,,90376,2022-11-11_14h54.10.806,vts_reward_expectancy_bt_OFFLINE,2022.2.4,59.923432812272395,
0,0,0,1,0,0,1,0,star,hexagon,0,0,0,0,1,10,22,11,,,,,,,,,,,,,,,,,,,,353.2179291129578,353.2179291129578,353.2179291129578,353.2179291129578,353.2179291129578,353.2179291129578,353.2179291129578,353.2179291129578,353.2179291129578,353.2179291129578,a,1.1243476138915867,10,158,0,354.3692168018315,,355.8703746679239,,,,,,,,,,,,,,,,,,,,,,,,,,90376,2022-11-11_14h54.10.806,vts_reward_expectancy_bt_OFFLINE,2022.2.4,59.923432812272395,
0,0,1,0,0,1,0,0,hexagon,circle,0,0,0,0,1,11,23,7,,,,,,,,,,,,,,,,,,,,356.3709354798775,356.3709354798775,356.3709354798775,356.3709354798775,356.3709354798775,356.3709354798775,356.3709354798775,356.3709354798775,356.3709354798775,356.3709354798775,a,1.1103761999402195,10,168,0,357.5046827078331,359.0049655488692,359.0049655488692,359.5054691808764,,,,,,,,,,,,,,,,,,,,,,,,,90376,2022-11-11_14h54.10.806,vts_reward_expectancy_bt_OFFLINE,2022.2.4,59.923432812272395,
0,1,0,0,1,0,0,0,circle,triangle,0,0,0,0,2,0,24,3,,,,,,,,,,,,,,,,,,,,359.5054691808764,359.5054691808764,359.5054691808764,359.5054691808764,359.5054691808764,359.5054691808764,359.5054691808764,359.5054691808764,359.5054691808764,359.5054691808764,l,0.8344158648978919,1,169,0,360.35870497790165,361.85814100387506,361.85814100387506,362.35827401583083,,,,,,,,,,,,,,,,,,,,,,,,,90376,2022-11-11_14h54.10.806,vts_reward_expectancy_bt_OFFLINE,2022.2.4,59.923432812272395,
0,0,1,0,1,0,0,0,hexagon,triangle,0,0,0,0,2,1,25,6,,,,,,,,,,,,,,,,,,,,362.35827401583083,362.35827401583083,362.35827401583083,362.35827401583083,362.35827401583083,362.35827401583083,362.35827401583083,362.35827401583083,362.35827401583083,362.35827401583083,l,1.5930984348524362,1,170,0,363.9752645320259,,365.47788688889705,,,,,,,,,,,,,,,,,,,,,,,,,,90376,2022-11-11_14h54.10.806,vts_reward_expectancy_bt_OFFLINE,2022.2.4,59.923432812272395,
1,0,0,0,0,0,0,1,triangle,star,0,0,0,0,2,2,26,2,,,,,,,,,,,,,,,,,,,,365.9778878299985,365.9778878299985,365.9778878299985,365.9778878299985,365.9778878299985,365.9778878299985,365.9778878299985,365.9778878299985,365.9778878299985,365.9778878299985,a,0.9546954799443483,10,180,0,366.96331157395616,,368.47902275202796,,,,,,,,,,,,,,,,,,,,,,,,,,90376,2022-11-11_14h54.10.806,vts_reward_expectancy_bt_OFFLINE,2022.2.4,59.923432812272395,
0,0,1,0,0,0,0,1,hexagon,star,0,0,0,0,2,3,27,8,,,,,,,,,,,,,,,,,,,,368.9787799709011,368.9787799709011,368.9787799709011,368.9787799709011,368.9787799709011,368.9787799709011,368.9787799709011,368.9787799709011,368.9787799709011,368.9787799709011,l,1.3966785150114447,1,181,0,370.39912332990207,371.89864278188907,371.89864278188907,372.3988891309127,,,,,,,,,,,,,,,,,,,,,,,,,90376,2022-11-11_14h54.10.806,vts_reward_expectancy_bt_OFFLINE,2022.2.4,59.923432812272395,
0,0,0,1,0,1,0,0,star ,circle,0,0,0,0,2,4,28,10,,,,,,,,,,,,,,,,,,,,372.3988891309127,372.3988891309127,372.3988891309127,372.3988891309127,372.3988891309127,372.3988891309127,372.3988891309127,372.3988891309127,372.3988891309127,372.3988891309127,l,1.4528503948822618,10,191,0,373.88269118289463,,375.38512808294035,,,,,,,,,,,,,,,,,,,,,,,,,,90376,2022-11-11_14h54.10.806,vts_reward_expectancy_bt_OFFLINE,2022.2.4,59.923432812272395,
0,0,0,1,0,0,1,0,star,hexagon,0,0,0,0,2,5,29,11,,,,,,,,,,,,,,,,,,,,375.88501955382526,375.88501955382526,375.88501955382526,375.88501955382526,375.88501955382526,375.88501955382526,375.88501955382526,375.88501955382526,375.88501955382526,375.88501955382526,a,1.4659975648391992,10,201,0,377.3691596239805,378.86952698091045,378.86952698091045,379.369588637026,,,,,,,,,,,,,,,,,,,,,,,,,90376,2022-11-11_14h54.10.806,vts_reward_expectancy_bt_OFFLINE,2022.2.4,59.923432812272395,
0,1,0,0,0,0,1,0,circle,hexagon,0,0,0,0,2,6,30,4,,,,,,,,,,,,,,,,,,,,379.369588637026,379.369588637026,379.369588637026,379.369588637026,379.369588637026,379.369588637026,379.369588637026,379.369588637026,379.369588637026,379.369588637026,a,1.6374013219028711,10,211,0,381.03870113403536,382.539502101019,382.539502101019,383.0395651180297,,,,,,,,,,,,,,,,,,,,,,,,,90376,2022-11-11_14h54.10.806,vts_reward_expectancy_bt_OFFLINE,2022.2.4,59.923432812272395,
1,0,0,0,0,1,0,0,triangle,circle,0,0,0,0,2,7,31,0,,,,,,,,,,,,,,,,,,,,383.0395651180297,383.0395651180297,383.0395651180297,383.0395651180297,383.0395651180297,383.0395651180297,383.0395651180297,383.0395651180297,383.0395651180297,383.0395651180297,l,1.949446639046073,10,221,0,385.0069928409066,,386.50925132399425,,,,,,,,,,,,,,,,,,,,,,,,,,90376,2022-11-11_14h54.10.806,vts_reward_expectancy_bt_OFFLINE,2022.2.4,59.923432812272395,
0,0,0,1,1,0,0,0,star,triangle,0,0,0,0,2,8,32,9,,,,,,,,,,,,,,,,,,,,387.00970792700537,387.00970792700537,387.00970792700537,387.00970792700537,387.00970792700537,387.00970792700537,387.00970792700537,387.00970792700537,387.00970792700537,387.00970792700537,a,1.5685074778739363,1,222,0,388.6101761418395,390.1107656690292,390.1107656690292,,,,,,,,,,,,,,,,,,,,,,,,,,90376,2022-11-11_14h54.10.806,vts_reward_expectancy_bt_OFFLINE,2022.2.4,59.923432812272395,
1,0,0,0,0,0,1,0,triangle,hexagon,0,0,0,0,2,9,33,1,,,,,,,,,,,,,,,,,,,,390.61259218491614,390.61259218491614,390.61259218491614,390.61259218491614,390.61259218491614,390.61259218491614,390.61259218491614,390.61259218491614,390.61259218491614,390.61259218491614,l,1.2956372348126024,10,232,0,391.931123039918,393.4302356049884,393.4302356049884,393.9304992388934,,,,,,,,,,,,,,,,,,,,,,,,,90376,2022-11-11_14h54.10.806,vts_reward_expectancy_bt_OFFLINE,2022.2.4,59.923432812272395,
0,1,0,0,0,0,0,1,circle,star,0,0,0,0,2,10,34,5,,,,,,,,,,,,,,,,,,,,393.9304992388934,393.9304992388934,393.9304992388934,393.9304992388934,393.9304992388934,393.9304992388934,393.9304992388934,393.9304992388934,393.9304992388934,393.9304992388934,a,1.949060201877728,1,233,0,395.9011731368955,397.40040484489873,397.40040484489873,397.9004953808617,,,,,,,,,,,,,,,,,,,,,,,,,90376,2022-11-11_14h54.10.806,vts_reward_expectancy_bt_OFFLINE,2022.2.4,59.923432812272395,
0,0,1,0,0,1,0,0,hexagon,circle,0,0,0,0,2,11,35,7,,,,,,,,,,,,,,,,,,,,397.9004953808617,397.9004953808617,397.9004953808617,397.9004953808617,397.9004953808617,397.9004953808617,397.9004953808617,397.9004953808617,397.9004953808617,397.9004953808617,a,1.2531341898720711,10,243,0,399.18421523389407,,400.6866736388765,,,,,,,,,,,,,,,,,,,,,,,,,,90376,2022-11-11_14h54.10.806,vts_reward_expectancy_bt_OFFLINE,2022.2.4,59.923432812272395,
1,0,0,0,0,1,0,0,triangle,circle,0,0,0,0,3,0,36,0,,,,,,,,,,,,,,,,,,,,401.18686380703,401.18686380703,401.18686380703,401.18686380703,401.18686380703,401.18686380703,401.18686380703,401.18686380703,401.18686380703,401.18686380703,a,1.31955756386742,1,244,0,402.5371662368998,404.0378834938165,404.0378834938165,404.5381436450407,,,,,,,,,,,,,,,,,,,,,,,,,90376,2022-11-11_14h54.10.806,vts_reward_expectancy_bt_OFFLINE,2022.2.4,59.923432812272395,
0,0,1,0,0,1,0,0,hexagon,circle,0,0,0,0,3,1,37,7,,,,,,,,,,,,,,,,,,,,404.5381436450407,404.5381436450407,404.5381436450407,404.5381436450407,404.5381436450407,404.5381436450407,404.5381436450407,404.5381436450407,404.5381436450407,404.5381436450407,l,5.292168006999418,10,254,0,409.8596889600158,,411.36101151490584,,,,,,,,,,,,,,,,,,,,,,,,,,90376,2022-11-11_14h54.10.806,vts_reward_expectancy_bt_OFFLINE,2022.2.4,59.923432812272395,
0,0,0,1,1,0,0,0,star,triangle,0,0,0,0,3,2,38,9,,,,,,,,,,,,,,,,,,,,411.8612082549371,411.8612082549371,411.8612082549371,411.8612082549371,411.8612082549371,411.8612082549371,411.8612082549371,411.8612082549371,411.8612082549371,411.8612082549371,l,2.0761363091878593,10,264,0,413.96176609699614,,415.4641986170318,,,,,,,,,,,,,,,,,,,,,,,,,,90376,2022-11-11_14h54.10.806,vts_reward_expectancy_bt_OFFLINE,2022.2.4,59.923432812272395,
0,1,0,0,0,0,0,1,circle,star,0,0,0,0,3,3,39,5,,,,,,,,,,,,,,,,,,,,415.9642688939348,415.9642688939348,415.9642688939348,415.9642688939348,415.9642688939348,415.9642688939348,415.9642688939348,415.9642688939348,415.9642688939348,415.9642688939348,a,0.9540903640445322,10,274,0,416.9481153958477,418.44867836497724,418.44867836497724,418.94873976381496,,,,,,,,,,,,,,,,,,,,,,,,,90376,2022-11-11_14h54.10.806,vts_reward_expectancy_bt_OFFLINE,2022.2.4,59.923432812272395,
1,0,0,0,0,0,1,0,triangle,hexagon,0,0,0,0,3,4,40,1,,,,,,,,,,,,,,,,,,,,418.94873976381496,418.94873976381496,418.94873976381496,418.94873976381496,418.94873976381496,418.94873976381496,418.94873976381496,418.94873976381496,418.94873976381496,418.94873976381496,l,1.6144277891144156,10,284,0,420.58453907701187,422.0851866309531,422.0851866309531,422.58520667790435,,,,,,,,,,,,,,,,,,,,,,,,,90376,2022-11-11_14h54.10.806,vts_reward_expectancy_bt_OFFLINE,2022.2.4,59.923432812272395,
0,1,0,0,0,0,1,0,circle,hexagon,0,0,0,0,3,5,41,4,,,,,,,,,,,,,,,,,,,,422.58520667790435,422.58520667790435,422.58520667790435,422.58520667790435,422.58520667790435,422.58520667790435,422.58520667790435,422.58520667790435,422.58520667790435,422.58520667790435,a,1.0504957339726388,1,285,0,423.65401449101046,,425.16950225504115,,,,,,,,,,,,,,,,,,,,,,,,,,90376,2022-11-11_14h54.10.806,vts_reward_expectancy_bt_OFFLINE,2022.2.4,59.923432812272395,
1,0,0,0,0,0,0,1,triangle,star,0,0,0,0,3,6,42,2,,,,,,,,,,,,,,,,,,,,425.65495138289407,425.65495138289407,425.65495138289407,425.65495138289407,425.65495138289407,425.65495138289407,425.65495138289407,425.65495138289407,425.65495138289407,425.65495138289407,l,1.3889583460986614,10,295,0,427.07327689183876,428.572572740959,428.572572740959,429.0726537548471,,,,,,,,,,,,,,,,,,,,,,,,,90376,2022-11-11_14h54.10.806,vts_reward_expectancy_bt_OFFLINE,2022.2.4,59.923432812272395,
0,0,1,0,0,0,0,1,hexagon,star,0,0,0,0,3,7,43,8,,,,,,,,,,,,,,,,,,,,429.0726537548471,429.0726537548471,429.0726537548471,429.0726537548471,429.0726537548471,429.0726537548471,429.0726537548471,429.0726537548471,429.0726537548471,429.0726537548471,a,1.7411572900600731,10,305,0,430.84175403392874,432.34273896482773,432.34273896482773,432.8426209760364,,,,,,,,,,,,,,,,,,,,,,,,,90376,2022-11-11_14h54.10.806,vts_reward_expectancy_bt_OFFLINE,2022.2.4,59.923432812272395,
0,0,0,1,0,0,1,0,star,hexagon,0,0,0,0,3,8,44,11,,,,,,,,,,,,,,,,,,,,432.8426209760364,432.8426209760364,432.8426209760364,432.8426209760364,432.8426209760364,432.8426209760364,432.8426209760364,432.8426209760364,432.8426209760364,432.8426209760364,l,1.5031386951450258,10,315,0,434.37635424081236,,435.8787961800117,,,,,,,,,,,,,,,,,,,,,,,,,,90376,2022-11-11_14h54.10.806,vts_reward_expectancy_bt_OFFLINE,2022.2.4,59.923432812272395,
0,1,0,0,1,0,0,0,circle,triangle,0,0,0,0,3,9,45,3,,,,,,,,,,,,,,,,,,,,436.37922661192715,436.37922661192715,436.37922661192715,436.37922661192715,436.37922661192715,436.37922661192715,436.37922661192715,436.37922661192715,436.37922661192715,436.37922661192715,l,1.352870682021603,10,325,0,437.7630701819435,439.26340860687196,439.26340860687196,439.7635478018783,,,,,,,,,,,,,,,,,,,,,,,,,90376,2022-11-11_14h54.10.806,vts_reward_expectancy_bt_OFFLINE,2022.2.4,59.923432812272395,
0,0,1,0,1,0,0,0,hexagon,triangle,0,0,0,0,3,10,46,6,,,,,,,,,,,,,,,,,,,,439.7635478018783,439.7635478018783,439.7635478018783,439.7635478018783,439.7635478018783,439.7635478018783,439.7635478018783,439.7635478018783,439.7635478018783,439.7635478018783,a,0.6796286040917039,1,326,0,440.4674308770336,,441.9828721929807,,,,,,,,,,,,,,,,,,,,,,,,,,90376,2022-11-11_14h54.10.806,vts_reward_expectancy_bt_OFFLINE,2022.2.4,59.923432812272395,
0,0,0,1,0,1,0,0,star ,circle,0,0,0,0,3,11,47,10,,,,,,,,,,,,,,,,,,,,442.4831330848392,442.4831330848392,442.4831330848392,442.4831330848392,442.4831330848392,442.4831330848392,442.4831330848392,442.4831330848392,442.4831330848392,442.4831330848392,l,1.3138028520625085,1,327,0,443.8168729939498,445.315180884907,445.315180884907,,,,,,,,,,,,,,,,,,,,,,,,,,90376,2022-11-11_14h54.10.806,vts_reward_expectancy_bt_OFFLINE,2022.2.4,59.923432812272395,
0,0,1,0,0,0,0,1,hexagon,star,1,0,1,0,0,0,0,8,,,,,,,,,,,,,,,,,,,,471.8656359198503,471.8656359198503,471.8656359198503,471.8656359198503,471.8656359198503,471.8656359198503,471.8656359198503,471.8656359198503,471.8656359198503,471.8656359198503,a,2.9374289319384843,10,337,1,474.8237310720142,,476.3249482908286,,,,,,,,,,,,,,,,,,,,,,,,,,90376,2022-11-11_14h54.10.806,vts_reward_expectancy_bt_OFFLINE,2022.2.4,59.923432812272395,
1,0,0,0,0,0,1,0,triangle,hexagon,1,0,1,0,0,1,1,1,,,,,,,,,,,,,,,,,,,,476.8252210880164,476.8252210880164,476.8252210880164,476.8252210880164,476.8252210880164,476.8252210880164,476.8252210880164,476.8252210880164,476.8252210880164,476.8252210880164,l,1.4761274030897766,1,338,1,478.3269205989782,479.8262530339416,479.8262530339416,480.32614254695363,,,,,,,,,,,,,,,,,,,,,,,,,90376,2022-11-11_14h54.10.806,vts_reward_expectancy_bt_OFFLINE,2022.2.4,59.923432812272395,
0,0,0,1,1,0,0,0,star,triangle,1,0,1,0,0,2,2,9,,,,,,,,,,,,,,,,,,,,480.32614254695363,480.32614254695363,480.32614254695363,480.32614254695363,480.32614254695363,480.32614254695363,480.32614254695363,480.32614254695363,480.32614254695363,480.32614254695363,l,0.6313251119572669,10,348,1,480.98013176303357,,482.49567657196894,,,,,,,,,,,,,,,,,,,,,,,,,,90376,2022-11-11_14h54.10.806,vts_reward_expectancy_bt_OFFLINE,2022.2.4,59.923432812272395,
0,1,0,0,0,0,0,1,circle,star,1,0,1,0,0,3,3,5,,,,,,,,,,,,,,,,,,,,482.99571139598265,482.99571139598265,482.99571139598265,482.99571139598265,482.99571139598265,482.99571139598265,482.99571139598265,482.99571139598265,482.99571139598265,482.99571139598265,a,1.8431600569747388,10,358,1,484.86291528493166,,486.3654665199574,,,,,,,,,,,,,,,,,,,,,,,,,,90376,2022-11-11_14h54.10.806,vts_reward_expectancy_bt_OFFLINE,2022.2.4,59.923432812272395,
0,0,1,0,0,1,0,0,hexagon,circle,1,0,1,0,0,4,4,7,,,,,,,,,,,,,,,,,,,,486.865468256874,486.865468256874,486.865468256874,486.865468256874,486.865468256874,486.865468256874,486.865468256874,486.865468256874,486.865468256874,486.865468256874,a,1.5168174870777875,1,359,1,488.40073896502145,489.8998350650072,489.8998350650072,,,,,,,,,,,,,,,,,,,,,,,,,,90376,2022-11-11_14h54.10.806,vts_reward_expectancy_bt_OFFLINE,2022.2.4,59.923432812272395,
0,0,0,1,0,1,0,0,star ,circle,1,0,1,0,0,5,5,10,,,,,,,,,,,,,,,,,,,,490.40211127884686,490.40211127884686,490.40211127884686,490.40211127884686,490.40211127884686,490.40211127884686,490.40211127884686,490.40211127884686,490.40211127884686,490.40211127884686,l,0.8149812759365886,1,360,1,491.2357234498486,492.73623124789447,492.73623124789447,,,,,,,,,,,,,,,,,,,,,,,,,,90376,2022-11-11_14h54.10.806,vts_reward_expectancy_bt_OFFLINE,2022.2.4,59.923432812272395,
1,0,0,0,0,0,0,1,triangle,star,1,0,1,0,0,6,6,2,,,,,,,,,,,,,,,,,,,,493.2364097489044,493.2364097489044,493.2364097489044,493.2364097489044,493.2364097489044,493.2364097489044,493.2364097489044,493.2364097489044,493.2364097489044,493.2364097489044,a,1.4120806611608714,1,361,1,494.67008489603177,,496.1726851989515,,,,,,,,,,,,,,,,,,,,,,,,,,90376,2022-11-11_14h54.10.806,vts_reward_expectancy_bt_OFFLINE,2022.2.4,59.923432812272395,
0,1,0,0,0,0,1,0,circle,hexagon,1,0,1,0,0,7,7,4,,,,,,,,,,,,,,,,,,,,496.67289014090784,496.67289014090784,496.67289014090784,496.67289014090784,496.67289014090784,496.67289014090784,496.67289014090784,496.67289014090784,496.67289014090784,496.67289014090784,l,0.7991786701604724,1,362,1,497.48993066092953,498.9903360370081,498.9903360370081,499.4906521369703,,,,,,,,,,,,,,,,,,,,,,,,,90376,2022-11-11_14h54.10.806,vts_reward_expectancy_bt_OFFLINE,2022.2.4,59.923432812272395,
0,1,0,0,1,0,0,0,circle,triangle,1,0,1,0,0,8,8,3,,,,,,,,,,,,,,,,,,,,499.4906521369703,499.4906521369703,499.4906521369703,499.4906521369703,499.4906521369703,499.4906521369703,499.4906521369703,499.4906521369703,499.4906521369703,499.4906521369703,l,0.7942157881334424,10,372,1,500.30893180985004,,501.809642883949,,,,,,,,,,,,,,,,,,,,,,,,,,90376,2022-11-11_14h54.10.806,vts_reward_expectancy_bt_OFFLINE,2022.2.4,59.923432812272395,
0,0,0,1,0,0,1,0,star,hexagon,1,0,1,0,0,9,9,11,,,,,,,,,,,,,,,,,,,,502.3101025170181,502.3101025170181,502.3101025170181,502.3101025170181,502.3101025170181,502.3101025170181,502.3101025170181,502.3101025170181,502.3101025170181,502.3101025170181,a,1.2601658841595054,1,373,1,503.5956454218831,,505.1110656908713,,,,,,,,,,,,,,,,,,,,,,,,,,90376,2022-11-11_14h54.10.806,vts_reward_expectancy_bt_OFFLINE,2022.2.4,59.923432812272395,
1,0,0,0,0,1,0,0,triangle,circle,1,0,1,0,0,10,10,0,,,,,,,,,,,,,,,,,,,,505.59648236981593,505.59648236981593,505.59648236981593,505.59648236981593,505.59648236981593,505.59648236981593,505.59648236981593,505.59648236981593,505.59648236981593,505.59648236981593,l,1.4727807270828635,1,374,1,507.0968355538789,508.59778836602345,508.59778836602345,,,,,,,,,,,,,,,,,,,,,,,,,,90376,2022-11-11_14h54.10.806,vts_reward_expectancy_bt_OFFLINE,2022.2.4,59.923432812272395,
0,0,1,0,1,0,0,0,hexagon,triangle,1,0,1,0,0,11,11,6,,,,,,,,,,,,,,,,,,,,509.09770536003634,509.09770536003634,509.09770536003634,509.09770536003634,509.09770536003634,509.09770536003634,509.09770536003634,509.09770536003634,509.09770536003634,509.09770536003634,a,0.8966992578934878,10,384,1,510.01625369582325,,511.51705369190313,,,,,,,,,,,,,,,,,,,,,,,,,,90376,2022-11-11_14h54.10.806,vts_reward_expectancy_bt_OFFLINE,2022.2.4,59.923432812272395,
0,1,0,0,0,0,0,1,circle,star,1,0,1,0,1,0,12,5,,,,,,,,,,,,,,,,,,,,512.0172892790288,512.0172892790288,512.0172892790288,512.0172892790288,512.0172892790288,512.0172892790288,512.0172892790288,512.0172892790288,512.0172892790288,512.0172892790288,a,0.7230306169949472,1,385,1,512.7692881969269,,514.2847495819442,,,,,,,,,,,,,,,,,,,,,,,,,,90376,2022-11-11_14h54.10.806,vts_reward_expectancy_bt_OFFLINE,2022.2.4,59.923432812272395,
0,1,0,0,1,0,0,0,circle,triangle,1,0,1,0,1,1,13,3,,,,,,,,,,,,,,,,,,,,514.7849435938988,514.7849435938988,514.7849435938988,514.7849435938988,514.7849435938988,514.7849435938988,514.7849435938988,514.7849435938988,514.7849435938988,514.7849435938988,l,0.9695225129835308,1,386,1,515.7871091319248,517.2874926140066,517.2874926140066,517.7879362348467,,,,,,,,,,,,,,,,,,,,,,,,,90376,2022-11-11_14h54.10.806,vts_reward_expectancy_bt_OFFLINE,2022.2.4,59.923432812272395,
0,0,0,1,1,0,0,0,star,triangle,1,0,1,0,1,2,14,9,,,,,,,,,,,,,,,,,,,,517.7879362348467,517.7879362348467,517.7879362348467,517.7879362348467,517.7879362348467,517.7879362348467,517.7879362348467,517.7879362348467,517.7879362348467,517.7879362348467,l,0.701424655970186,10,396,1,518.5213896250352,520.0220002678689,520.0220002678689,,,,,,,,,,,,,,,,,,,,,,,,,,90376,2022-11-11_14h54.10.806,vts_reward_expectancy_bt_OFFLINE,2022.2.4,59.923432812272395,
0,0,1,0,0,0,0,1,hexagon,star,1,0,1,0,1,3,15,8,,,,,,,,,,,,,,,,,,,,520.5239409049973,520.5239409049973,520.5239409049973,520.5239409049973,520.5239409049973,520.5239409049973,520.5239409049973,520.5239409049973,520.5239409049973,520.5239409049973,l,2.7245914130471647,1,397,1,523.2766417679377,,524.7922597108409,,,,,,,,,,,,,,,,,,,,,,,,,,90376,2022-11-11_14h54.10.806,vts_reward_expectancy_bt_OFFLINE,2022.2.4,59.923432812272395,
1,0,0,0,0,0,0,1,triangle,star,1,0,1,0,1,4,16,2,,,,,,,,,,,,,,,,,,,,525.2923163969535,525.2923163969535,525.2923163969535,525.2923163969535,525.2923163969535,525.2923163969535,525.2923163969535,525.2923163969535,525.2923163969535,525.2923163969535,a,0.7677405718713999,1,398,1,526.0779298869893,527.57858102303,527.57858102303,528.0785534000024,,,,,,,,,,,,,,,,,,,,,,,,,90376,2022-11-11_14h54.10.806,vts_reward_expectancy_bt_OFFLINE,2022.2.4,59.923432812272395,
0,0,0,1,0,1,0,0,star ,circle,1,0,1,0,1,5,17,10,,,,,,,,,,,,,,,,,,,,528.0785534000024,528.0785534000024,528.0785534000024,528.0785534000024,528.0785534000024,528.0785534000024,528.0785534000024,528.0785534000024,528.0785534000024,528.0785534000024,a,5.226971969008446,1,399,1,533.3322585360147,534.8327821309213,534.8327821309213,535.3329310950357,,,,,,,,,,,,,,,,,,,,,,,,,90376,2022-11-11_14h54.10.806,vts_reward_expectancy_bt_OFFLINE,2022.2.4,59.923432812272395,
0,1,0,0,0,0,1,0,circle,hexagon,1,0,1,0,1,6,18,4,,,,,,,,,,,,,,,,,,,,535.3329310950357,535.3329310950357,535.3329310950357,535.3329310950357,535.3329310950357,535.3329310950357,535.3329310950357,535.3329310950357,535.3329310950357,535.3329310950357,l,0.9994816021062434,10,409,1,536.3533837408759,537.8521984999534,537.8521984999534,538.3526021458674,,,,,,,,,,,,,,,,,,,,,,,,,90376,2022-11-11_14h54.10.806,vts_reward_expectancy_bt_OFFLINE,2022.2.4,59.923432812272395,
0,0,1,0,1,0,0,0,hexagon,triangle,1,0,1,0,1,7,19,6,,,,,,,,,,,,,,,,,,,,538.3526021458674,538.3526021458674,538.3526021458674,538.3526021458674,538.3526021458674,538.3526021458674,538.3526021458674,538.3526021458674,538.3526021458674,538.3526021458674,l,0.8376371250487864,10,419,1,539.2194745070301,,540.7219059399795,,,,,,,,,,,,,,,,,,,,,,,,,,90376,2022-11-11_14h54.10.806,vts_reward_expectancy_bt_OFFLINE,2022.2.4,59.923432812272395,
1,0,0,0,0,1,0,0,triangle,circle,1,0,1,0,1,8,20,0,,,,,,,,,,,,,,,,,,,,541.222174549941,541.222174549941,541.222174549941,541.222174549941,541.222174549941,541.222174549941,541.222174549941,541.222174549941,541.222174549941,541.222174549941,l,0.8589996981900185,1,420,1,542.107530919835,,543.6228155468125,,,,,,,,,,,,,,,,,,,,,,,,,,90376,2022-11-11_14h54.10.806,vts_reward_expectancy_bt_OFFLINE,2022.2.4,59.923432812272395,
0,0,0,1,0,0,1,0,star,hexagon,1,0,1,0,1,9,21,11,,,,,,,,,,,,,,,,,,,,544.1231310628355,544.1231310628355,544.1231310628355,544.1231310628355,544.1231310628355,544.1231310628355,544.1231310628355,544.1231310628355,544.1231310628355,544.1231310628355,a,1.0296474960632622,10,430,1,545.1755901610013,,546.6759119378403,,,,,,,,,,,,,,,,,,,,,,,,,,90376,2022-11-11_14h54.10.806,vts_reward_expectancy_bt_OFFLINE,2022.2.4,59.923432812272395,
0,0,1,0,0,1,0,0,hexagon,circle,1,0,1,0,1,10,22,7,,,,,,,,,,,,,,,,,,,,547.1759911119007,547.1759911119007,547.1759911119007,547.1759911119007,547.1759911119007,547.1759911119007,547.1759911119007,547.1759911119007,547.1759911119007,547.1759911119007,l,0.9927652969490737,10,440,1,548.1929582948796,549.693790165009,549.693790165009,550.1935946689919,,,,,,,,,,,,,,,,,,,,,,,,,90376,2022-11-11_14h54.10.806,vts_reward_expectancy_bt_OFFLINE,2022.2.4,59.923432812272395,
1,0,0,0,0,0,1,0,triangle,hexagon,1,0,1,0,1,11,23,1,,,,,,,,,,,,,,,,,,,,550.1935946689919,550.1935946689919,550.1935946689919,550.1935946689919,550.1935946689919,550.1935946689919,550.1935946689919,550.1935946689919,550.1935946689919,550.1935946689919,l,0.9777790419757366,1,441,1,551.1978560038842,,552.6963327939156,,,,,,,,,,,,,,,,,,,,,,,,,,90376,2022-11-11_14h54.10.806,vts_reward_expectancy_bt_OFFLINE,2022.2.4,59.923432812272395,
1,0,0,0,0,0,0,1,triangle,star,1,0,1,0,2,0,24,2,,,,,,,,,,,,,,,,,,,,553.1969139990397,553.1969139990397,553.1969139990397,553.1969139990397,553.1969139990397,553.1969139990397,553.1969139990397,553.1969139990397,553.1969139990397,553.1969139990397,l,0.7427983719389886,1,442,1,553.9638216618914,,555.4661315318663,,,,,,,,,,,,,,,,,,,,,,,,,,90376,2022-11-11_14h54.10.806,vts_reward_expectancy_bt_OFFLINE,2022.2.4,59.923432812272395,
0,0,0,1,1,0,0,0,star,triangle,1,0,1,0,2,1,25,9,,,,,,,,,,,,,,,,,,,,555.9661304219626,555.9661304219626,555.9661304219626,555.9661304219626,555.9661304219626,555.9661304219626,555.9661304219626,555.9661304219626,555.9661304219626,555.9661304219626,l,1.0442810989916325,10,452,1,557.0353387459181,,558.5502573528793,,,,,,,,,,,,,,,,,,,,,,,,,,90376,2022-11-11_14h54.10.806,vts_reward_expectancy_bt_OFFLINE,2022.2.4,59.923432812272395,
0,0,0,1,0,0,1,0,star,hexagon,1,0,1,0,2,2,26,11,,,,,,,,,,,,,,,,,,,,559.0506711120252,559.0506711120252,559.0506711120252,559.0506711120252,559.0506711120252,559.0506711120252,559.0506711120252,559.0506711120252,559.0506711120252,559.0506711120252,a,0.828723682789132,1,453,1,559.9031999309082,,561.4031267110258,,,,,,,,,,,,,,,,,,,,,,,,,,90376,2022-11-11_14h54.10.806,vts_reward_expectancy_bt_OFFLINE,2022.2.4,59.923432812272395,
0,0,1,0,0,1,0,0,hexagon,circle,1,0,1,0,2,3,27,7,,,,,,,,,,,,,,,,,,,,561.9036713289097,561.9036713289097,561.9036713289097,561.9036713289097,561.9036713289097,561.9036713289097,561.9036713289097,561.9036713289097,561.9036713289097,561.9036713289097,a,0.8447774818632752,10,463,1,562.7726128729992,,564.2877592409495,,,,,,,,,,,,,,,,,,,,,,,,,,90376,2022-11-11_14h54.10.806,vts_reward_expectancy_bt_OFFLINE,2022.2.4,59.923432812272395,
1,0,0,0,0,0,1,0,triangle,hexagon,1,0,1,0,2,4,28,1,,,,,,,,,,,,,,,,,,,,564.7880483188201,564.7880483188201,564.7880483188201,564.7880483188201,564.7880483188201,564.7880483188201,564.7880483188201,564.7880483188201,564.7880483188201,564.7880483188201,l,1.1115895891562104,10,473,1,565.9234422058798,567.4239046350121,567.4239046350121,,,,,,,,,,,,,,,,,,,,,,,,,,90376,2022-11-11_14h54.10.806,vts_reward_expectancy_bt_OFFLINE,2022.2.4,59.923432812272395,
0,1,0,0,0,0,1,0,circle,hexagon,1,0,1,0,2,5,29,4,,,,,,,,,,,,,,,,,,,,567.9241560809314,567.9241560809314,567.9241560809314,567.9241560809314,567.9241560809314,567.9241560809314,567.9241560809314,567.9241560809314,567.9241560809314,567.9241560809314,l,0.8093756129965186,1,474,1,568.7599338679574,,570.2751884369645,,,,,,,,,,,,,,,,,,,,,,,,,,90376,2022-11-11_14h54.10.806,vts_reward_expectancy_bt_OFFLINE,2022.2.4,59.923432812272395,
0,1,0,0,1,0,0,0,circle,triangle,1,0,1,0,2,6,30,3,,,,,,,,,,,,,,,,,,,,570.7601713649929,570.7601713649929,570.7601713649929,570.7601713649929,570.7601713649929,570.7601713649929,570.7601713649929,570.7601713649929,570.7601713649929,570.7601713649929,l,0.7299183749128133,1,475,1,571.5109874848276,573.0113169308752,573.0113169308752,573.5113592129201,,,,,,,,,,,,,,,,,,,,,,,,,90376,2022-11-11_14h54.10.806,vts_reward_expectancy_bt_OFFLINE,2022.2.4,59.923432812272395,
0,0,1,0,1,0,0,0,hexagon,triangle,1,0,1,0,2,7,31,6,,,,,,,,,,,,,,,,,,,,573.5113592129201,573.5113592129201,573.5113592129201,573.5113592129201,573.5113592129201,573.5113592129201,573.5113592129201,573.5113592129201,573.5113592129201,573.5113592129201,l,1.0502923899330199,10,485,1,574.5807298158761,,576.0806508508977,,,,,,,,,,,,,,,,,,,,,,,,,,90376,2022-11-11_14h54.10.806,vts_reward_expectancy_bt_OFFLINE,2022.2.4,59.923432812272395,
0,0,0,1,0,1,0,0,star ,circle,1,0,1,0,2,8,32,10,,,,,,,,,,,,,,,,,,,,576.5811019300018,576.5811019300018,576.5811019300018,576.5811019300018,576.5811019300018,576.5811019300018,576.5811019300018,576.5811019300018,576.5811019300018,576.5811019300018,a,0.9733668530825526,10,495,1,577.5815817909315,579.0818199589849,579.0818199589849,579.5818929090165,,,,,,,,,,,,,,,,,,,,,,,,,90376,2022-11-11_14h54.10.806,vts_reward_expectancy_bt_OFFLINE,2022.2.4,59.923432812272395,
1,0,0,0,0,1,0,0,triangle,circle,1,0,1,0,2,9,33,0,,,,,,,,,,,,,,,,,,,,579.5818929090165,579.5818929090165,579.5818929090165,579.5818929090165,579.5818929090165,579.5818929090165,579.5818929090165,579.5818929090165,579.5818929090165,579.5818929090165,a,0.6386172149796039,1,496,1,580.2511548439506,,581.7512960399035,,,,,,,,,,,,,,,,,,,,,,,,,,90376,2022-11-11_14h54.10.806,vts_reward_expectancy_bt_OFFLINE,2022.2.4,59.923432812272395,
0,1,0,0,0,0,0,1,circle,star,1,0,1,0,2,10,34,5,,,,,,,,,,,,,,,,,,,,582.2514621620066,582.2514621620066,582.2514621620066,582.2514621620066,582.2514621620066,582.2514621620066,582.2514621620066,582.2514621620066,582.2514621620066,582.2514621620066,a,0.6698017849121243,10,506,1,582.9540923698805,,584.469137230888,,,,,,,,,,,,,,,,,,,,,,,,,,90376,2022-11-11_14h54.10.806,vts_reward_expectancy_bt_OFFLINE,2022.2.4,59.923432812272395,
0,0,1,0,0,0,0,1,hexagon,star,1,0,1,0,2,11,35,8,,,,,,,,,,,,,,,,,,,,584.969197152881,584.969197152881,584.969197152881,584.969197152881,584.969197152881,584.969197152881,584.969197152881,584.969197152881,584.969197152881,584.969197152881,l,0.52785719698295,1,507,1,585.5232456680387,,587.0386112958658,,,,,,,,,,,,,,,,,,,,,,,,,,90376,2022-11-11_14h54.10.806,vts_reward_expectancy_bt_OFFLINE,2022.2.4,59.923432812272395,
0,1,0,0,1,0,0,0,circle,triangle,1,0,1,0,3,0,36,3,,,,,,,,,,,,,,,,,,,,587.5387438519392,587.5387438519392,587.5387438519392,587.5387438519392,587.5387438519392,587.5387438519392,587.5387438519392,587.5387438519392,587.5387438519392,587.5387438519392,l,0.4562604478560388,1,508,1,588.0222665688489,589.5228048639838,589.5228048639838,590.0228046579286,,,,,,,,,,,,,,,,,,,,,,,,,90376,2022-11-11_14h54.10.806,vts_reward_expectancy_bt_OFFLINE,2022.2.4,59.923432812272395,
0,0,1,0,0,1,0,0,hexagon,circle,1,0,1,0,3,1,37,7,,,,,,,,,,,,,,,,,,,,590.0228046579286,590.0228046579286,590.0228046579286,590.0228046579286,590.0228046579286,590.0228046579286,590.0228046579286,590.0228046579286,590.0228046579286,590.0228046579286,l,0.6498238048516214,10,518,1,590.6937558108475,,592.208798243897,,,,,,,,,,,,,,,,,,,,,,,,,,90376,2022-11-11_14h54.10.806,vts_reward_expectancy_bt_OFFLINE,2022.2.4,59.923432812272395,
0,0,1,0,1,0,0,0,hexagon,triangle,1,0,1,0,3,2,38,6,,,,,,,,,,,,,,,,,,,,592.7091668248177,592.7091668248177,592.7091668248177,592.7091668248177,592.7091668248177,592.7091668248177,592.7091668248177,592.7091668248177,592.7091668248177,592.7091668248177,l,1.0915484989527613,10,528,1,593.8260997179896,595.3266254758928,595.3266254758928,,,,,,,,,,,,,,,,,,,,,,,,,,90376,2022-11-11_14h54.10.806,vts_reward_expectancy_bt_OFFLINE,2022.2.4,59.923432812272395,
1,0,0,0,0,0,0,1,triangle,star,1,0,1,0,3,3,39,2,,,,,,,,,,,,,,,,,,,,595.8288121509831,595.8288121509831,595.8288121509831,595.8288121509831,595.8288121509831,595.8288121509831,595.8288121509831,595.8288121509831,595.8288121509831,595.8288121509831,a,0.6713859410956502,10,538,1,596.5291814228985,598.0294368900359,598.0294368900359,598.5294975070283,,,,,,,,,,,,,,,,,,,,,,,,,90376,2022-11-11_14h54.10.806,vts_reward_expectancy_bt_OFFLINE,2022.2.4,59.923432812272395,
0,0,0,1,1,0,0,0,star,triangle,1,0,1,0,3,4,40,9,,,,,,,,,,,,,,,,,,,,598.5294975070283,598.5294975070283,598.5294975070283,598.5294975070283,598.5294975070283,598.5294975070283,598.5294975070283,598.5294975070283,598.5294975070283,598.5294975070283,a,0.896722731878981,10,548,1,599.4469372369349,,600.9488997168373,,,,,,,,,,,,,,,,,,,,,,,,,,90376,2022-11-11_14h54.10.806,vts_reward_expectancy_bt_OFFLINE,2022.2.4,59.923432812272395,
1,0,0,0,0,0,1,0,triangle,hexagon,1,0,1,0,3,5,41,1,,,,,,,,,,,,,,,,,,,,601.4489948370028,601.4489948370028,601.4489948370028,601.4489948370028,601.4489948370028,601.4489948370028,601.4489948370028,601.4489948370028,601.4489948370028,601.4489948370028,l,0.8799348517786711,10,558,1,602.349738396937,603.8499116660096,603.8499116660096,604.3500986229628,,,,,,,,,,,,,,,,,,,,,,,,,90376,2022-11-11_14h54.10.806,vts_reward_expectancy_bt_OFFLINE,2022.2.4,59.923432812272395,
0,1,0,0,0,0,1,0,circle,hexagon,1,0,1,0,3,6,42,4,,,,,,,,,,,,,,,,,,,,604.3500986229628,604.3500986229628,604.3500986229628,604.3500986229628,604.3500986229628,604.3500986229628,604.3500986229628,604.3500986229628,604.3500986229628,604.3500986229628,a,1.2180409070570022,1,559,1,605.5877167340368,,607.1031013948377,,,,,,,,,,,,,,,,,,,,,,,,,,90376,2022-11-11_14h54.10.806,vts_reward_expectancy_bt_OFFLINE,2022.2.4,59.923432812272395,
0,0,0,1,0,0,1,0,star,hexagon,1,0,1,0,3,7,43,11,,,,,,,,,,,,,,,,,,,,607.6033022080082,607.6033022080082,607.6033022080082,607.6033022080082,607.6033022080082,607.6033022080082,607.6033022080082,607.6033022080082,607.6033022080082,607.6033022080082,l,0.8002044830936939,1,560,1,608.4206731698941,609.9206892549992,609.9206892549992,610.4207263928838,,,,,,,,,,,,,,,,,,,,,,,,,90376,2022-11-11_14h54.10.806,vts_reward_expectancy_bt_OFFLINE,2022.2.4,59.923432812272395,
0,0,0,1,0,1,0,0,star ,circle,1,0,1,0,3,8,44,10,,,,,,,,,,,,,,,,,,,,610.4207263928838,610.4207263928838,610.4207263928838,610.4207263928838,610.4207263928838,610.4207263928838,610.4207263928838,610.4207263928838,610.4207263928838,610.4207263928838,l,0.3901447339449078,1,561,1,610.8397717589978,612.339986607898,612.339986607898,612.8402046929114,,,,,,,,,,,,,,,,,,,,,,,,,90376,2022-11-11_14h54.10.806,vts_reward_expectancy_bt_OFFLINE,2022.2.4,59.923432812272395,
0,0,1,0,0,0,0,1,hexagon,star,1,0,1,0,3,9,45,8,,,,,,,,,,,,,,,,,,,,612.8402046929114,612.8402046929114,612.8402046929114,612.8402046929114,612.8402046929114,612.8402046929114,612.8402046929114,612.8402046929114,612.8402046929114,612.8402046929114,l,1.345820387126878,10,571,1,614.2099158649798,,615.7098048378248,,,,,,,,,,,,,,,,,,,,,,,,,,90376,2022-11-11_14h54.10.806,vts_reward_expectancy_bt_OFFLINE,2022.2.4,59.923432812272395,
0,1,0,0,0,0,0,1,circle,star,1,0,1,0,3,10,46,5,,,,,,,,,,,,,,,,,,,,616.2099802978337,616.2099802978337,616.2099802978337,616.2099802978337,616.2099802978337,616.2099802978337,616.2099802978337,616.2099802978337,616.2099802978337,616.2099802978337,a,1.46498977788724,10,581,1,617.694223243976,619.1943300280254,619.1943300280254,619.6945567778312,,,,,,,,,,,,,,,,,,,,,,,,,90376,2022-11-11_14h54.10.806,vts_reward_expectancy_bt_OFFLINE,2022.2.4,59.923432812272395,
1,0,0,0,0,1,0,0,triangle,circle,1,0,1,0,3,11,47,0,,,,,,,,,,,,,,,,,,,,619.6945567778312,619.6945567778312,619.6945567778312,619.6945567778312,619.6945567778312,619.6945567778312,619.6945567778312,619.6945567778312,619.6945567778312,619.6945567778312,l,0.8482036809436977,10,591,1,620.5637692438904,622.0638673210051,622.0638673210051,622.5706242579035,,,,,,,,,,,,,,,,,,,,,,,,,90376,2022-11-11_14h54.10.806,vts_reward_expectancy_bt_OFFLINE,2022.2.4,59.923432812272395,
0,0,0,1,1,0,0,0,star,triangle,2,0,2,0,0,0,0,9,,,,,,,,,,,,,,,,,,,,629.7138270889409,629.7138270889409,629.7138270889409,629.7138270889409,629.7138270889409,629.7138270889409,629.7138270889409,629.7138270889409,629.7138270889409,629.7138270889409,l,1.056253976887092,10,601,2,630.7876728419214,632.2880821248982,632.2880821248982,632.7881459929049,,,,,,,,,,,,,,,,,,,,,,,,,90376,2022-11-11_14h54.10.806,vts_reward_expectancy_bt_OFFLINE,2022.2.4,59.923432812272395,
0,0,0,1,0,0,1,0,star,hexagon,2,0,2,0,0,1,1,11,,,,,,,,,,,,,,,,,,,,632.7881459929049,632.7881459929049,632.7881459929049,632.7881459929049,632.7881459929049,632.7881459929049,632.7881459929049,632.7881459929049,632.7881459929049,632.7881459929049,a,0.6936214249581099,10,611,2,633.5054758980405,635.0055080328602,635.0055080328602,,,,,,,,,,,,,,,,,,,,,,,,,,90376,2022-11-11_14h54.10.806,vts_reward_expectancy_bt_OFFLINE,2022.2.4,59.923432812272395,
0,1,0,0,1,0,0,0,circle,triangle,2,0,2,0,0,2,2,3,,,,,,,,,,,,,,,,,,,,635.5076112910174,635.5076112910174,635.5076112910174,635.5076112910174,635.5076112910174,635.5076112910174,635.5076112910174,635.5076112910174,635.5076112910174,635.5076112910174,a,0.8984175159130245,10,621,2,636.4248172419611,637.9253144809045,637.9253144809045,638.4251345999073,,,,,,,,,,,,,,,,,,,,,,,,,90376,2022-11-11_14h54.10.806,vts_reward_expectancy_bt_OFFLINE,2022.2.4,59.923432812272395,
1,0,0,0,0,0,0,1,triangle,star,2,0,2,0,0,3,3,2,,,,,,,,,,,,,,,,,,,,638.4251345999073,638.4251345999073,638.4251345999073,638.4251345999073,638.4251345999073,638.4251345999073,638.4251345999073,638.4251345999073,638.4251345999073,638.4251345999073,l,1.164836745010689,10,631,2,639.6094890800305,,641.11135546281,,,,,,,,,,,,,,,,,,,,,,,,,,90376,2022-11-11_14h54.10.806,vts_reward_expectancy_bt_OFFLINE,2022.2.4,59.923432812272395,
0,0,1,0,1,0,0,0,hexagon,triangle,2,0,2,0,0,4,4,6,,,,,,,,,,,,,,,,,,,,641.611742455978,641.611742455978,641.611742455978,641.611742455978,641.611742455978,641.611742455978,641.611742455978,641.611742455978,641.611742455978,641.611742455978,l,3.4579310598783195,10,641,2,645.0968538080342,,646.598543359898,,,,,,,,,,,,,,,,,,,,,,,,,,90376,2022-11-11_14h54.10.806,vts_reward_expectancy_bt_OFFLINE,2022.2.4,59.923432812272395,
0,0,1,0,0,1,0,0,hexagon,circle,2,0,2,0,0,5,5,7,,,,,,,,,,,,,,,,,,,,647.0989214908332,647.0989214908332,647.0989214908332,647.0989214908332,647.0989214908332,647.0989214908332,647.0989214908332,647.0989214908332,647.0989214908332,647.0989214908332,a,0.6931750648654997,1,642,2,647.8178101680242,,649.3331645068247,,,,,,,,,,,,,,,,,,,,,,,,,,90376,2022-11-11_14h54.10.806,vts_reward_expectancy_bt_OFFLINE,2022.2.4,59.923432812272395,
1,0,0,0,0,0,1,0,triangle,hexagon,2,0,2,0,0,6,6,1,,,,,,,,,,,,,,,,,,,,649.8165686419234,649.8165686419234,649.8165686419234,649.8165686419234,649.8165686419234,649.8165686419234,649.8165686419234,649.8165686419234,649.8165686419234,649.8165686419234,a,0.8440847618039697,10,652,2,650.6871937080286,,652.2022982649505,,,,,,,,,,,,,,,,,,,,,,,,,,90376,2022-11-11_14h54.10.806,vts_reward_expectancy_bt_OFFLINE,2022.2.4,59.923432812272395,
1,0,0,0,0,1,0,0,triangle,circle,2,0,2,0,0,7,7,0,,,,,,,,,,,,,,,,,,,,652.686022195965,652.686022195965,652.686022195965,652.686022195965,652.686022195965,652.686022195965,652.686022195965,652.686022195965,652.686022195965,652.686022195965,l,0.7657515020109713,1,653,2,653.4717487189919,,654.9866020989139,,,,,,,,,,,,,,,,,,,,,,,,,,90376,2022-11-11_14h54.10.806,vts_reward_expectancy_bt_OFFLINE,2022.2.4,59.923432812272395,
0,1,0,0,0,0,1,0,circle,hexagon,2,0,2,0,0,8,8,4,,,,,,,,,,,,,,,,,,,,655.4808127479628,655.4808127479628,655.4808127479628,655.4808127479628,655.4808127479628,655.4808127479628,655.4808127479628,655.4808127479628,655.4808127479628,655.4808127479628,l,0.5247552820947021,1,654,2,656.023066242924,657.5229262388311,657.5229262388311,658.0230895029381,,,,,,,,,,,,,,,,,,,,,,,,,90376,2022-11-11_14h54.10.806,vts_reward_expectancy_bt_OFFLINE,2022.2.4,59.923432812272395,
0,1,0,0,0,0,0,1,circle,star,2,0,2,0,0,9,9,5,,,,,,,,,,,,,,,,,,,,658.0230895029381,658.0230895029381,658.0230895029381,658.0230895029381,658.0230895029381,658.0230895029381,658.0230895029381,658.0230895029381,658.0230895029381,658.0230895029381,l,0.4240063298493624,10,664,2,658.4759296160191,,659.9904609119985,,,,,,,,,,,,,,,,,,,,,,,,,,90376,2022-11-11_14h54.10.806,vts_reward_expectancy_bt_OFFLINE,2022.2.4,59.923432812272395,
0,0,0,1,0,1,0,0,star ,circle,2,0,2,0,0,10,10,10,,,,,,,,,,,,,,,,,,,,660.4848677709233,660.4848677709233,660.4848677709233,660.4848677709233,660.4848677709233,660.4848677709233,660.4848677709233,660.4848677709233,660.4848677709233,660.4848677709233,a,0.5710509759373963,10,674,2,661.0758923490066,662.5764806859661,662.5764806859661,,,,,,,,,,,,,,,,,,,,,,,,,,90376,2022-11-11_14h54.10.806,vts_reward_expectancy_bt_OFFLINE,2022.2.4,59.923432812272395,
0,0,1,0,0,0,0,1,hexagon,star,2,0,2,0,0,11,11,8,,,,,,,,,,,,,,,,,,,,663.077073330991,663.077073330991,663.077073330991,663.077073330991,663.077073330991,663.077073330991,663.077073330991,663.077073330991,663.077073330991,663.077073330991,a,0.938191772904247,1,675,2,664.0459262030199,,665.5460167180281,,,,,,,,,,,,,,,,,,,,,,,,,,90376,2022-11-11_14h54.10.806,vts_reward_expectancy_bt_OFFLINE,2022.2.4,59.923432812272395,
0,0,1,0,0,1,0,0,hexagon,circle,2,0,2,0,1,0,12,7,,,,,,,,,,,,,,,,,,,,666.0460954529699,666.0460954529699,666.0460954529699,666.0460954529699,666.0460954529699,666.0460954529699,666.0460954529699,666.0460954529699,666.0460954529699,666.0460954529699,a,0.8159366638865322,1,676,2,666.8804145008326,668.3801938088145,668.3801938088145,668.8805537808221,,,,,,,,,,,,,,,,,,,,,,,,,90376,2022-11-11_14h54.10.806,vts_reward_expectancy_bt_OFFLINE,2022.2.4,59.923432812272395,
1,0,0,0,0,1,0,0,triangle,circle,2,0,2,0,1,1,13,0,,,,,,,,,,,,,,,,,,,,668.8805537808221,668.8805537808221,668.8805537808221,668.8805537808221,668.8805537808221,668.8805537808221,668.8805537808221,668.8805537808221,668.8805537808221,668.8805537808221,l,1.4919916409999132,10,686,2,670.4005262369756,,671.9001483628526,,,,,,,,,,,,,,,,,,,,,,,,,,90376,2022-11-11_14h54.10.806,vts_reward_expectancy_bt_OFFLINE,2022.2.4,59.923432812272395,
1,0,0,0,0,0,1,0,triangle,hexagon,2,0,2,0,1,2,14,1,,,,,,,,,,,,,,,,,,,,672.40059117903,672.40059117903,672.40059117903,672.40059117903,672.40059117903,672.40059117903,672.40059117903,672.40059117903,672.40059117903,672.40059117903,a,1.0424184240400791,10,696,2,673.468293737853,674.9681435308885,674.9681435308885,675.4683599418495,,,,,,,,,,,,,,,,,,,,,,,,,90376,2022-11-11_14h54.10.806,vts_reward_expectancy_bt_OFFLINE,2022.2.4,59.923432812272395,
0,1,0,0,1,0,0,0,circle,triangle,2,0,2,0,1,3,15,3,,,,,,,,,,,,,,,,,,,,675.4683599418495,675.4683599418495,675.4683599418495,675.4683599418495,675.4683599418495,675.4683599418495,675.4683599418495,675.4683599418495,675.4683599418495,675.4683599418495,l,2.228406416019425,10,706,2,677.721675327979,679.2214894338977,679.2214894338977,679.7213147238363,,,,,,,,,,,,,,,,,,,,,,,,,90376,2022-11-11_14h54.10.806,vts_reward_expectancy_bt_OFFLINE,2022.2.4,59.923432812272395,
0,0,0,1,0,1,0,0,star ,circle,2,0,2,0,1,4,16,10,,,,,,,,,,,,,,,,,,,,679.7213147238363,679.7213147238363,679.7213147238363,679.7213147238363,679.7213147238363,679.7213147238363,679.7213147238363,679.7213147238363,679.7213147238363,679.7213147238363,l,2.0245267709251493,1,707,2,681.7767727258615,,683.2915607229806,,,,,,,,,,,,,,,,,,,,,,,,,,90376,2022-11-11_14h54.10.806,vts_reward_expectancy_bt_OFFLINE,2022.2.4,59.923432812272395,
0,0,1,0,1,0,0,0,hexagon,triangle,2,0,2,0,1,5,17,6,,,,,,,,,,,,,,,,,,,,683.7915327840019,683.7915327840019,683.7915327840019,683.7915327840019,683.7915327840019,683.7915327840019,683.7915327840019,683.7915327840019,683.7915327840019,683.7915327840019,l,0.8120846571400762,1,708,2,684.6260427078232,,686.1272893978748,,,,,,,,,,,,,,,,,,,,,,,,,,90376,2022-11-11_14h54.10.806,vts_reward_expectancy_bt_OFFLINE,2022.2.4,59.923432812272395,
1,0,0,0,0,0,0,1,triangle,star,2,0,2,0,1,6,18,2,,,,,,,,,,,,,,,,,,,,686.6277895418461,686.6277895418461,686.6277895418461,686.6277895418461,686.6277895418461,686.6277895418461,686.6277895418461,686.6277895418461,686.6277895418461,686.6277895418461,a,0.8446841810364276,1,709,2,687.4953642268665,688.9953319018241,688.9953319018241,,,,,,,,,,,,,,,,,,,,,,,,,,90376,2022-11-11_14h54.10.806,vts_reward_expectancy_bt_OFFLINE,2022.2.4,59.923432812272395,
0,1,0,0,0,0,1,0,circle,hexagon,2,0,2,0,1,7,19,4,,,,,,,,,,,,,,,,,,,,689.4955024819355,689.4955024819355,689.4955024819355,689.4955024819355,689.4955024819355,689.4955024819355,689.4955024819355,689.4955024819355,689.4955024819355,689.4955024819355,l,1.0154511651489884,10,719,2,690.5359391618986,,692.0484284018166,,,,,,,,,,,,,,,,,,,,,,,,,,90376,2022-11-11_14h54.10.806,vts_reward_expectancy_bt_OFFLINE,2022.2.4,59.923432812272395,
0,0,0,1,0,0,1,0,star,hexagon,2,0,2,0,1,8,20,11,,,,,,,,,,,,,,,,,,,,692.5483032159973,692.5483032159973,692.5483032159973,692.5483032159973,692.5483032159973,692.5483032159973,692.5483032159973,692.5483032159973,692.5483032159973,692.5483032159973,a,0.5943817149382085,10,729,2,693.1657023709267,694.6658067689277,694.6658067689277,695.1658995829057,,,,,,,,,,,,,,,,,,,,,,,,,90376,2022-11-11_14h54.10.806,vts_reward_expectancy_bt_OFFLINE,2022.2.4,59.923432812272395,
0,0,1,0,0,0,0,1,hexagon,star,2,0,2,0,1,9,21,8,,,,,,,,,,,,,,,,,,,,695.1658995829057,695.1658995829057,695.1658995829057,695.1658995829057,695.1658995829057,695.1658995829057,695.1658995829057,695.1658995829057,695.1658995829057,695.1658995829057,l,0.3399284491315484,10,739,2,695.5247261058539,,697.0353762400337,,,,,,,,,,,,,,,,,,,,,,,,,,90376,2022-11-11_14h54.10.806,vts_reward_expectancy_bt_OFFLINE,2022.2.4,59.923432812272395,
0,1,0,0,0,0,0,1,circle,star,2,0,2,0,1,10,22,5,,,,,,,,,,,,,,,,,,,,697.5353743508458,697.5353743508458,697.5353743508458,697.5353743508458,697.5353743508458,697.5353743508458,697.5353743508458,697.5353743508458,697.5353743508458,697.5353743508458,l,0.24371618195436895,1,740,2,697.8048874158412,,699.3192205058876,,,,,,,,,,,,,,,,,,,,,,,,,,90376,2022-11-11_14h54.10.806,vts_reward_expectancy_bt_OFFLINE,2022.2.4,59.923432812272395,
0,0,0,1,1,0,0,0,star,triangle,2,0,2,0,1,11,23,9,,,,,,,,,,,,,,,,,,,,699.8193134418689,699.8193134418689,699.8193134418689,699.8193134418689,699.8193134418689,699.8193134418689,699.8193134418689,699.8193134418689,699.8193134418689,699.8193134418689,l,0.9525256319902837,1,741,2,700.7897135769017,702.2888547379989,702.2888547379989,702.7891132729128,,,,,,,,,,,,,,,,,,,,,,,,,90376,2022-11-11_14h54.10.806,vts_reward_expectancy_bt_OFFLINE,2022.2.4,59.923432812272395,
0,0,0,1,1,0,0,0,star,triangle,2,0,2,0,2,0,24,9,,,,,,,,,,,,,,,,,,,,702.7891132729128,702.7891132729128,702.7891132729128,702.7891132729128,702.7891132729128,702.7891132729128,702.7891132729128,702.7891132729128,702.7891132729128,702.7891132729128,l,0.6823754739016294,1,742,2,703.4902018068824,704.9898971698713,704.9898971698713,705.4897579718381,,,,,,,,,,,,,,,,,,,,,,,,,90376,2022-11-11_14h54.10.806,vts_reward_expectancy_bt_OFFLINE,2022.2.4,59.923432812272395,
0,0,0,1,0,0,1,0,star,hexagon,2,0,2,0,2,1,25,11,,,,,,,,,,,,,,,,,,,,705.4897579718381,705.4897579718381,705.4897579718381,705.4897579718381,705.4897579718381,705.4897579718381,705.4897579718381,705.4897579718381,705.4897579718381,705.4897579718381,l,1.153629455016926,1,743,2,706.6756985639222,708.176198933972,708.176198933972,708.6761981248856,,,,,,,,,,,,,,,,,,,,,,,,,90376,2022-11-11_14h54.10.806,vts_reward_expectancy_bt_OFFLINE,2022.2.4,59.923432812272395,
1,0,0,0,0,0,1,0,triangle,hexagon,2,0,2,0,2,2,26,1,,,,,,,,,,,,,,,,,,,,708.6761981248856,708.6761981248856,708.6761981248856,708.6761981248856,708.6761981248856,708.6761981248856,708.6761981248856,708.6761981248856,708.6761981248856,708.6761981248856,l,1.2414746379945427,1,744,2,709.9447850389406,,711.4457786260173,,,,,,,,,,,,,,,,,,,,,,,,,,90376,2022-11-11_14h54.10.806,vts_reward_expectancy_bt_OFFLINE,2022.2.4,59.923432812272395,
0,1,0,0,1,0,0,0,circle,triangle,2,0,2,0,2,3,27,3,,,,,,,,,,,,,,,,,,,,711.9461392818484,711.9461392818484,711.9461392818484,711.9461392818484,711.9461392818484,711.9461392818484,711.9461392818484,711.9461392818484,711.9461392818484,711.9461392818484,l,1.5037693930789828,10,754,2,713.4868423808366,,714.9973015158903,,,,,,,,,,,,,,,,,,,,,,,,,,90376,2022-11-11_14h54.10.806,vts_reward_expectancy_bt_OFFLINE,2022.2.4,59.923432812272395,
1,0,0,0,0,0,0,1,triangle,star,2,0,2,0,2,4,28,2,,,,,,,,,,,,,,,,,,,,715.4971999258269,715.4971999258269,715.4971999258269,715.4971999258269,715.4971999258269,715.4971999258269,715.4971999258269,715.4971999258269,715.4971999258269,715.4971999258269,a,0.9793028659187257,10,764,2,716.5001989610028,718.0001148679294,718.0001148679294,718.5002148728818,,,,,,,,,,,,,,,,,,,,,,,,,90376,2022-11-11_14h54.10.806,vts_reward_expectancy_bt_OFFLINE,2022.2.4,59.923432812272395,
1,0,0,0,0,1,0,0,triangle,circle,2,0,2,0,2,5,29,0,,,,,,,,,,,,,,,,,,,,718.5002148728818,718.5002148728818,718.5002148728818,718.5002148728818,718.5002148728818,718.5002148728818,718.5002148728818,718.5002148728818,718.5002148728818,718.5002148728818,a,0.5756066979374737,10,774,2,719.1012034749147,,720.6028141248971,,,,,,,,,,,,,,,,,,,,,,,,,,90376,2022-11-11_14h54.10.806,vts_reward_expectancy_bt_OFFLINE,2022.2.4,59.923432812272395,
0,0,1,0,1,0,0,0,hexagon,triangle,2,0,2,0,2,6,30,6,,,,,,,,,,,,,,,,,,,,721.1030232938938,721.1030232938938,721.1030232938938,721.1030232938938,721.1030232938938,721.1030232938938,721.1030232938938,721.1030232938938,721.1030232938938,721.1030232938938,a,1.3813725877553225,10,784,2,722.50452884892,724.0040938500315,724.0040938500315,724.5041717740241,,,,,,,,,,,,,,,,,,,,,,,,,90376,2022-11-11_14h54.10.806,vts_reward_expectancy_bt_OFFLINE,2022.2.4,59.923432812272395,
0,0,0,1,0,1,0,0,star ,circle,2,0,2,0,2,7,31,10,,,,,,,,,,,,,,,,,,,,724.5041717740241,724.5041717740241,724.5041717740241,724.5041717740241,724.5041717740241,724.5041717740241,724.5041717740241,724.5041717740241,724.5041717740241,724.5041717740241,l,0.7262361079920083,1,785,2,725.2575379249174,,726.7568190249149,,,,,,,,,,,,,,,,,,,,,,,,,,90376,2022-11-11_14h54.10.806,vts_reward_expectancy_bt_OFFLINE,2022.2.4,59.923432812272395,
0,1,0,0,0,0,0,1,circle,star,2,0,2,0,2,8,32,5,,,,,,,,,,,,,,,,,,,,727.2569985019509,727.2569985019509,727.2569985019509,727.2569985019509,727.2569985019509,727.2569985019509,727.2569985019509,727.2569985019509,727.2569985019509,727.2569985019509,l,0.5939702158793807,1,786,2,727.8749260918703,729.3747547979001,729.3747547979001,729.8748095338233,,,,,,,,,,,,,,,,,,,,,,,,,90376,2022-11-11_14h54.10.806,vts_reward_expectancy_bt_OFFLINE,2022.2.4,59.923432812272395,
0,1,0,0,0,0,1,0,circle,hexagon,2,0,2,0,2,9,33,4,,,,,,,,,,,,,,,,,,,,729.8748095338233,729.8748095338233,729.8748095338233,729.8748095338233,729.8748095338233,729.8748095338233,729.8748095338233,729.8748095338233,729.8748095338233,729.8748095338233,l,1.1492330839391798,1,787,2,731.0444545669015,732.5441110050306,732.5441110050306,,,,,,,,,,,,,,,,,,,,,,,,,,90376,2022-11-11_14h54.10.806,vts_reward_expectancy_bt_OFFLINE,2022.2.4,59.923432812272395,
0,0,1,0,0,1,0,0,hexagon,circle,2,0,2,0,2,10,34,7,,,,,,,,,,,,,,,,,,,,733.0442743098829,733.0442743098829,733.0442743098829,733.0442743098829,733.0442743098829,733.0442743098829,733.0442743098829,733.0442743098829,733.0442743098829,733.0442743098829,l,1.084284754935652,1,788,2,734.1612527659163,735.6637641279958,735.6637641279958,736.1637782480102,,,,,,,,,,,,,,,,,,,,,,,,,90376,2022-11-11_14h54.10.806,vts_reward_expectancy_bt_OFFLINE,2022.2.4,59.923432812272395,
0,0,1,0,0,0,0,1,hexagon,star,2,0,2,0,2,11,35,8,,,,,,,,,,,,,,,,,,,,736.1637782480102,736.1637782480102,736.1637782480102,736.1637782480102,736.1637782480102,736.1637782480102,736.1637782480102,736.1637782480102,736.1637782480102,736.1637782480102,l,0.4745877650566399,10,798,2,736.6672712129075,,738.1815209188499,,,,,,,,,,,,,,,,,,,,,,,,,,90376,2022-11-11_14h54.10.806,vts_reward_expectancy_bt_OFFLINE,2022.2.4,59.923432812272395,
0,1,0,0,0,0,0,1,circle,star,2,0,2,0,3,0,36,5,,,,,,,,,,,,,,,,,,,,738.681375982007,738.681375982007,738.681375982007,738.681375982007,738.681375982007,738.681375982007,738.681375982007,738.681375982007,738.681375982007,738.681375982007,a,0.2961919968947768,1,799,2,739.013741843868,,740.515594788827,,,,,,,,,,,,,,,,,,,,,,,,,,90376,2022-11-11_14h54.10.806,vts_reward_expectancy_bt_OFFLINE,2022.2.4,59.923432812272395,
1,0,0,0,0,1,0,0,triangle,circle,2,0,2,0,3,1,37,0,,,,,,,,,,,,,,,,,,,,741.0009818668477,741.0009818668477,741.0009818668477,741.0009818668477,741.0009818668477,741.0009818668477,741.0009818668477,741.0009818668477,741.0009818668477,741.0009818668477,l,1.6904677299316972,1,800,2,742.7195047249552,744.218672664836,744.218672664836,744.718722383026,,,,,,,,,,,,,,,,,,,,,,,,,90376,2022-11-11_14h54.10.806,vts_reward_expectancy_bt_OFFLINE,2022.2.4,59.923432812272395,
1,0,0,0,0,0,1,0,triangle,hexagon,2,0,2,0,3,2,38,1,,,,,,,,,,,,,,,,,,,,744.718722383026,744.718722383026,744.718722383026,744.718722383026,744.718722383026,744.718722383026,744.718722383026,744.718722383026,744.718722383026,744.718722383026,l,1.0319240789394826,10,810,2,745.7744790108409,,747.2882967828773,,,,,,,,,,,,,,,,,,,,,,,,,,90376,2022-11-11_14h54.10.806,vts_reward_expectancy_bt_OFFLINE,2022.2.4,59.923432812272395,
0,0,1,0,0,0,0,1,hexagon,star,2,0,2,0,3,3,39,8,,,,,,,,,,,,,,,,,,,,747.7716643698514,747.7716643698514,747.7716643698514,747.7716643698514,747.7716643698514,747.7716643698514,747.7716643698514,747.7716643698514,747.7716643698514,747.7716643698514,a,0.746781675843522,10,820,2,748.5399305389728,,750.0392993469723,750.53707661503,,,,,,,,,,,,,,,,,,,,,,,,,90376,2022-11-11_14h54.10.806,vts_reward_expectancy_bt_OFFLINE,2022.2.4,59.923432812272395,
0,0,1,0,1,0,0,0,hexagon,triangle,2,0,2,0,3,4,40,6,,,,,,,,,,,,,,,,,,,,750.53707661503,750.53707661503,750.53707661503,750.53707661503,750.53707661503,750.53707661503,750.53707661503,750.53707661503,750.53707661503,750.53707661503,l,1.1199295490514487,10,830,2,751.6761876149103,753.1757907590363,753.1757907590363,753.6757423169911,,,,,,,,,,,,,,,,,,,,,,,,,90376,2022-11-11_14h54.10.806,vts_reward_expectancy_bt_OFFLINE,2022.2.4,59.923432812272395,
0,0,0,1,0,0,1,0,star,hexagon,2,0,2,0,3,5,41,11,,,,,,,,,,,,,,,,,,,,753.6757423169911,753.6757423169911,753.6757423169911,753.6757423169911,753.6757423169911,753.6757423169911,753.6757423169911,753.6757423169911,753.6757423169911,753.6757423169911,a,4.102238605963066,10,840,2,757.7972110409755,759.2962583380286,759.2962583380286,759.7966428459622,,,,,,,,,,,,,,,,,,,,,,,,,90376,2022-11-11_14h54.10.806,vts_reward_expectancy_bt_OFFLINE,2022.2.4,59.923432812272395,
0,0,0,1,1,0,0,0,star,triangle,2,0,2,0,3,6,42,9,,,,,,,,,,,,,,,,,,,,759.7966428459622,759.7966428459622,759.7966428459622,759.7966428459622,759.7966428459622,759.7966428459622,759.7966428459622,759.7966428459622,759.7966428459622,759.7966428459622,a,1.1656636027619243,10,850,2,760.9836832939181,,762.4992924868129,,,,,,,,,,,,,,,,,,,,,,,,,,90376,2022-11-11_14h54.10.806,vts_reward_expectancy_bt_OFFLINE,2022.2.4,59.923432812272395,
0,0,1,0,0,1,0,0,hexagon,circle,2,0,2,0,3,7,43,7,,,,,,,,,,,,,,,,,,,,762.9996272628196,762.9996272628196,762.9996272628196,762.9996272628196,762.9996272628196,762.9996272628196,762.9996272628196,762.9996272628196,762.9996272628196,762.9996272628196,l,1.5280524080153555,1,851,2,764.5539187008981,,766.052085632924,,,,,,,,,,,,,,,,,,,,,,,,,,90376,2022-11-11_14h54.10.806,vts_reward_expectancy_bt_OFFLINE,2022.2.4,59.923432812272395,
0,1,0,0,0,0,1,0,circle,hexagon,2,0,2,0,3,8,44,4,,,,,,,,,,,,,,,,,,,,766.5526110029314,766.5526110029314,766.5526110029314,766.5526110029314,766.5526110029314,766.5526110029314,766.5526110029314,766.5526110029314,766.5526110029314,766.5526110029314,l,0.9451242310460657,10,861,2,767.5222122909036,,769.0366817989852,,,,,,,,,,,,,,,,,,,,,,,,,,90376,2022-11-11_14h54.10.806,vts_reward_expectancy_bt_OFFLINE,2022.2.4,59.923432812272395,
1,0,0,0,0,0,0,1,triangle,star,2,0,2,0,3,9,45,2,,,,,,,,,,,,,,,,,,,,769.5203307420015,769.5203307420015,769.5203307420015,769.5203307420015,769.5203307420015,769.5203307420015,769.5203307420015,769.5203307420015,769.5203307420015,769.5203307420015,a,0.9930510169360787,1,862,2,770.5408578489441,,772.0398123739287,,,,,,,,,,,,,,,,,,,,,,,,,,90376,2022-11-11_14h54.10.806,vts_reward_expectancy_bt_OFFLINE,2022.2.4,59.923432812272395,
0,0,0,1,0,1,0,0,star ,circle,2,0,2,0,3,10,46,10,,,,,,,,,,,,,,,,,,,,772.5399257978424,772.5399257978424,772.5399257978424,772.5399257978424,772.5399257978424,772.5399257978424,772.5399257978424,772.5399257978424,772.5399257978424,772.5399257978424,a,0.4592475590761751,1,863,2,773.0267721358687,,774.5405585470144,,,,,,,,,,,,,,,,,,,,,,,,,,90376,2022-11-11_14h54.10.806,vts_reward_expectancy_bt_OFFLINE,2022.2.4,59.923432812272395,
0,1,0,0,1,0,0,0,circle,triangle,2,0,2,0,3,11,47,3,,,,,,,,,,,,,,,,,,,,775.0406675690319,775.0406675690319,775.0406675690319,775.0406675690319,775.0406675690319,775.0406675690319,775.0406675690319,775.0406675690319,775.0406675690319,775.0406675690319,l,0.6029917360283434,1,864,2,775.6760651948862,777.1768693379126,777.1768693379126,777.6837871668395,,,,,,,,,,,,,,,,,,,,,,,,,90376,2022-11-11_14h54.10.806,vts_reward_expectancy_bt_OFFLINE,2022.2.4,59.923432812272395,
,,,,,,,,,,,,,,,,,,0,0,0,0,0,0,0,0,,,,,,,,,,,,,,,,,,,,,,,,,,,,,804.9461132399738,,139,H,star,0.0008160138968378305,800.0554014840163,801.5448402520269,801.5448402520269,801.5448402520269,1,0,d,1.853711370145902,0,803.4329360988922,,,,,,,,,,,90376,2022-11-11_14h54.10.806,vts_reward_expectancy_bt_OFFLINE,2022.2.4,59.923432812272395,
,,,,,,,,,,,,,,,,,,0,0,0,0,1,0,1,0,,,,,,,,,,,,,,,,,,,,,,,,,,,,,810.0329325669445,,167,B,circle,0.01647444604896009,805.942868900951,807.4154370659962,807.4154370659962,807.4154370659962,1,0,f,1.0794004020281136,0,808.5178263389971,,,,,,,,,,,90376,2022-11-11_14h54.10.806,vts_reward_expectancy_bt_OFFLINE,2022.2.4,59.923432812272395,
,,,,,,,,,,,,,,,,,,0,0,0,0,2,0,2,0,,,,,,,,,,,,,,,,,,,,,,,,,,,,,815.069885307923,,132,W,triangle,0.016735543962568045,811.0298120228108,812.502345857909,812.502345857909,812.502345857909,1,0,d,1.0338027458637953,0,813.5545720169321,,,,,,,,,,,90376,2022-11-11_14h54.10.806,vts_reward_expectancy_bt_OFFLINE,2022.2.4,59.923432812272395,
,,,,,,,,,,,,,,,,,,0,0,0,0,3,0,3,0,,,,,,,,,,,,,,,,,,,,,,,,,,,,,819.8568111888599,820.356924185995,160,U,hexagon,0.016504592029377818,816.066510126926,817.5394144498277,817.5394144498277,817.5394144498277,1,0,f,0.7889061011373997,0,818.3575720489025,819.8568111888599,,,,,,,,,,90376,2022-11-11_14h54.10.806,vts_reward_expectancy_bt_OFFLINE,2022.2.4,59.923432812272395,
,,,,,,,,,,,,,,,,,,0,0,0,0,4,0,4,0,,,,,,,,,,,,,,,,,,,,,,,,,,,,,824.5269943978637,,174,D,star,0.0005969139747321606,820.8536973858718,822.3426835190039,822.3426835190039,822.3426835190039,1,0,f,0.6428827019408345,0,823.0117024488281,,,,,,,,,,,90376,2022-11-11_14h54.10.806,vts_reward_expectancy_bt_OFFLINE,2022.2.4,59.923432812272395,
,,,,,,,,,,,,,,,,,,0,0,0,0,5,0,5,0,,,,,,,,,,,,,,,,,,,,,,,,,,,,,829.0639329289552,829.5640206409153,181,S,hexagon,0.01683896197937429,825.523646735819,826.996458421927,826.996458421927,826.996458421927,1,0,f,0.5350024658255279,0,827.563150989823,829.0639329289552,,,,,,,,,,90376,2022-11-11_14h54.10.806,vts_reward_expectancy_bt_OFFLINE,2022.2.4,59.923432812272395,
,,,,,,,,,,,,,,,,,,0,0,0,0,6,0,6,0,,,,,,,,,,,,,,,,,,,,,,,,,,,,,834.3342459718697,,146,F,triangle,0.014751184964552522,830.0762361639645,831.5496976028662,831.5496976028662,831.5496976028662,1,0,d,1.2467045090161264,0,832.818678917829,,,,,,,,,,,90376,2022-11-11_14h54.10.806,vts_reward_expectancy_bt_OFFLINE,2022.2.4,59.923432812272395,
,,,,,,,,,,,,,,,,,,0,0,0,0,7,0,7,0,,,,,,,,,,,,,,,,,,,,,,,,,,,,,839.1044117258862,,125,Y,circle,0.000543359899893403,835.3136091949418,836.8036626828834,836.8036626828834,836.8036626828834,1,0,d,0.7630034498870373,0,837.5887563410215,,,,,,,,,,,90376,2022-11-11_14h54.10.806,vts_reward_expectancy_bt_OFFLINE,2022.2.4,59.923432812272395,
,,,,,,,,,,,,,,,,,,0,0,0,0,8,0,8,0,,,,,,,,,,,,,,,,,,,,,,,,,,,,,844.0914603909478,,139,H,hexagon,0.017075355863198638,840.1007446479052,841.573808406014,841.573808406014,841.573808406014,1,0,d,0.9776138779707253,0,842.5760478829034,,,,,,,,,,,90376,2022-11-11_14h54.10.806,vts_reward_expectancy_bt_OFFLINE,2022.2.4,59.923432812272395,
,,,,,,,,,,,,,,,,,,0,0,0,0,9,0,9,0,,,,,,,,,,,,,,,,,,,,,,,,,,,,,849.6117758429609,,167,B,circle,0.01663042907603085,845.0873256979976,846.560798445018,846.560798445018,846.560798445018,1,0,f,1.5139111578464508,0,848.0964759488124,,,,,,,,,,,90376,2022-11-11_14h54.10.806,vts_reward_expectancy_bt_OFFLINE,2022.2.4,59.923432812272395,
,,,,,,,,,,,,,,,,,,,,,,,,,,0,0,0,0,0,0,0,0,,,,,,,,,,,,,,,,,,,,,869.2596685388125,,181,S,star,0.001127932220697403,,,,,1,0,,,1,867.7441674598958,,863.6519819179084,865.1398095600307,865.1398095600307,865.1398095600307,k,2.5792333900462836,,,,90376,2022-11-11_14h54.10.806,vts_reward_expectancy_bt_OFFLINE,2022.2.4,59.923432812272395,
,,,,,,,,,,,,,,,,,,,,,,,,,,0,0,0,0,1,0,1,0,,,,,,,,,,,,,,,,,,,,,874.1131461379118,,132,Y,triangle,0.016971938079223037,,,,,1,0,,,1,872.5976907899603,,870.2561465969775,871.728815349983,871.728815349983,871.728815349983,k,0.8392693160567433,,,,90376,2022-11-11_14h54.10.806,vts_reward_expectancy_bt_OFFLINE,2022.2.4,59.923432812272395,
,,,,,,,,,,,,,,,,,,,,,,,,,,0,0,0,0,2,0,2,0,,,,,,,,,,,,,,,,,,,,,879.4168874849565,,167,B,hexagon,0.016700504114851356,,,,,1,0,,,1,877.9014313640073,,875.1097148950212,876.5826456409413,876.5826456409413,876.5826456409413,j,1.2953910909127444,,,,90376,2022-11-11_14h54.10.806,vts_reward_expectancy_bt_OFFLINE,2022.2.4,59.923432812272395,
,,,,,,,,,,,,,,,,,,,,,,,,,,0,0,0,0,3,0,3,0,,,,,,,,,,,,,,,,,,,,,885.1043599189725,,125,H,circle,0.01689269603230059,,,,,0,0,,,1,883.5899228339549,,880.4133599819615,881.88641403988,881.88641403988,881.88641403988,k,1.6737175399903208,,,,90376,2022-11-11_14h54.10.806,vts_reward_expectancy_bt_OFFLINE,2022.2.4,59.923432812272395,
,,,,,,,,,,,,,,,,,,,,,,,,,,0,0,0,0,4,0,4,0,,,,,,,,,,,,,,,,,,,,,892.0937735820189,,139,U,star,0.016874887980520725,,,,,0,1,,,1,890.5912102400325,,886.101080986904,887.5734880720265,887.5734880720265,887.5734880720265,None,,890.5745940399356,890.5745940399356,890.5745940399356,90376,2022-11-11_14h54.10.806,vts_reward_expectancy_bt_OFFLINE,2022.2.4,59.923432812272395,
,,,,,,,,,,,,,,,,,,,,,,,,,,0,0,0,0,5,0,5,0,,,,,,,,,,,,,,,,,,,,,897.597529068822,,146,W,triangle,0.006344150984659791,,,,,1,1,,,1,896.0819303409662,,893.0900095698889,894.578061681008,894.578061681008,894.578061681008,k,1.4691823991015553,,,,90376,2022-11-11_14h54.10.806,vts_reward_expectancy_bt_OFFLINE,2022.2.4,59.923432812272395,
,,,,,,,,,,,,,,,,,,,,,,,,,,0,0,0,0,6,0,6,0,,,,,,,,,,,,,,,,,,,,,902.7009906650055,,174,D,circle,0.014847764046862721,,,,,1,0,,,1,901.185677847825,,898.5934652090073,900.081890034955,900.081890034955,900.081890034955,j,1.0850355119910091,,,,90376,2022-11-11_14h54.10.806,vts_reward_expectancy_bt_OFFLINE,2022.2.4,59.923432812272395,
,,,,,,,,,,,,,,,,,,,,,,,,,,0,0,0,0,7,0,7,0,,,,,,,,,,,,,,,,,,,,,907.8049243348651,,160,F,hexagon,0.00041094282642006874,,,,,1,0,,,1,906.2894189259969,,903.6801053970121,905.1687889189925,905.1687889189925,905.1687889189925,j,1.0940180569887161,,,,90376,2022-11-11_14h54.10.806,vts_reward_expectancy_bt_OFFLINE,2022.2.4,59.923432812272395,
,,,,,,,,,,,,,,,,,,,,,,,,,,0,0,0,0,8,0,8,0,,,,,,,,,,,,,,,,,,,,,914.3427498678211,914.8422356969677,181,S,circle,0.016528200823813677,,,,,1,0,,,1,912.8419174358714,914.3427498678211,908.8006960169878,910.2724278238602,910.2724278238602,910.2724278238602,k,2.537996595026925,,,,90376,2022-11-11_14h54.10.806,vts_reward_expectancy_bt_OFFLINE,2022.2.4,59.923432812272395,
,,,,,,,,,,,,,,,,,,,,,,,,,,0,0,0,0,9,0,9,0,,,,,,,,,,,,,,,,,,,,,919.229250438977,919.7327429819852,132,Y,hexagon,0.013788230950012803,,,,,1,0,,,1,917.7301854419056,919.229250438977,915.3547816989012,916.8284334349446,916.8284334349446,916.8284334349446,k,0.8767301579937339,,,,90376,2022-11-11_14h54.10.806,vts_reward_expectancy_bt_OFFLINE,2022.2.4,59.923432812272395,
