LTriangleOpac,LCircleOpac,LHexagonOpac,LStarOpac,RTriangleOpac,RCircleOpac,RHexagonOpac,RStarOpac,LShape_ID,RShape_ID,training_blocks.thisRepN,training_blocks.thisTrialN,training_blocks.thisN,training_blocks.thisIndex,training.thisRepN,training.thisTrialN,training.thisN,training.thisIndex,task1_prac_redo.thisRepN,task1_prac_redo.thisTrialN,task1_prac_redo.thisN,task1_prac_redo.thisIndex,task1_prac_trials.thisRepN,task1_prac_trials.thisTrialN,task1_prac_trials.thisN,task1_prac_trials.thisIndex,key_resp.started,key_resp.keys,key_resp.rt,left_circle.started,right_circle.started,left_triangle.started,right_triangle.started,left_star.started,right_star.started,left_hexagon.started,right_hexagon.started,training_fix.started,training_resp.started,training_resp.keys,training_resp.rt,points_trial,points_cumul,trainBlock,training_feedback_txt.started,fix.started,training_feedback_txt.stopped,curr_topStim,curr_bottStim,curr_shape,ISI.started,tgt_fix_prac1.started,top_target_prac1.started,bott_target_prac1.started,target_resp_prac1.started,acc,E1,target_resp_prac1.keys,target_resp_prac1.rt,pracBlock,prac_fback_text.started,participant,date,expName,psychopyVersion,frameRate,
,,,,,,,,,,,,,,,,,,,,,,,,,,17.41958205300034,space,25.418935457011685,,,,,,,,,,,,,,,,,,,,,,,,,,,,,,,,,91140,2022-11-21_14h01.53.163,vts_reward_expectancy_bt_OFFLINE,2022.2.4,60.01972860357194,
1,0,0,0,0,0,0,1,triangle,star,0,0,0,0,0,0,0,2,,,,,,,,,,,,73.04137067397824,73.04137067397824,73.04137067397824,73.04137067397824,73.04137067397824,73.04137067397824,73.04137067397824,73.04137067397824,73.04137067397824,73.04137067397824,l,4.0541974730440415,1,1,0,77.11915760100237,78.62093037398881,,,,,,,,,,,,,,,,91140,2022-11-21_14h01.53.163,vts_reward_expectancy_bt_OFFLINE,2022.2.4,60.01972860357194,
1,0,0,0,0,1,0,0,triangle,circle,0,0,0,0,0,1,1,0,,,,,,,,,,,,79.12139148300048,79.12139148300048,79.12139148300048,79.12139148300048,79.12139148300048,79.12139148300048,79.12139148300048,79.12139148300048,79.12139148300048,79.12139148300048,a,0.6073788390203845,1,2,0,79.75563782997779,81.25708337398828,,,,,,,,,,,,,,,,91140,2022-11-21_14h01.53.163,vts_reward_expectancy_bt_OFFLINE,2022.2.4,60.01972860357194,
0,0,1,0,1,0,0,0,hexagon,triangle,0,0,0,0,0,2,2,6,,,,,,,,,,,,81.75772179098567,81.75772179098567,81.75772179098567,81.75772179098567,81.75772179098567,81.75772179098567,81.75772179098567,81.75772179098567,81.75772179098567,81.75772179098567,a,1.7392840730317403,10,12,0,83.5261682139826,85.0279204690014,,,,,,,,,,,,,,,,91140,2022-11-21_14h01.53.163,vts_reward_expectancy_bt_OFFLINE,2022.2.4,60.01972860357194,
0,0,0,1,0,1,0,0,star ,circle,0,0,0,0,0,3,3,10,,,,,,,,,,,,85.52849175597657,85.52849175597657,85.52849175597657,85.52849175597657,85.52849175597657,85.52849175597657,85.52849175597657,85.52849175597657,85.52849175597657,85.52849175597657,l,1.851109974028077,1,13,0,87.3970375630015,88.89870558699477,,,,,,,,,,,,,,,,91140,2022-11-21_14h01.53.163,vts_reward_expectancy_bt_OFFLINE,2022.2.4,60.01972860357194,
0,1,0,0,0,0,0,1,circle,star,0,0,0,0,0,4,4,5,,,,,,,,,,,,89.39924922498176,89.39924922498176,89.39924922498176,89.39924922498176,89.39924922498176,89.39924922498176,89.39924922498176,89.39924922498176,89.39924922498176,89.39924922498176,l,0.9046573860396165,1,14,0,90.33372292399872,91.83539750697673,,,,,,,,,,,,,,,,91140,2022-11-21_14h01.53.163,vts_reward_expectancy_bt_OFFLINE,2022.2.4,60.01972860357194,
0,1,0,0,0,0,1,0,circle,hexagon,0,0,0,0,0,5,5,4,,,,,,,,,,,,92.3360775889887,92.3360775889887,92.3360775889887,92.3360775889887,92.3360775889887,92.3360775889887,92.3360775889887,92.3360775889887,92.3360775889887,92.3360775889887,l,0.8138464740186464,1,15,0,93.17015963597805,94.67179211697658,,,,,,,,,,,,,,,,91140,2022-11-21_14h01.53.163,vts_reward_expectancy_bt_OFFLINE,2022.2.4,60.01972860357194,
0,0,1,0,0,0,0,1,hexagon,star,0,0,0,0,0,6,6,8,,,,,,,,,,,,95.17245663498761,95.17245663498761,95.17245663498761,95.17245663498761,95.17245663498761,95.17245663498761,95.17245663498761,95.17245663498761,95.17245663498761,95.17245663498761,l,0.8685529560316354,1,16,0,96.0734098989924,97.57520182599546,,,,,,,,,,,,,,,,91140,2022-11-21_14h01.53.163,vts_reward_expectancy_bt_OFFLINE,2022.2.4,60.01972860357194,
0,0,0,1,1,0,0,0,star,triangle,0,0,0,0,0,7,7,9,,,,,,,,,,,,98.0755083799886,98.0755083799886,98.0755083799886,98.0755083799886,98.0755083799886,98.0755083799886,98.0755083799886,98.0755083799886,98.0755083799886,98.0755083799886,l,1.5443464390409645,1,17,0,99.64403338800184,101.14577092198306,,,,,,,,,,,,,,,,91140,2022-11-21_14h01.53.163,vts_reward_expectancy_bt_OFFLINE,2022.2.4,60.01972860357194,
0,0,1,0,0,1,0,0,hexagon,circle,0,0,0,0,0,8,8,7,,,,,,,,,,,,101.64618364299531,101.64618364299531,101.64618364299531,101.64618364299531,101.64618364299531,101.64618364299531,101.64618364299531,101.64618364299531,101.64618364299531,101.64618364299531,l,1.4843698760087136,10,27,0,103.14777491000132,104.64956254899153,,,,,,,,,,,,,,,,91140,2022-11-21_14h01.53.163,vts_reward_expectancy_bt_OFFLINE,2022.2.4,60.01972860357194,
0,1,0,0,1,0,0,0,circle,triangle,0,0,0,0,0,9,9,3,,,,,,,,,,,,105.15006280899979,105.15006280899979,105.15006280899979,105.15006280899979,105.15006280899979,105.15006280899979,105.15006280899979,105.15006280899979,105.15006280899979,105.15006280899979,l,0.7023874540172983,1,28,0,105.88421362297959,107.38579212198965,,,,,,,,,,,,,,,,91140,2022-11-21_14h01.53.163,vts_reward_expectancy_bt_OFFLINE,2022.2.4,60.01972860357194,
1,0,0,0,0,0,1,0,triangle,hexagon,0,0,0,0,0,10,10,1,,,,,,,,,,,,107.88662100597867,107.88662100597867,107.88662100597867,107.88662100597867,107.88662100597867,107.88662100597867,107.88662100597867,107.88662100597867,107.88662100597867,107.88662100597867,a,0.6662165840389207,10,38,0,108.57047670599422,110.07229300600011,,,,,,,,,,,,,,,,91140,2022-11-21_14h01.53.163,vts_reward_expectancy_bt_OFFLINE,2022.2.4,60.01972860357194,
0,0,0,1,0,0,1,0,star,hexagon,0,0,0,0,0,11,11,11,,,,,,,,,,,,110.57281751098344,110.57281751098344,110.57281751098344,110.57281751098344,110.57281751098344,110.57281751098344,110.57281751098344,110.57281751098344,110.57281751098344,110.57281751098344,a,0.7127598410297651,10,48,0,111.30688256397843,112.80845334197511,,,,,,,,,,,,,,,,91140,2022-11-21_14h01.53.163,vts_reward_expectancy_bt_OFFLINE,2022.2.4,60.01972860357194,
0,0,0,1,0,0,1,0,star,hexagon,0,0,0,0,1,0,12,11,,,,,,,,,,,,113.30898457599687,113.30898457599687,113.30898457599687,113.30898457599687,113.30898457599687,113.30898457599687,113.30898457599687,113.30898457599687,113.30898457599687,113.30898457599687,a,0.5084964480192866,10,58,0,113.84277216097689,115.3445355949807,,,,,,,,,,,,,,,,91140,2022-11-21_14h01.53.163,vts_reward_expectancy_bt_OFFLINE,2022.2.4,60.01972860357194,
1,0,0,0,0,1,0,0,triangle,circle,0,0,0,0,1,1,13,0,,,,,,,,,,,,115.84504834900144,115.84504834900144,115.84504834900144,115.84504834900144,115.84504834900144,115.84504834900144,115.84504834900144,115.84504834900144,115.84504834900144,115.84504834900144,a,1.5504769140097778,10,68,0,117.41350272897398,118.91516047497862,,,,,,,,,,,,,,,,91140,2022-11-21_14h01.53.163,vts_reward_expectancy_bt_OFFLINE,2022.2.4,60.01972860357194,
0,0,1,0,0,0,0,1,hexagon,star,0,0,0,0,1,2,14,8,,,,,,,,,,,,119.41573030099971,119.41573030099971,119.41573030099971,119.41573030099971,119.41573030099971,119.41573030099971,119.41573030099971,119.41573030099971,119.41573030099971,119.41573030099971,l,0.6013762540242169,1,69,0,120.04968728197855,121.55149855697528,,,,,,,,,,,,,,,,91140,2022-11-21_14h01.53.163,vts_reward_expectancy_bt_OFFLINE,2022.2.4,60.01972860357194,
1,0,0,0,0,0,1,0,triangle,hexagon,0,0,0,0,1,3,15,1,,,,,,,,,,,,122.05208797898376,122.05208797898376,122.05208797898376,122.05208797898376,122.05208797898376,122.05208797898376,122.05208797898376,122.05208797898376,122.05208797898376,122.05208797898376,l,0.8780209990218282,1,70,0,122.9531636859756,124.45482827498927,,,,,,,,,,,,,,,,91140,2022-11-21_14h01.53.163,vts_reward_expectancy_bt_OFFLINE,2022.2.4,60.01972860357194,
0,1,0,0,0,0,1,0,circle,hexagon,0,0,0,0,1,4,16,4,,,,,,,,,,,,124.95530192999286,124.95530192999286,124.95530192999286,124.95530192999286,124.95530192999286,124.95530192999286,124.95530192999286,124.95530192999286,124.95530192999286,124.95530192999286,l,0.5069027590216137,10,80,0,125.48920771799749,126.99101088999305,,,,,,,,,,,,,,,,91140,2022-11-21_14h01.53.163,vts_reward_expectancy_bt_OFFLINE,2022.2.4,60.01972860357194,
0,0,1,0,0,1,0,0,hexagon,circle,0,0,0,0,1,5,17,7,,,,,,,,,,,,127.49170839099679,127.49170839099679,127.49170839099679,127.49170839099679,127.49170839099679,127.49170839099679,127.49170839099679,127.49170839099679,127.49170839099679,127.49170839099679,a,0.46725981403142214,10,90,0,127.99210003699409,129.49368685099762,,,,,,,,,,,,,,,,91140,2022-11-21_14h01.53.163,vts_reward_expectancy_bt_OFFLINE,2022.2.4,60.01972860357194,
0,1,0,0,0,0,0,1,circle,star,0,0,0,0,1,6,18,5,,,,,,,,,,,,129.99408705797396,129.99408705797396,129.99408705797396,129.99408705797396,129.99408705797396,129.99408705797396,129.99408705797396,129.99408705797396,129.99408705797396,129.99408705797396,l,0.4179532260459382,1,91,0,130.44475761297508,131.94642129697604,,,,,,,,,,,,,,,,91140,2022-11-21_14h01.53.163,vts_reward_expectancy_bt_OFFLINE,2022.2.4,60.01972860357194,
0,0,1,0,1,0,0,0,hexagon,triangle,0,0,0,0,1,7,19,6,,,,,,,,,,,,132.4469591359957,132.4469591359957,132.4469591359957,132.4469591359957,132.4469591359957,132.4469591359957,132.4469591359957,132.4469591359957,132.4469591359957,132.4469591359957,a,0.9694049900281243,10,101,0,133.44791449798504,134.94963523498154,,,,,,,,,,,,,,,,91140,2022-11-21_14h01.53.163,vts_reward_expectancy_bt_OFFLINE,2022.2.4,60.01972860357194,
1,0,0,0,0,0,0,1,triangle,star,0,0,0,0,1,8,20,2,,,,,,,,,,,,135.45019398999284,135.45019398999284,135.45019398999284,135.45019398999284,135.45019398999284,135.45019398999284,135.45019398999284,135.45019398999284,135.45019398999284,135.45019398999284,l,0.7001413960242644,10,111,0,136.16754035497434,137.669259192975,,,,,,,,,,,,,,,,91140,2022-11-21_14h01.53.163,vts_reward_expectancy_bt_OFFLINE,2022.2.4,60.01972860357194,
0,1,0,0,1,0,0,0,circle,triangle,0,0,0,0,1,9,21,3,,,,,,,,,,,,138.16996516799554,138.16996516799554,138.16996516799554,138.16996516799554,138.16996516799554,138.16996516799554,138.16996516799554,138.16996516799554,138.16996516799554,138.16996516799554,a,0.43250189602258615,1,112,0,138.62038390198722,140.1219151749974,,,,,,,,,,,,,,,,91140,2022-11-21_14h01.53.163,vts_reward_expectancy_bt_OFFLINE,2022.2.4,60.01972860357194,
0,0,0,1,1,0,0,0,star,triangle,0,0,0,0,1,10,22,9,,,,,,,,,,,,140.62254824099364,140.62254824099364,140.62254824099364,140.62254824099364,140.62254824099364,140.62254824099364,140.62254824099364,140.62254824099364,140.62254824099364,140.62254824099364,a,0.6013406960119028,10,122,0,141.25635804998456,142.75822055299068,,,,,,,,,,,,,,,,91140,2022-11-21_14h01.53.163,vts_reward_expectancy_bt_OFFLINE,2022.2.4,60.01972860357194,
0,0,0,1,0,1,0,0,star ,circle,0,0,0,0,1,11,23,10,,,,,,,,,,,,143.25883996198536,143.25883996198536,143.25883996198536,143.25883996198536,143.25883996198536,143.25883996198536,143.25883996198536,143.25883996198536,143.25883996198536,143.25883996198536,a,0.9008747880288865,10,132,0,144.17655192999518,145.67804610700114,,,,,,,,,,,,,,,,91140,2022-11-21_14h01.53.163,vts_reward_expectancy_bt_OFFLINE,2022.2.4,60.01972860357194,
0,1,0,0,0,0,0,1,circle,star,0,0,0,0,2,0,24,5,,,,,,,,,,,,146.17861389098107,146.17861389098107,146.17861389098107,146.17861389098107,146.17861389098107,146.17861389098107,146.17861389098107,146.17861389098107,146.17861389098107,146.17861389098107,l,0.45662164804525673,10,142,0,146.6625322009786,148.16421249197447,,,,,,,,,,,,,,,,91140,2022-11-21_14h01.53.163,vts_reward_expectancy_bt_OFFLINE,2022.2.4,60.01972860357194,
0,1,0,0,0,0,1,0,circle,hexagon,0,0,0,0,2,1,25,4,,,,,,,,,,,,148.66461782398983,148.66461782398983,148.66461782398983,148.66461782398983,148.66461782398983,148.66461782398983,148.66461782398983,148.66461782398983,148.66461782398983,148.66461782398983,l,0.5124893970205449,1,143,0,149.19850794397644,150.70023125698208,,,,,,,,,,,,,,,,91140,2022-11-21_14h01.53.163,vts_reward_expectancy_bt_OFFLINE,2022.2.4,60.01972860357194,
0,0,1,0,1,0,0,0,hexagon,triangle,0,0,0,0,2,2,26,6,,,,,,,,,,,,151.20081252299133,151.20081252299133,151.20081252299133,151.20081252299133,151.20081252299133,151.20081252299133,151.20081252299133,151.20081252299133,151.20081252299133,151.20081252299133,a,0.7541675430256873,10,153,0,151.98482804300147,153.48660640398157,,,,,,,,,,,,,,,,91140,2022-11-21_14h01.53.163,vts_reward_expectancy_bt_OFFLINE,2022.2.4,60.01972860357194,
1,0,0,0,0,0,0,1,triangle,star,0,0,0,0,2,3,27,2,,,,,,,,,,,,153.98715320197516,153.98715320197516,153.98715320197516,153.98715320197516,153.98715320197516,153.98715320197516,153.98715320197516,153.98715320197516,153.98715320197516,153.98715320197516,l,0.6349573000334203,1,154,0,154.65452027498395,156.1562857509998,,,,,,,,,,,,,,,,91140,2022-11-21_14h01.53.163,vts_reward_expectancy_bt_OFFLINE,2022.2.4,60.01972860357194,
0,0,0,1,1,0,0,0,star,triangle,0,0,0,0,2,4,28,9,,,,,,,,,,,,156.65681535800104,156.65681535800104,156.65681535800104,156.65681535800104,156.65681535800104,156.65681535800104,156.65681535800104,156.65681535800104,156.65681535800104,156.65681535800104,a,0.44031751903821714,1,155,0,157.12391384798684,158.6256904049951,,,,,,,,,,,,,,,,91140,2022-11-21_14h01.53.163,vts_reward_expectancy_bt_OFFLINE,2022.2.4,60.01972860357194,
1,0,0,0,0,1,0,0,triangle,circle,0,0,0,0,2,5,29,0,,,,,,,,,,,,159.12615759699838,159.12615759699838,159.12615759699838,159.12615759699838,159.12615759699838,159.12615759699838,159.12615759699838,159.12615759699838,159.12615759699838,159.12615759699838,l,0.7052337380300742,10,165,0,159.86044158399454,161.36214213899802,,,,,,,,,,,,,,,,91140,2022-11-21_14h01.53.163,vts_reward_expectancy_bt_OFFLINE,2022.2.4,60.01972860357194,
0,0,0,1,0,0,1,0,star,hexagon,0,0,0,0,2,6,30,11,,,,,,,,,,,,161.86271746098646,161.86271746098646,161.86271746098646,161.86271746098646,161.86271746098646,161.86271746098646,161.86271746098646,161.86271746098646,161.86271746098646,161.86271746098646,a,0.5790818380191922,1,166,0,162.463238960976,163.9649484269903,,,,,,,,,,,,,,,,91140,2022-11-21_14h01.53.163,vts_reward_expectancy_bt_OFFLINE,2022.2.4,60.01972860357194,
0,0,0,1,0,1,0,0,star ,circle,0,0,0,0,2,7,31,10,,,,,,,,,,,,164.4654451609822,164.4654451609822,164.4654451609822,164.4654451609822,164.4654451609822,164.4654451609822,164.4654451609822,164.4654451609822,164.4654451609822,164.4654451609822,a,1.0141438150312752,1,167,0,165.49984347997815,167.00169137999183,,,,,,,,,,,,,,,,91140,2022-11-21_14h01.53.163,vts_reward_expectancy_bt_OFFLINE,2022.2.4,60.01972860357194,
1,0,0,0,0,0,1,0,triangle,hexagon,0,0,0,0,2,8,32,1,,,,,,,,,,,,167.50223082400043,167.50223082400043,167.50223082400043,167.50223082400043,167.50223082400043,167.50223082400043,167.50223082400043,167.50223082400043,167.50223082400043,167.50223082400043,l,0.6663160970201716,10,177,0,168.18623504397692,169.68803068099078,,,,,,,,,,,,,,,,91140,2022-11-21_14h01.53.163,vts_reward_expectancy_bt_OFFLINE,2022.2.4,60.01972860357194,
0,0,1,0,0,0,0,1,hexagon,star,0,0,0,0,2,9,33,8,,,,,,,,,,,,170.1884118389862,170.1884118389862,170.1884118389862,170.1884118389862,170.1884118389862,170.1884118389862,170.1884118389862,170.1884118389862,170.1884118389862,170.1884118389862,l,0.47642545102280565,1,178,0,170.68908038298832,172.19065091697848,,,,,,,,,,,,,,,,91140,2022-11-21_14h01.53.163,vts_reward_expectancy_bt_OFFLINE,2022.2.4,60.01972860357194,
0,0,1,0,0,1,0,0,hexagon,circle,0,0,0,0,2,10,34,7,,,,,,,,,,,,172.69115503897774,172.69115503897774,172.69115503897774,172.69115503897774,172.69115503897774,172.69115503897774,172.69115503897774,172.69115503897774,172.69115503897774,172.69115503897774,a,2.1143091300327796,10,188,0,174.82673953298945,176.3286495099892,,,,,,,,,,,,,,,,91140,2022-11-21_14h01.53.163,vts_reward_expectancy_bt_OFFLINE,2022.2.4,60.01972860357194,
0,1,0,0,1,0,0,0,circle,triangle,0,0,0,0,2,11,35,3,,,,,,,,,,,,176.82936100897496,176.82936100897496,176.82936100897496,176.82936100897496,176.82936100897496,176.82936100897496,176.82936100897496,176.82936100897496,176.82936100897496,176.82936100897496,a,0.652738204022171,1,189,0,177.51321427998482,179.01492858398706,,,,,,,,,,,,,,,,91140,2022-11-21_14h01.53.163,vts_reward_expectancy_bt_OFFLINE,2022.2.4,60.01972860357194,
0,0,0,1,0,1,0,0,star ,circle,0,0,0,0,3,0,36,10,,,,,,,,,,,,179.5154726979963,179.5154726979963,179.5154726979963,179.5154726979963,179.5154726979963,179.5154726979963,179.5154726979963,179.5154726979963,179.5154726979963,179.5154726979963,a,0.6007350440195296,1,190,0,180.13280954398215,181.63446558298892,,,,,,,,,,,,,,,,91140,2022-11-21_14h01.53.163,vts_reward_expectancy_bt_OFFLINE,2022.2.4,60.01972860357194,
0,0,1,0,0,0,0,1,hexagon,star,0,0,0,0,3,1,37,8,,,,,,,,,,,,182.1349447099783,182.1349447099783,182.1349447099783,182.1349447099783,182.1349447099783,182.1349447099783,182.1349447099783,182.1349447099783,182.1349447099783,182.1349447099783,l,0.45619044001796283,1,191,0,182.61901946298894,184.1203151679947,,,,,,,,,,,,,,,,91140,2022-11-21_14h01.53.163,vts_reward_expectancy_bt_OFFLINE,2022.2.4,60.01972860357194,
0,1,0,0,0,0,0,1,circle,star,0,0,0,0,3,2,38,5,,,,,,,,,,,,184.62106590499752,184.62106590499752,184.62106590499752,184.62106590499752,184.62106590499752,184.62106590499752,184.62106590499752,184.62106590499752,184.62106590499752,184.62106590499752,l,0.4217297520372085,1,192,0,185.0715140599932,186.5732264299877,,,,,,,,,,,,,,,,91140,2022-11-21_14h01.53.163,vts_reward_expectancy_bt_OFFLINE,2022.2.4,60.01972860357194,
1,0,0,0,0,0,0,1,triangle,star,0,0,0,0,3,3,39,2,,,,,,,,,,,,187.07382754600258,187.07382754600258,187.07382754600258,187.07382754600258,187.07382754600258,187.07382754600258,187.07382754600258,187.07382754600258,187.07382754600258,187.07382754600258,l,0.40020026604179293,10,202,0,187.49085597597877,188.99253961798968,,,,,,,,,,,,,,,,91140,2022-11-21_14h01.53.163,vts_reward_expectancy_bt_OFFLINE,2022.2.4,60.01972860357194,
0,0,0,1,1,0,0,0,star,triangle,0,0,0,0,3,4,40,9,,,,,,,,,,,,189.4931570009794,189.4931570009794,189.4931570009794,189.4931570009794,189.4931570009794,189.4931570009794,189.4931570009794,189.4931570009794,189.4931570009794,189.4931570009794,l,0.5902800310286693,1,203,0,190.11050306097604,191.61215833798633,,,,,,,,,,,,,,,,91140,2022-11-21_14h01.53.163,vts_reward_expectancy_bt_OFFLINE,2022.2.4,60.01972860357194,
1,0,0,0,0,1,0,0,triangle,circle,0,0,0,0,3,5,41,0,,,,,,,,,,,,192.11265537299914,192.11265537299914,192.11265537299914,192.11265537299914,192.11265537299914,192.11265537299914,192.11265537299914,192.11265537299914,192.11265537299914,192.11265537299914,a,0.5574549810262397,1,204,0,192.696561861987,194.19823769299546,,,,,,,,,,,,,,,,91140,2022-11-21_14h01.53.163,vts_reward_expectancy_bt_OFFLINE,2022.2.4,60.01972860357194,
1,0,0,0,0,0,1,0,triangle,hexagon,0,0,0,0,3,6,42,1,,,,,,,,,,,,194.6988756589999,194.6988756589999,194.6988756589999,194.6988756589999,194.6988756589999,194.6988756589999,194.6988756589999,194.6988756589999,194.6988756589999,194.6988756589999,a,0.5253374950261787,1,205,0,195.24953746798565,196.75105608199374,,,,,,,,,,,,,,,,91140,2022-11-21_14h01.53.163,vts_reward_expectancy_bt_OFFLINE,2022.2.4,60.01972860357194,
0,0,1,0,1,0,0,0,hexagon,triangle,0,0,0,0,3,7,43,6,,,,,,,,,,,,197.25182982999831,197.25182982999831,197.25182982999831,197.25182982999831,197.25182982999831,197.25182982999831,197.25182982999831,197.25182982999831,197.25182982999831,197.25182982999831,l,0.8869671230204403,1,206,0,198.16946182699758,199.67114721098915,,,,,,,,,,,,,,,,91140,2022-11-21_14h01.53.163,vts_reward_expectancy_bt_OFFLINE,2022.2.4,60.01972860357194,
0,0,0,1,0,0,1,0,star,hexagon,0,0,0,0,3,8,44,11,,,,,,,,,,,,200.17161528900033,200.17161528900033,200.17161528900033,200.17161528900033,200.17161528900033,200.17161528900033,200.17161528900033,200.17161528900033,200.17161528900033,200.17161528900033,a,0.7346446730371099,1,207,0,200.93910386698553,202.44067208099295,,,,,,,,,,,,,,,,91140,2022-11-21_14h01.53.163,vts_reward_expectancy_bt_OFFLINE,2022.2.4,60.01972860357194,
0,0,1,0,0,1,0,0,hexagon,circle,0,0,0,0,3,9,45,7,,,,,,,,,,,,202.94138981599826,202.94138981599826,202.94138981599826,202.94138981599826,202.94138981599826,202.94138981599826,202.94138981599826,202.94138981599826,202.94138981599826,202.94138981599826,a,0.4180621790292207,10,217,0,203.39178905298468,204.8935006489919,,,,,,,,,,,,,,,,91140,2022-11-21_14h01.53.163,vts_reward_expectancy_bt_OFFLINE,2022.2.4,60.01972860357194,
0,1,0,0,1,0,0,0,circle,triangle,0,0,0,0,3,10,46,3,,,,,,,,,,,,205.39397966698743,205.39397966698743,205.39397966698743,205.39397966698743,205.39397966698743,205.39397966698743,205.39397966698743,205.39397966698743,205.39397966698743,205.39397966698743,a,0.6083884850086179,10,227,0,206.02808610798093,207.52958101200056,,,,,,,,,,,,,,,,91140,2022-11-21_14h01.53.163,vts_reward_expectancy_bt_OFFLINE,2022.2.4,60.01972860357194,
0,1,0,0,0,0,1,0,circle,hexagon,0,0,0,0,3,11,47,4,,,,,,,,,,,,208.0301413470006,208.0301413470006,208.0301413470006,208.0301413470006,208.0301413470006,208.0301413470006,208.0301413470006,208.0301413470006,208.0301413470006,208.0301413470006,l,0.43544521305011585,1,228,0,208.49731694697402,209.99909408498206,,,,,,,,,,,,,,,,91140,2022-11-21_14h01.53.163,vts_reward_expectancy_bt_OFFLINE,2022.2.4,60.01972860357194,
0,0,0,1,0,1,0,0,star ,circle,1,0,1,0,0,0,0,10,,,,,,,,,,,,215.96222446399042,215.96222446399042,215.96222446399042,215.96222446399042,215.96222446399042,215.96222446399042,215.96222446399042,215.96222446399042,215.96222446399042,215.96222446399042,a,0.9422793280391488,1,229,1,216.92335914698197,218.42501718498534,,,,,,,,,,,,,,,,91140,2022-11-21_14h01.53.163,vts_reward_expectancy_bt_OFFLINE,2022.2.4,60.01972860357194,
0,1,0,0,0,0,0,1,circle,star,1,0,1,0,0,1,1,5,,,,,,,,,,,,218.92564692598535,218.92564692598535,218.92564692598535,218.92564692598535,218.92564692598535,218.92564692598535,218.92564692598535,218.92564692598535,218.92564692598535,218.92564692598535,l,0.7802794420276769,1,230,1,219.72647310598404,221.22798775599222,,,,,,,,,,,,,,,,91140,2022-11-21_14h01.53.163,vts_reward_expectancy_bt_OFFLINE,2022.2.4,60.01972860357194,
0,0,1,0,0,0,0,1,hexagon,star,1,0,1,0,0,2,2,8,,,,,,,,,,,,221.72866612300277,221.72866612300277,221.72866612300277,221.72866612300277,221.72866612300277,221.72866612300277,221.72866612300277,221.72866612300277,221.72866612300277,221.72866612300277,l,0.7001800200087018,1,231,1,222.44610535597894,223.94781815598253,,,,,,,,,,,,,,,,91140,2022-11-21_14h01.53.163,vts_reward_expectancy_bt_OFFLINE,2022.2.4,60.01972860357194,
1,0,0,0,0,1,0,0,triangle,circle,1,0,1,0,0,3,3,0,,,,,,,,,,,,224.448252741975,224.448252741975,224.448252741975,224.448252741975,224.448252741975,224.448252741975,224.448252741975,224.448252741975,224.448252741975,224.448252741975,l,0.8496421570016537,1,232,1,225.3158644310024,226.81764098099666,,,,,,,,,,,,,,,,91140,2022-11-21_14h01.53.163,vts_reward_expectancy_bt_OFFLINE,2022.2.4,60.01972860357194,
0,0,0,1,1,0,0,0,star,triangle,1,0,1,0,0,4,4,9,,,,,,,,,,,,227.31815161998384,227.31815161998384,227.31815161998384,227.31815161998384,227.31815161998384,227.31815161998384,227.31815161998384,227.31815161998384,227.31815161998384,227.31815161998384,a,0.5432605820242316,1,233,1,227.88547873697826,229.38712013798067,,,,,,,,,,,,,,,,91140,2022-11-21_14h01.53.163,vts_reward_expectancy_bt_OFFLINE,2022.2.4,60.01972860357194,
0,0,1,0,1,0,0,0,hexagon,triangle,1,0,1,0,0,5,5,6,,,,,,,,,,,,229.8876425389899,229.8876425389899,229.8876425389899,229.8876425389899,229.8876425389899,229.8876425389899,229.8876425389899,229.8876425389899,229.8876425389899,229.8876425389899,l,0.5063050750468392,1,234,1,230.42151836198173,231.92319351798506,,,,,,,,,,,,,,,,91140,2022-11-21_14h01.53.163,vts_reward_expectancy_bt_OFFLINE,2022.2.4,60.01972860357194,
1,0,0,0,0,0,1,0,triangle,hexagon,1,0,1,0,0,6,6,1,,,,,,,,,,,,232.42389529099455,232.42389529099455,232.42389529099455,232.42389529099455,232.42389529099455,232.42389529099455,232.42389529099455,232.42389529099455,232.42389529099455,232.42389529099455,a,0.5572112720401492,10,244,1,233.00774046499282,234.50940944897593,,,,,,,,,,,,,,,,91140,2022-11-21_14h01.53.163,vts_reward_expectancy_bt_OFFLINE,2022.2.4,60.01972860357194,
1,0,0,0,0,0,0,1,triangle,star,1,0,1,0,0,7,7,2,,,,,,,,,,,,235.0101392279903,235.0101392279903,235.0101392279903,235.0101392279903,235.0101392279903,235.0101392279903,235.0101392279903,235.0101392279903,235.0101392279903,235.0101392279903,a,0.4115842420142144,10,254,1,235.44384133597487,236.9453671319934,,,,,,,,,,,,,,,,91140,2022-11-21_14h01.53.163,vts_reward_expectancy_bt_OFFLINE,2022.2.4,60.01972860357194,
0,0,1,0,0,1,0,0,hexagon,circle,1,0,1,0,0,8,8,7,,,,,,,,,,,,237.4459703140019,237.4459703140019,237.4459703140019,237.4459703140019,237.4459703140019,237.4459703140019,237.4459703140019,237.4459703140019,237.4459703140019,237.4459703140019,a,0.7780579630343709,1,255,1,238.2468870379962,239.7486636370013,,,,,,,,,,,,,,,,91140,2022-11-21_14h01.53.163,vts_reward_expectancy_bt_OFFLINE,2022.2.4,60.01972860357194,
0,1,0,0,1,0,0,0,circle,triangle,1,0,1,0,0,9,9,3,,,,,,,,,,,,240.24913641699823,240.24913641699823,240.24913641699823,240.24913641699823,240.24913641699823,240.24913641699823,240.24913641699823,240.24913641699823,240.24913641699823,240.24913641699823,l,0.4503428200259805,10,265,1,240.7163095389842,242.2178647169785,,,,,,,,,,,,,,,,91140,2022-11-21_14h01.53.163,vts_reward_expectancy_bt_OFFLINE,2022.2.4,60.01972860357194,
0,1,0,0,0,0,1,0,circle,hexagon,1,0,1,0,0,10,10,4,,,,,,,,,,,,242.71841050998773,242.71841050998773,242.71841050998773,242.71841050998773,242.71841050998773,242.71841050998773,242.71841050998773,242.71841050998773,242.71841050998773,242.71841050998773,l,1.3342238090117462,1,266,1,244.07004255999345,245.57172577397432,,,,,,,,,,,,,,,,91140,2022-11-21_14h01.53.163,vts_reward_expectancy_bt_OFFLINE,2022.2.4,60.01972860357194,
0,0,0,1,0,0,1,0,star,hexagon,1,0,1,0,0,11,11,11,,,,,,,,,,,,246.07230618598987,246.07230618598987,246.07230618598987,246.07230618598987,246.07230618598987,246.07230618598987,246.07230618598987,246.07230618598987,246.07230618598987,246.07230618598987,l,0.5097289240220562,1,267,1,246.60609258699697,248.10784951699316,,,,,,,,,,,,,,,,91140,2022-11-21_14h01.53.163,vts_reward_expectancy_bt_OFFLINE,2022.2.4,60.01972860357194,
1,0,0,0,0,0,1,0,triangle,hexagon,1,0,1,0,1,0,12,1,,,,,,,,,,,,248.6082847279904,248.6082847279904,248.6082847279904,248.6082847279904,248.6082847279904,248.6082847279904,248.6082847279904,248.6082847279904,248.6082847279904,248.6082847279904,l,0.41662351303966716,10,277,1,249.0420628299762,250.5437664539786,,,,,,,,,,,,,,,,91140,2022-11-21_14h01.53.163,vts_reward_expectancy_bt_OFFLINE,2022.2.4,60.01972860357194,
0,1,0,0,1,0,0,0,circle,triangle,1,0,1,0,1,1,13,3,,,,,,,,,,,,251.04438862099778,251.04438862099778,251.04438862099778,251.04438862099778,251.04438862099778,251.04438862099778,251.04438862099778,251.04438862099778,251.04438862099778,251.04438862099778,l,0.6236219300189987,10,287,1,251.69503981797607,253.19672549597453,,,,,,,,,,,,,,,,91140,2022-11-21_14h01.53.163,vts_reward_expectancy_bt_OFFLINE,2022.2.4,60.01972860357194,
1,0,0,0,0,1,0,0,triangle,circle,1,0,1,0,1,2,14,0,,,,,,,,,,,,253.69723400397925,253.69723400397925,253.69723400397925,253.69723400397925,253.69723400397925,253.69723400397925,253.69723400397925,253.69723400397925,253.69723400397925,253.69723400397925,a,0.4680809560522903,10,297,1,254.19774286198663,255.69945427199127,,,,,,,,,,,,,,,,91140,2022-11-21_14h01.53.163,vts_reward_expectancy_bt_OFFLINE,2022.2.4,60.01972860357194,
0,0,0,1,0,0,1,0,star,hexagon,1,0,1,0,1,3,15,11,,,,,,,,,,,,256.19996228898526,256.19996228898526,256.19996228898526,256.19996228898526,256.19996228898526,256.19996228898526,256.19996228898526,256.19996228898526,256.19996228898526,256.19996228898526,a,0.8687219160201494,1,298,1,257.10107364997384,258.6024534479948,,,,,,,,,,,,,,,,91140,2022-11-21_14h01.53.163,vts_reward_expectancy_bt_OFFLINE,2022.2.4,60.01972860357194,
0,0,1,0,0,0,0,1,hexagon,star,1,0,1,0,1,4,16,8,,,,,,,,,,,,259.10304623897537,259.10304623897537,259.10304623897537,259.10304623897537,259.10304623897537,259.10304623897537,259.10304623897537,259.10304623897537,259.10304623897537,259.10304623897537,l,0.9020737160462886,1,299,1,260.037598261988,261.53928145597456,,,,,,,,,,,,,,,,91140,2022-11-21_14h01.53.163,vts_reward_expectancy_bt_OFFLINE,2022.2.4,60.01972860357194,
0,0,0,1,1,0,0,0,star,triangle,1,0,1,0,1,5,17,9,,,,,,,,,,,,262.0398207299877,262.0398207299877,262.0398207299877,262.0398207299877,262.0398207299877,262.0398207299877,262.0398207299877,262.0398207299877,262.0398207299877,262.0398207299877,a,0.41780929203378037,10,309,1,262.49023984599626,263.99204977598856,,,,,,,,,,,,,,,,91140,2022-11-21_14h01.53.163,vts_reward_expectancy_bt_OFFLINE,2022.2.4,60.01972860357194,
0,0,1,0,0,1,0,0,hexagon,circle,1,0,1,0,1,6,18,7,,,,,,,,,,,,264.49253006998333,264.49253006998333,264.49253006998333,264.49253006998333,264.49253006998333,264.49253006998333,264.49253006998333,264.49253006998333,264.49253006998333,264.49253006998333,a,0.7198451080184896,1,310,1,265.2432229029946,266.74496974400245,,,,,,,,,,,,,,,,91140,2022-11-21_14h01.53.163,vts_reward_expectancy_bt_OFFLINE,2022.2.4,60.01972860357194,
0,1,0,0,0,0,1,0,circle,hexagon,1,0,1,0,1,7,19,4,,,,,,,,,,,,267.24546799398377,267.24546799398377,267.24546799398377,267.24546799398377,267.24546799398377,267.24546799398377,267.24546799398377,267.24546799398377,267.24546799398377,267.24546799398377,l,0.9260454620234668,10,320,1,268.19657922297483,269.69820297899423,,,,,,,,,,,,,,,,91140,2022-11-21_14h01.53.163,vts_reward_expectancy_bt_OFFLINE,2022.2.4,60.01972860357194,
0,0,1,0,1,0,0,0,hexagon,triangle,1,0,1,0,1,8,20,6,,,,,,,,,,,,270.1988512209791,270.1988512209791,270.1988512209791,270.1988512209791,270.1988512209791,270.1988512209791,270.1988512209791,270.1988512209791,270.1988512209791,270.1988512209791,a,0.6171923400252126,10,330,1,270.8329648869985,272.33453131097485,,,,,,,,,,,,,,,,91140,2022-11-21_14h01.53.163,vts_reward_expectancy_bt_OFFLINE,2022.2.4,60.01972860357194,
1,0,0,0,0,0,0,1,triangle,star,1,0,1,0,1,9,21,2,,,,,,,,,,,,272.8350245170004,272.8350245170004,272.8350245170004,272.8350245170004,272.8350245170004,272.8350245170004,272.8350245170004,272.8350245170004,272.8350245170004,272.8350245170004,a,1.5022304860176519,10,340,1,274.37012791697634,275.8717805999913,,,,,,,,,,,,,,,,91140,2022-11-21_14h01.53.163,vts_reward_expectancy_bt_OFFLINE,2022.2.4,60.01972860357194,
0,1,0,0,0,0,0,1,circle,star,1,0,1,0,1,10,22,5,,,,,,,,,,,,276.37239982999745,276.37239982999745,276.37239982999745,276.37239982999745,276.37239982999745,276.37239982999745,276.37239982999745,276.37239982999745,276.37239982999745,276.37239982999745,l,0.743112539028516,10,350,1,277.14002228798927,278.6415573080012,,,,,,,,,,,,,,,,91140,2022-11-21_14h01.53.163,vts_reward_expectancy_bt_OFFLINE,2022.2.4,60.01972860357194,
0,0,0,1,0,1,0,0,star ,circle,1,0,1,0,1,11,23,10,,,,,,,,,,,,279.1418906809995,279.1418906809995,279.1418906809995,279.1418906809995,279.1418906809995,279.1418906809995,279.1418906809995,279.1418906809995,279.1418906809995,279.1418906809995,l,0.47090035004657693,1,351,1,279.64247719198465,281.144303381996,,,,,,,,,,,,,,,,91140,2022-11-21_14h01.53.163,vts_reward_expectancy_bt_OFFLINE,2022.2.4,60.01972860357194,
0,0,0,1,0,1,0,0,star ,circle,1,0,1,0,2,0,24,10,,,,,,,,,,,,281.6447521179798,281.6447521179798,281.6447521179798,281.6447521179798,281.6447521179798,281.6447521179798,281.6447521179798,281.6447521179798,281.6447521179798,281.6447521179798,a,0.5116063940222375,1,352,1,282.1785964219889,283.68043560298975,,,,,,,,,,,,,,,,91140,2022-11-21_14h01.53.163,vts_reward_expectancy_bt_OFFLINE,2022.2.4,60.01972860357194,
0,0,1,0,0,1,0,0,hexagon,circle,1,0,1,0,2,1,25,7,,,,,,,,,,,,284.1812443189847,284.1812443189847,284.1812443189847,284.1812443189847,284.1812443189847,284.1812443189847,284.1812443189847,284.1812443189847,284.1812443189847,284.1812443189847,l,0.48393988303723745,1,353,1,284.6983384399791,286.19978928699857,,,,,,,,,,,,,,,,91140,2022-11-21_14h01.53.163,vts_reward_expectancy_bt_OFFLINE,2022.2.4,60.01972860357194,
0,0,0,1,1,0,0,0,star,triangle,1,0,1,0,2,2,26,9,,,,,,,,,,,,286.7002867629926,286.7002867629926,286.7002867629926,286.7002867629926,286.7002867629926,286.7002867629926,286.7002867629926,286.7002867629926,286.7002867629926,286.7002867629926,l,1.3401548800466117,1,354,1,288.06844476997503,289.5702112519939,,,,,,,,,,,,,,,,91140,2022-11-21_14h01.53.163,vts_reward_expectancy_bt_OFFLINE,2022.2.4,60.01972860357194,
0,0,1,0,1,0,0,0,hexagon,triangle,1,0,1,0,2,3,27,6,,,,,,,,,,,,290.07072742897435,290.07072742897435,290.07072742897435,290.07072742897435,290.07072742897435,290.07072742897435,290.07072742897435,290.07072742897435,290.07072742897435,290.07072742897435,l,0.5117320360150188,1,355,1,290.6045578059857,292.1062146239856,,,,,,,,,,,,,,,,91140,2022-11-21_14h01.53.163,vts_reward_expectancy_bt_OFFLINE,2022.2.4,60.01972860357194,
0,1,0,0,0,0,1,0,circle,hexagon,1,0,1,0,2,4,28,4,,,,,,,,,,,,292.6069605779776,292.6069605779776,292.6069605779776,292.6069605779776,292.6069605779776,292.6069605779776,292.6069605779776,292.6069605779776,292.6069605779776,292.6069605779776,a,0.6868325990217272,1,356,1,293.32422487597796,294.8259365699778,,,,,,,,,,,,,,,,91140,2022-11-21_14h01.53.163,vts_reward_expectancy_bt_OFFLINE,2022.2.4,60.01972860357194,
1,0,0,0,0,0,0,1,triangle,star,1,0,1,0,2,5,29,2,,,,,,,,,,,,295.32657686198945,295.32657686198945,295.32657686198945,295.32657686198945,295.32657686198945,295.32657686198945,295.32657686198945,295.32657686198945,295.32657686198945,295.32657686198945,l,1.1068736530432943,1,357,1,296.46099822898395,297.96266521597863,,,,,,,,,,,,,,,,91140,2022-11-21_14h01.53.163,vts_reward_expectancy_bt_OFFLINE,2022.2.4,60.01972860357194,
1,0,0,0,0,1,0,0,triangle,circle,1,0,1,0,2,6,30,0,,,,,,,,,,,,298.46325538799283,298.46325538799283,298.46325538799283,298.46325538799283,298.46325538799283,298.46325538799283,298.46325538799283,298.46325538799283,298.46325538799283,298.46325538799283,a,0.6360101820027921,10,367,1,299.1306664540025,300.63256815599743,,,,,,,,,,,,,,,,91140,2022-11-21_14h01.53.163,vts_reward_expectancy_bt_OFFLINE,2022.2.4,60.01972860357194,
1,0,0,0,0,0,1,0,triangle,hexagon,1,0,1,0,2,7,31,1,,,,,,,,,,,,301.1328300359892,301.1328300359892,301.1328300359892,301.1328300359892,301.1328300359892,301.1328300359892,301.1328300359892,301.1328300359892,301.1328300359892,301.1328300359892,a,0.5191160750109702,10,377,1,301.6837924879801,303.1851847789949,303.1851847789949,,,,,,,,,,,,,,,91140,2022-11-21_14h01.53.163,vts_reward_expectancy_bt_OFFLINE,2022.2.4,60.01972860357194,
0,0,0,1,0,0,1,0,star,hexagon,1,0,1,0,2,8,32,11,,,,,,,,,,,,303.6858118090022,303.6858118090022,303.6858118090022,303.6858118090022,303.6858118090022,303.6858118090022,303.6858118090022,303.6858118090022,303.6858118090022,303.6858118090022,l,0.8814404490403831,10,387,1,304.5868416489975,306.08835883499705,,,,,,,,,,,,,,,,91140,2022-11-21_14h01.53.163,vts_reward_expectancy_bt_OFFLINE,2022.2.4,60.01972860357194,
0,1,0,0,1,0,0,0,circle,triangle,1,0,1,0,2,9,33,3,,,,,,,,,,,,306.5889716029924,306.5889716029924,306.5889716029924,306.5889716029924,306.5889716029924,306.5889716029924,306.5889716029924,306.5889716029924,306.5889716029924,306.5889716029924,l,0.5542837440443691,1,388,1,307.17293912699097,308.67452422197675,,,,,,,,,,,,,,,,91140,2022-11-21_14h01.53.163,vts_reward_expectancy_bt_OFFLINE,2022.2.4,60.01972860357194,
0,0,1,0,0,0,0,1,hexagon,star,1,0,1,0,2,10,34,8,,,,,,,,,,,,309.1752204730001,309.1752204730001,309.1752204730001,309.1752204730001,309.1752204730001,309.1752204730001,309.1752204730001,309.1752204730001,309.1752204730001,309.1752204730001,a,0.567584397009341,10,398,1,309.7757839669939,311.2772910959902,,,,,,,,,,,,,,,,91140,2022-11-21_14h01.53.163,vts_reward_expectancy_bt_OFFLINE,2022.2.4,60.01972860357194,
0,1,0,0,0,0,0,1,circle,star,1,0,1,0,2,11,35,5,,,,,,,,,,,,311.7779737309902,311.7779737309902,311.7779737309902,311.7779737309902,311.7779737309902,311.7779737309902,311.7779737309902,311.7779737309902,311.7779737309902,311.7779737309902,a,0.506819013011409,10,408,1,312.31199607497547,313.81349974600016,,,,,,,,,,,,,,,,91140,2022-11-21_14h01.53.163,vts_reward_expectancy_bt_OFFLINE,2022.2.4,60.01972860357194,
1,0,0,0,0,0,0,1,triangle,star,1,0,1,0,3,0,36,2,,,,,,,,,,,,314.31423557997914,314.31423557997914,314.31423557997914,314.31423557997914,314.31423557997914,314.31423557997914,314.31423557997914,314.31423557997914,314.31423557997914,314.31423557997914,a,0.3899129330238793,1,409,1,314.7311909569835,316.2331523069879,,,,,,,,,,,,,,,,91140,2022-11-21_14h01.53.163,vts_reward_expectancy_bt_OFFLINE,2022.2.4,60.01972860357194,
0,1,0,0,1,0,0,0,circle,triangle,1,0,1,0,3,1,37,3,,,,,,,,,,,,316.73344510397874,316.73344510397874,316.73344510397874,316.73344510397874,316.73344510397874,316.73344510397874,316.73344510397874,316.73344510397874,316.73344510397874,316.73344510397874,l,0.49047080901800655,1,410,1,317.25066543597495,318.75247955697705,,,,,,,,,,,,,,,,91140,2022-11-21_14h01.53.163,vts_reward_expectancy_bt_OFFLINE,2022.2.4,60.01972860357194,
0,1,0,0,0,0,0,1,circle,star,1,0,1,0,3,2,38,5,,,,,,,,,,,,319.2528801659937,319.2528801659937,319.2528801659937,319.2528801659937,319.2528801659937,319.2528801659937,319.2528801659937,319.2528801659937,319.2528801659937,319.2528801659937,l,1.1327119020279497,1,411,1,320.40408286100137,321.90580203497666,,,,,,,,,,,,,,,,91140,2022-11-21_14h01.53.163,vts_reward_expectancy_bt_OFFLINE,2022.2.4,60.01972860357194,
0,0,0,1,1,0,0,0,star,triangle,1,0,1,0,3,3,39,9,,,,,,,,,,,,322.4066343299928,322.4066343299928,322.4066343299928,322.4066343299928,322.4066343299928,322.4066343299928,322.4066343299928,322.4066343299928,322.4066343299928,322.4066343299928,a,0.465482307045022,10,421,1,322.8903495299746,324.3918330629822,,,,,,,,,,,,,,,,91140,2022-11-21_14h01.53.163,vts_reward_expectancy_bt_OFFLINE,2022.2.4,60.01972860357194,
1,0,0,0,0,0,1,0,triangle,hexagon,1,0,1,0,3,4,40,1,,,,,,,,,,,,324.8924132389948,324.8924132389948,324.8924132389948,324.8924132389948,324.8924132389948,324.8924132389948,324.8924132389948,324.8924132389948,324.8924132389948,324.8924132389948,a,0.86923740702332,10,431,1,325.79342159998487,327.2951012799749,,,,,,,,,,,,,,,,91140,2022-11-21_14h01.53.163,vts_reward_expectancy_bt_OFFLINE,2022.2.4,60.01972860357194,
1,0,0,0,0,1,0,0,triangle,circle,1,0,1,0,3,5,41,0,,,,,,,,,,,,327.79562920398894,327.79562920398894,327.79562920398894,327.79562920398894,327.79562920398894,327.79562920398894,327.79562920398894,327.79562920398894,327.79562920398894,327.79562920398894,a,0.38500199402915314,10,441,1,328.2127545319963,329.71459231799236,,,,,,,,,,,,,,,,91140,2022-11-21_14h01.53.163,vts_reward_expectancy_bt_OFFLINE,2022.2.4,60.01972860357194,
0,0,1,0,1,0,0,0,hexagon,triangle,1,0,1,0,3,6,42,6,,,,,,,,,,,,330.21504588998505,330.21504588998505,330.21504588998505,330.21504588998505,330.21504588998505,330.21504588998505,330.21504588998505,330.21504588998505,330.21504588998505,330.21504588998505,l,0.5876182360225357,1,442,1,330.83232216897886,332.33383227698505,,,,,,,,,,,,,,,,91140,2022-11-21_14h01.53.163,vts_reward_expectancy_bt_OFFLINE,2022.2.4,60.01972860357194,
0,1,0,0,0,0,1,0,circle,hexagon,1,0,1,0,3,7,43,4,,,,,,,,,,,,332.834603780997,332.834603780997,332.834603780997,332.834603780997,332.834603780997,332.834603780997,332.834603780997,332.834603780997,332.834603780997,332.834603780997,l,0.9601435800432228,10,452,1,333.8191435280023,335.32055497099645,,,,,,,,,,,,,,,,91140,2022-11-21_14h01.53.163,vts_reward_expectancy_bt_OFFLINE,2022.2.4,60.01972860357194,
0,0,0,1,0,1,0,0,star ,circle,1,0,1,0,3,8,44,10,,,,,,,,,,,,335.82124760499573,335.82124760499573,335.82124760499573,335.82124760499573,335.82124760499573,335.82124760499573,335.82124760499573,335.82124760499573,335.82124760499573,335.82124760499573,a,0.8534358480246738,10,462,1,336.7052996259881,338.20699345399044,,,,,,,,,,,,,,,,91140,2022-11-21_14h01.53.163,vts_reward_expectancy_bt_OFFLINE,2022.2.4,60.01972860357194,
0,0,1,0,0,1,0,0,hexagon,circle,1,0,1,0,3,9,45,7,,,,,,,,,,,,338.70760948897805,338.70760948897805,338.70760948897805,338.70760948897805,338.70760948897805,338.70760948897805,338.70760948897805,338.70760948897805,338.70760948897805,338.70760948897805,a,0.6577671230188571,1,463,1,339.3916044579819,340.89329826799803,,,,,,,,,,,,,,,,91140,2022-11-21_14h01.53.163,vts_reward_expectancy_bt_OFFLINE,2022.2.4,60.01972860357194,
0,0,1,0,0,0,0,1,hexagon,star,1,0,1,0,3,10,46,8,,,,,,,,,,,,341.3940293729829,341.3940293729829,341.3940293729829,341.3940293729829,341.3940293729829,341.3940293729829,341.3940293729829,341.3940293729829,341.3940293729829,341.3940293729829,a,0.579630401043687,10,473,1,341.99475887898006,343.49630611998145,,,,,,,,,,,,,,,,91140,2022-11-21_14h01.53.163,vts_reward_expectancy_bt_OFFLINE,2022.2.4,60.01972860357194,
0,0,0,1,0,0,1,0,star,hexagon,1,0,1,0,3,11,47,11,,,,,,,,,,,,343.9969342519762,343.9969342519762,343.9969342519762,343.9969342519762,343.9969342519762,343.9969342519762,343.9969342519762,343.9969342519762,343.9969342519762,343.9969342519762,l,0.4513728130259551,10,483,1,344.4806176669954,345.98244743800024,,,,,,,,,,,,,,,,91140,2022-11-21_14h01.53.163,vts_reward_expectancy_bt_OFFLINE,2022.2.4,60.01972860357194,
0,1,0,0,0,0,0,1,circle,star,2,0,2,0,0,0,0,5,,,,,,,,,,,,350.96136137799476,350.96136137799476,350.96136137799476,350.96136137799476,350.96136137799476,350.96136137799476,350.96136137799476,350.96136137799476,350.96136137799476,350.96136137799476,l,1.0700997370295227,10,493,2,352.0555454749847,353.55731952399947,,,,,,,,,,,,,,,,91140,2022-11-21_14h01.53.163,vts_reward_expectancy_bt_OFFLINE,2022.2.4,60.01972860357194,
0,1,0,0,1,0,0,0,circle,triangle,2,0,2,0,0,1,1,3,,,,,,,,,,,,354.05783922597766,354.05783922597766,354.05783922597766,354.05783922597766,354.05783922597766,354.05783922597766,354.05783922597766,354.05783922597766,354.05783922597766,354.05783922597766,l,0.6406110090319999,10,503,2,354.72518010099884,356.2269386179978,,,,,,,,,,,,,,,,91140,2022-11-21_14h01.53.163,vts_reward_expectancy_bt_OFFLINE,2022.2.4,60.01972860357194,
1,0,0,0,0,1,0,0,triangle,circle,2,0,2,0,0,2,2,0,,,,,,,,,,,,356.7275772089779,356.7275772089779,356.7275772089779,356.7275772089779,356.7275772089779,356.7275772089779,356.7275772089779,356.7275772089779,356.7275772089779,356.7275772089779,a,0.434450849017594,1,504,2,357.19471133398474,358.696456990001,,,,,,,,,,,,,,,,91140,2022-11-21_14h01.53.163,vts_reward_expectancy_bt_OFFLINE,2022.2.4,60.01972860357194,
0,0,1,0,0,0,0,1,hexagon,star,2,0,2,0,0,3,3,8,,,,,,,,,,,,359.1970042769972,359.1970042769972,359.1970042769972,359.1970042769972,359.1970042769972,359.1970042769972,359.1970042769972,359.1970042769972,359.1970042769972,359.1970042769972,l,0.9472919630352408,1,505,2,360.16473956700065,361.66629459298565,,,,,,,,,,,,,,,,91140,2022-11-21_14h01.53.163,vts_reward_expectancy_bt_OFFLINE,2022.2.4,60.01972860357194,
1,0,0,0,0,0,0,1,triangle,star,2,0,2,0,0,4,4,2,,,,,,,,,,,,362.1669148009969,362.1669148009969,362.1669148009969,362.1669148009969,362.1669148009969,362.1669148009969,362.1669148009969,362.1669148009969,362.1669148009969,362.1669148009969,a,1.116627238021465,1,506,2,363.3016281139862,364.80315682900255,,,,,,,,,,,,,,,,91140,2022-11-21_14h01.53.163,vts_reward_expectancy_bt_OFFLINE,2022.2.4,60.01972860357194,
1,0,0,0,0,0,1,0,triangle,hexagon,2,0,2,0,0,5,5,1,,,,,,,,,,,,365.3035937109962,365.3035937109962,365.3035937109962,365.3035937109962,365.3035937109962,365.3035937109962,365.3035937109962,365.3035937109962,365.3035937109962,365.3035937109962,l,0.8808074410189874,10,516,2,366.20470764199854,367.70649319599033,,,,,,,,,,,,,,,,91140,2022-11-21_14h01.53.163,vts_reward_expectancy_bt_OFFLINE,2022.2.4,60.01972860357194,
0,0,0,1,0,0,1,0,star,hexagon,2,0,2,0,0,6,6,11,,,,,,,,,,,,368.2069592339976,368.2069592339976,368.2069592339976,368.2069592339976,368.2069592339976,368.2069592339976,368.2069592339976,368.2069592339976,368.2069592339976,368.2069592339976,a,1.2418120250222273,10,526,2,369.47507239697734,370.9766527710017,,,,,,,,,,,,,,,,91140,2022-11-21_14h01.53.163,vts_reward_expectancy_bt_OFFLINE,2022.2.4,60.01972860357194,
0,0,1,0,1,0,0,0,hexagon,triangle,2,0,2,0,0,7,7,6,,,,,,,,,,,,371.47718368898495,371.47718368898495,371.47718368898495,371.47718368898495,371.47718368898495,371.47718368898495,371.47718368898495,371.47718368898495,371.47718368898495,371.47718368898495,l,2.043219975050306,10,536,2,373.546208122978,375.04780261497945,,,,,,,,,,,,,,,,91140,2022-11-21_14h01.53.163,vts_reward_expectancy_bt_OFFLINE,2022.2.4,60.01972860357194,
0,0,1,0,0,1,0,0,hexagon,circle,2,0,2,0,0,8,8,7,,,,,,,,,,,,375.548280811985,375.548280811985,375.548280811985,375.548280811985,375.548280811985,375.548280811985,375.548280811985,375.548280811985,375.548280811985,375.548280811985,a,1.6736343610100448,1,537,2,377.25041137999506,378.75199983399943,,,,,,,,,,,,,,,,91140,2022-11-21_14h01.53.163,vts_reward_expectancy_bt_OFFLINE,2022.2.4,60.01972860357194,
0,0,0,1,1,0,0,0,star,triangle,2,0,2,0,0,9,9,9,,,,,,,,,,,,379.25236803200096,379.25236803200096,379.25236803200096,379.25236803200096,379.25236803200096,379.25236803200096,379.25236803200096,379.25236803200096,379.25236803200096,379.25236803200096,a,1.9964051310380455,10,547,2,381.2714123619953,382.7729573469842,,,,,,,,,,,,,,,,91140,2022-11-21_14h01.53.163,vts_reward_expectancy_bt_OFFLINE,2022.2.4,60.01972860357194,
0,1,0,0,0,0,1,0,circle,hexagon,2,0,2,0,0,10,10,4,,,,,,,,,,,,383.27347670297604,383.27347670297604,383.27347670297604,383.27347670297604,383.27347670297604,383.27347670297604,383.27347670297604,383.27347670297604,383.27347670297604,383.27347670297604,a,3.4318011110299267,1,548,2,386.7273209229752,388.229030410992,,,,,,,,,,,,,,,,91140,2022-11-21_14h01.53.163,vts_reward_expectancy_bt_OFFLINE,2022.2.4,60.01972860357194,
0,0,0,1,0,1,0,0,star ,circle,2,0,2,0,0,11,11,10,,,,,,,,,,,,388.72951126800035,388.72951126800035,388.72951126800035,388.72951126800035,388.72951126800035,388.72951126800035,388.72951126800035,388.72951126800035,388.72951126800035,388.72951126800035,a,1.2388159010442905,1,549,2,389.99765178898815,391.4993864419812,,,,,,,,,,,,,,,,91140,2022-11-21_14h01.53.163,vts_reward_expectancy_bt_OFFLINE,2022.2.4,60.01972860357194,
1,0,0,0,0,0,1,0,triangle,hexagon,2,0,2,0,1,0,12,1,,,,,,,,,,,,391.99988872898393,391.99988872898393,391.99988872898393,391.99988872898393,391.99988872898393,391.99988872898393,391.99988872898393,391.99988872898393,391.99988872898393,391.99988872898393,a,1.1409733480249997,10,559,2,393.16786464399775,394.6695362890023,,,,,,,,,,,,,,,,91140,2022-11-21_14h01.53.163,vts_reward_expectancy_bt_OFFLINE,2022.2.4,60.01972860357194,
0,0,1,0,0,0,0,1,hexagon,star,2,0,2,0,1,1,13,8,,,,,,,,,,,,395.1699802479998,395.1699802479998,395.1699802479998,395.1699802479998,395.1699802479998,395.1699802479998,395.1699802479998,395.1699802479998,395.1699802479998,395.1699802479998,l,3.3035496140364558,10,569,2,398.4903881759965,399.99204260198167,,,,,,,,,,,,,,,,91140,2022-11-21_14h01.53.163,vts_reward_expectancy_bt_OFFLINE,2022.2.4,60.01972860357194,
0,1,0,0,1,0,0,0,circle,triangle,2,0,2,0,1,2,14,3,,,,,,,,,,,,400.4923878419795,400.4923878419795,400.4923878419795,400.4923878419795,400.4923878419795,400.4923878419795,400.4923878419795,400.4923878419795,400.4923878419795,400.4923878419795,l,0.8377528750279453,10,579,2,401.36023449897766,402.861825762986,,,,,,,,,,,,,,,,91140,2022-11-21_14h01.53.163,vts_reward_expectancy_bt_OFFLINE,2022.2.4,60.01972860357194,
1,0,0,0,0,0,0,1,triangle,star,2,0,2,0,1,3,15,2,,,,,,,,,,,,403.3624436809914,403.3624436809914,403.3624436809914,403.3624436809914,403.3624436809914,403.3624436809914,403.3624436809914,403.3624436809914,403.3624436809914,403.3624436809914,l,1.018363624025369,1,580,2,404.41343827798846,405.9150895679777,,,,,,,,,,,,,,,,91140,2022-11-21_14h01.53.163,vts_reward_expectancy_bt_OFFLINE,2022.2.4,60.01972860357194,
0,0,0,1,0,1,0,0,star ,circle,2,0,2,0,1,4,16,10,,,,,,,,,,,,406.4158047649835,406.4158047649835,406.4158047649835,406.4158047649835,406.4158047649835,406.4158047649835,406.4158047649835,406.4158047649835,406.4158047649835,406.4158047649835,a,0.529644406051375,1,581,2,406.9662843309925,408.4680150219938,,,,,,,,,,,,,,,,91140,2022-11-21_14h01.53.163,vts_reward_expectancy_bt_OFFLINE,2022.2.4,60.01972860357194,
0,0,0,1,0,0,1,0,star,hexagon,2,0,2,0,1,5,17,11,,,,,,,,,,,,408.96854527899995,408.96854527899995,408.96854527899995,408.96854527899995,408.96854527899995,408.96854527899995,408.96854527899995,408.96854527899995,408.96854527899995,408.96854527899995,a,0.50735242801602,10,591,2,409.50260250698193,411.00420398497954,,,,,,,,,,,,,,,,91140,2022-11-21_14h01.53.163,vts_reward_expectancy_bt_OFFLINE,2022.2.4,60.01972860357194,
0,0,0,1,1,0,0,0,star,triangle,2,0,2,0,1,6,18,9,,,,,,,,,,,,411.5047745979973,411.5047745979973,411.5047745979973,411.5047745979973,411.5047745979973,411.5047745979973,411.5047745979973,411.5047745979973,411.5047745979973,411.5047745979973,a,0.5245673230383545,10,601,2,412.05529546999605,413.5569373619801,,,,,,,,,,,,,,,,91140,2022-11-21_14h01.53.163,vts_reward_expectancy_bt_OFFLINE,2022.2.4,60.01972860357194,
0,1,0,0,0,0,1,0,circle,hexagon,2,0,2,0,1,7,19,4,,,,,,,,,,,,414.05752910100273,414.05752910100273,414.05752910100273,414.05752910100273,414.05752910100273,414.05752910100273,414.05752910100273,414.05752910100273,414.05752910100273,414.05752910100273,l,0.48235042902524583,1,602,2,414.55801527699805,416.0596510359901,,,,,,,,,,,,,,,,91140,2022-11-21_14h01.53.163,vts_reward_expectancy_bt_OFFLINE,2022.2.4,60.01972860357194,
1,0,0,0,0,1,0,0,triangle,circle,2,0,2,0,1,8,20,0,,,,,,,,,,,,416.5601597529894,416.5601597529894,416.5601597529894,416.5601597529894,416.5601597529894,416.5601597529894,416.5601597529894,416.5601597529894,416.5601597529894,416.5601597529894,a,0.5551335810450837,10,612,2,417.14404779599863,418.6459632529877,,,,,,,,,,,,,,,,91140,2022-11-21_14h01.53.163,vts_reward_expectancy_bt_OFFLINE,2022.2.4,60.01972860357194,
0,1,0,0,0,0,0,1,circle,star,2,0,2,0,1,9,21,5,,,,,,,,,,,,419.1464218029869,419.1464218029869,419.1464218029869,419.1464218029869,419.1464218029869,419.1464218029869,419.1464218029869,419.1464218029869,419.1464218029869,419.1464218029869,l,0.7365035730181262,10,622,2,419.9138934369839,421.4158338299894,,,,,,,,,,,,,,,,91140,2022-11-21_14h01.53.163,vts_reward_expectancy_bt_OFFLINE,2022.2.4,60.01972860357194,
0,0,1,0,1,0,0,0,hexagon,triangle,2,0,2,0,1,10,22,6,,,,,,,,,,,,421.91614869597834,421.91614869597834,421.91614869597834,421.91614869597834,421.91614869597834,421.91614869597834,421.91614869597834,421.91614869597834,421.91614869597834,421.91614869597834,a,0.633902643021429,1,623,2,422.56689546399866,424.0686031689984,,,,,,,,,,,,,,,,91140,2022-11-21_14h01.53.163,vts_reward_expectancy_bt_OFFLINE,2022.2.4,60.01972860357194,
0,0,1,0,0,1,0,0,hexagon,circle,2,0,2,0,1,11,23,7,,,,,,,,,,,,424.5692189359979,424.5692189359979,424.5692189359979,424.5692189359979,424.5692189359979,424.5692189359979,424.5692189359979,424.5692189359979,424.5692189359979,424.5692189359979,a,0.5444307280413341,1,624,2,425.13632880797377,426.63812114400207,,,,,,,,,,,,,,,,91140,2022-11-21_14h01.53.163,vts_reward_expectancy_bt_OFFLINE,2022.2.4,60.01972860357194,
0,1,0,0,0,0,1,0,circle,hexagon,2,0,2,0,2,0,24,4,,,,,,,,,,,,427.1385149299749,427.1385149299749,427.1385149299749,427.1385149299749,427.1385149299749,427.1385149299749,427.1385149299749,427.1385149299749,427.1385149299749,427.1385149299749,l,0.46164656203472987,1,625,2,427.6226238090021,429.1240570599912,,,,,,,,,,,,,,,,91140,2022-11-21_14h01.53.163,vts_reward_expectancy_bt_OFFLINE,2022.2.4,60.01972860357194,
1,0,0,0,0,0,1,0,triangle,hexagon,2,0,2,0,2,1,25,1,,,,,,,,,,,,429.6247214670002,429.6247214670002,429.6247214670002,429.6247214670002,429.6247214670002,429.6247214670002,429.6247214670002,429.6247214670002,429.6247214670002,429.6247214670002,a,0.6075062840245664,10,635,2,430.258711233997,431.76033945099334,,,,,,,,,,,,,,,,91140,2022-11-21_14h01.53.163,vts_reward_expectancy_bt_OFFLINE,2022.2.4,60.01972860357194,
0,0,0,1,0,0,1,0,star,hexagon,2,0,2,0,2,2,26,11,,,,,,,,,,,,432.260953651974,432.260953651974,432.260953651974,432.260953651974,432.260953651974,432.260953651974,432.260953651974,432.260953651974,432.260953651974,432.260953651974,a,0.5027534140390344,10,645,2,432.7947684599785,434.29646591297933,,,,,,,,,,,,,,,,91140,2022-11-21_14h01.53.163,vts_reward_expectancy_bt_OFFLINE,2022.2.4,60.01972860357194,
0,0,0,1,1,0,0,0,star,triangle,2,0,2,0,2,3,27,9,,,,,,,,,,,,434.7970346979855,434.7970346979855,434.7970346979855,434.7970346979855,434.7970346979855,434.7970346979855,434.7970346979855,434.7970346979855,434.7970346979855,434.7970346979855,a,0.543199068022659,10,655,2,435.3643082649796,436.86596633898444,,,,,,,,,,,,,,,,91140,2022-11-21_14h01.53.163,vts_reward_expectancy_bt_OFFLINE,2022.2.4,60.01972860357194,
0,1,0,0,0,0,0,1,circle,star,2,0,2,0,2,4,28,5,,,,,,,,,,,,437.3665845269861,437.3665845269861,437.3665845269861,437.3665845269861,437.3665845269861,437.3665845269861,437.3665845269861,437.3665845269861,437.3665845269861,437.3665845269861,l,0.5947760440467391,1,656,2,437.98392471898114,439.48550693597645,,,,,,,,,,,,,,,,91140,2022-11-21_14h01.53.163,vts_reward_expectancy_bt_OFFLINE,2022.2.4,60.01972860357194,
1,0,0,0,0,0,0,1,triangle,star,2,0,2,0,2,5,29,2,,,,,,,,,,,,439.9860683819861,439.9860683819861,439.9860683819861,439.9860683819861,439.9860683819861,439.9860683819861,439.9860683819861,439.9860683819861,439.9860683819861,439.9860683819861,a,0.8008955750265159,1,657,2,440.8036388869805,442.3052477229794,,,,,,,,,,,,,,,,91140,2022-11-21_14h01.53.163,vts_reward_expectancy_bt_OFFLINE,2022.2.4,60.01972860357194,
0,0,1,0,0,1,0,0,hexagon,circle,2,0,2,0,2,6,30,7,,,,,,,,,,,,442.80588382299175,442.80588382299175,442.80588382299175,442.80588382299175,442.80588382299175,442.80588382299175,442.80588382299175,442.80588382299175,442.80588382299175,442.80588382299175,a,0.792686708009569,1,658,2,443.62333097399096,445.1250134999864,,,,,,,,,,,,,,,,91140,2022-11-21_14h01.53.163,vts_reward_expectancy_bt_OFFLINE,2022.2.4,60.01972860357194,
0,0,0,1,0,1,0,0,star ,circle,2,0,2,0,2,7,31,10,,,,,,,,,,,,445.62553031698917,445.62553031698917,445.62553031698917,445.62553031698917,445.62553031698917,445.62553031698917,445.62553031698917,445.62553031698917,445.62553031698917,445.62553031698917,l,0.31299337002565153,10,668,2,445.959429095994,447.46101698998245,,,,,,,,,,,,,,,,91140,2022-11-21_14h01.53.163,vts_reward_expectancy_bt_OFFLINE,2022.2.4,60.01972860357194,
0,1,0,0,1,0,0,0,circle,triangle,2,0,2,0,2,8,32,3,,,,,,,,,,,,447.9613726269745,447.9613726269745,447.9613726269745,447.9613726269745,447.9613726269745,447.9613726269745,447.9613726269745,447.9613726269745,447.9613726269745,447.9613726269745,a,0.721650709019741,1,669,2,448.71228223797516,450.214048697002,,,,,,,,,,,,,,,,91140,2022-11-21_14h01.53.163,vts_reward_expectancy_bt_OFFLINE,2022.2.4,60.01972860357194,
0,0,1,0,1,0,0,0,hexagon,triangle,2,0,2,0,2,9,33,6,,,,,,,,,,,,450.7145565999963,450.7145565999963,450.7145565999963,450.7145565999963,450.7145565999963,450.7145565999963,450.7145565999963,450.7145565999963,450.7145565999963,450.7145565999963,a,0.7928743220109027,1,670,2,451.5321921099967,453.0337795599771,,,,,,,,,,,,,,,,91140,2022-11-21_14h01.53.163,vts_reward_expectancy_bt_OFFLINE,2022.2.4,60.01972860357194,
0,0,1,0,0,0,0,1,hexagon,star,2,0,2,0,2,10,34,8,,,,,,,,,,,,453.53431324497797,453.53431324497797,453.53431324497797,453.53431324497797,453.53431324497797,453.53431324497797,453.53431324497797,453.53431324497797,453.53431324497797,453.53431324497797,l,0.606487917015329,10,680,2,454.1682917899743,455.6701183139812,,,,,,,,,,,,,,,,91140,2022-11-21_14h01.53.163,vts_reward_expectancy_bt_OFFLINE,2022.2.4,60.01972860357194,
1,0,0,0,0,1,0,0,triangle,circle,2,0,2,0,2,11,35,0,,,,,,,,,,,,456.17059795500245,456.17059795500245,456.17059795500245,456.17059795500245,456.17059795500245,456.17059795500245,456.17059795500245,456.17059795500245,456.17059795500245,456.17059795500245,a,0.6687342380464543,1,681,2,456.87133400599123,458.37304515897995,,,,,,,,,,,,,,,,91140,2022-11-21_14h01.53.163,vts_reward_expectancy_bt_OFFLINE,2022.2.4,60.01972860357194,
0,0,0,1,0,0,1,0,star,hexagon,2,0,2,0,3,0,36,11,,,,,,,,,,,,458.8735796689871,458.8735796689871,458.8735796689871,458.8735796689871,458.8735796689871,458.8735796689871,458.8735796689871,458.8735796689871,458.8735796689871,458.8735796689871,a,0.9484457860235125,10,691,2,459.84144415997434,461.3429755989928,,,,,,,,,,,,,,,,91140,2022-11-21_14h01.53.163,vts_reward_expectancy_bt_OFFLINE,2022.2.4,60.01972860357194,
0,1,0,0,1,0,0,0,circle,triangle,2,0,2,0,3,1,37,3,,,,,,,,,,,,461.8433467790019,461.8433467790019,461.8433467790019,461.8433467790019,461.8433467790019,461.8433467790019,461.8433467790019,461.8433467790019,461.8433467790019,461.8433467790019,a,1.3414330200175755,1,692,2,463.21166251198156,464.71333116898313,,,,,,,,,,,,,,,,91140,2022-11-21_14h01.53.163,vts_reward_expectancy_bt_OFFLINE,2022.2.4,60.01972860357194,
0,0,1,0,0,0,0,1,hexagon,star,2,0,2,0,3,2,38,8,,,,,,,,,,,,465.2138421309937,465.2138421309937,465.2138421309937,465.2138421309937,465.2138421309937,465.2138421309937,465.2138421309937,465.2138421309937,465.2138421309937,465.2138421309937,l,1.0532740589987952,1,693,2,466.2983936499804,467.80015301398817,,,,,,,,,,,,,,,,91140,2022-11-21_14h01.53.163,vts_reward_expectancy_bt_OFFLINE,2022.2.4,60.01972860357194,
0,0,1,0,1,0,0,0,hexagon,triangle,2,0,2,0,3,3,39,6,,,,,,,,,,,,468.3006176649942,468.3006176649942,468.3006176649942,468.3006176649942,468.3006176649942,468.3006176649942,468.3006176649942,468.3006176649942,468.3006176649942,468.3006176649942,l,0.9159829750424251,10,703,2,469.23498946998734,470.7366940319771,,,,,,,,,,,,,,,,91140,2022-11-21_14h01.53.163,vts_reward_expectancy_bt_OFFLINE,2022.2.4,60.01972860357194,
1,0,0,0,0,1,0,0,triangle,circle,2,0,2,0,3,4,40,0,,,,,,,,,,,,471.2372823029873,471.2372823029873,471.2372823029873,471.2372823029873,471.2372823029873,471.2372823029873,471.2372823029873,471.2372823029873,471.2372823029873,471.2372823029873,a,0.46548216804512776,10,713,2,471.7209634640021,473.2224142549967,,,,,,,,,,,,,,,,91140,2022-11-21_14h01.53.163,vts_reward_expectancy_bt_OFFLINE,2022.2.4,60.01972860357194,
1,0,0,0,0,0,1,0,triangle,hexagon,2,0,2,0,3,5,41,1,,,,,,,,,,,,473.7232368369878,473.7232368369878,473.7232368369878,473.7232368369878,473.7232368369878,473.7232368369878,473.7232368369878,473.7232368369878,473.7232368369878,473.7232368369878,a,0.4656341390218586,1,714,2,474.20714877097635,475.7087814869883,,,,,,,,,,,,,,,,91140,2022-11-21_14h01.53.163,vts_reward_expectancy_bt_OFFLINE,2022.2.4,60.01972860357194,
0,1,0,0,0,0,1,0,circle,hexagon,2,0,2,0,3,6,42,4,,,,,,,,,,,,476.2092515549739,476.2092515549739,476.2092515549739,476.2092515549739,476.2092515549739,476.2092515549739,476.2092515549739,476.2092515549739,476.2092515549739,476.2092515549739,l,0.6461294580076355,1,715,2,476.87672451499384,478.3784171269799,,,,,,,,,,,,,,,,91140,2022-11-21_14h01.53.163,vts_reward_expectancy_bt_OFFLINE,2022.2.4,60.01972860357194,
0,0,0,1,1,0,0,0,star,triangle,2,0,2,0,3,7,43,9,,,,,,,,,,,,478.87902708598995,478.87902708598995,478.87902708598995,478.87902708598995,478.87902708598995,478.87902708598995,478.87902708598995,478.87902708598995,478.87902708598995,478.87902708598995,a,0.5637858840345871,1,716,2,479.46308671397856,480.9645087120007,,,,,,,,,,,,,,,,91140,2022-11-21_14h01.53.163,vts_reward_expectancy_bt_OFFLINE,2022.2.4,60.01972860357194,
0,0,1,0,0,1,0,0,hexagon,circle,2,0,2,0,3,8,44,7,,,,,,,,,,,,481.46511696398375,481.46511696398375,481.46511696398375,481.46511696398375,481.46511696398375,481.46511696398375,481.46511696398375,481.46511696398375,481.46511696398375,481.46511696398375,l,1.2512194500304759,1,717,2,482.7331979860028,484.23486786099966,,,,,,,,,,,,,,,,91140,2022-11-21_14h01.53.163,vts_reward_expectancy_bt_OFFLINE,2022.2.4,60.01972860357194,
0,1,0,0,0,0,0,1,circle,star,2,0,2,0,3,9,45,5,,,,,,,,,,,,484.73550799197983,484.73550799197983,484.73550799197983,484.73550799197983,484.73550799197983,484.73550799197983,484.73550799197983,484.73550799197983,484.73550799197983,484.73550799197983,l,0.8601666870235931,10,727,2,485.61983162598335,487.12157371698413,,,,,,,,,,,,,,,,91140,2022-11-21_14h01.53.163,vts_reward_expectancy_bt_OFFLINE,2022.2.4,60.01972860357194,
0,0,0,1,0,1,0,0,star ,circle,2,0,2,0,3,10,46,10,,,,,,,,,,,,487.6221546859888,487.6221546859888,487.6221546859888,487.6221546859888,487.6221546859888,487.6221546859888,487.6221546859888,487.6221546859888,487.6221546859888,487.6221546859888,l,1.2368400290433783,1,728,2,488.890010720992,490.39150886499556,,,,,,,,,,,,,,,,91140,2022-11-21_14h01.53.163,vts_reward_expectancy_bt_OFFLINE,2022.2.4,60.01972860357194,
1,0,0,0,0,0,0,1,triangle,star,2,0,2,0,3,11,47,2,,,,,,,,,,,,490.8922444199852,490.8922444199852,490.8922444199852,490.8922444199852,490.8922444199852,490.8922444199852,490.8922444199852,490.8922444199852,490.8922444199852,490.8922444199852,l,0.5532958640251309,10,738,2,491.4763777459739,492.978041542985,,,,,,,,,,,,,,,,91140,2022-11-21_14h01.53.163,vts_reward_expectancy_bt_OFFLINE,2022.2.4,60.01972860357194,
,,,,,,,,,,,,,,,,,,0,0,0,0,0,0,0,0,,,,,,,,,,,,,,,,,,,,526.147886976978,,146,S,triangle,0.001818613993236795,521.1069678909844,522.6106001899752,522.6106001899752,522.6106001899752,1,0,d,2.012881578033557,0,524.6467133959814,91140,2022-11-21_14h01.53.163,vts_reward_expectancy_bt_OFFLINE,2022.2.4,60.01972860357194,
,,,,,,,,,,,,,,,,,,0,0,0,0,1,0,1,0,,,,,,,,,,,,,,,,,,,,530.736357739981,,132,Y,hexagon,0.0014694919809699059,527.1306799409795,528.6339291689801,528.6339291689801,528.6339291689801,1,0,d,0.5689177290187217,0,529.234647151985,91140,2022-11-21_14h01.53.163,vts_reward_expectancy_bt_OFFLINE,2022.2.4,60.01972860357194,
,,,,,,,,,,,,,,,,,,0,0,0,0,2,0,2,0,,,,,,,,,,,,,,,,,,,,535.241249846993,,125,B,circle,0.0014902680122759193,531.7183170859935,533.2222841669864,533.2222841669864,533.2222841669864,1,0,d,0.49208599503617734,0,533.7395973779785,91140,2022-11-21_14h01.53.163,vts_reward_expectancy_bt_OFFLINE,2022.2.4,60.01972860357194,
,,,,,,,,,,,,,,,,,,0,0,0,0,3,0,3,0,,,,,,,,,,,,,,,,,,,,539.7626850719971,,139,H,star,0.0016316850087605417,536.2232283709745,537.7271837969893,537.7271837969893,537.7271837969893,1,0,d,0.5086567720281892,0,538.2610102479812,91140,2022-11-21_14h01.53.163,vts_reward_expectancy_bt_OFFLINE,2022.2.4,60.01972860357194,
,,,,,,,,,,,,,,,,,,0,0,0,0,4,0,4,0,,,,,,,,,,,,,,,,,,,,544.0842716749758,,181,D,hexagon,0.0016313160012941808,540.7449349410017,542.2488816689875,542.2488816689875,542.2488816689875,0,0,d,0.30722788101411425,0,542.5826361109794,91140,2022-11-21_14h01.53.163,vts_reward_expectancy_bt_OFFLINE,2022.2.4,60.01972860357194,
,,,,,,,,,,,,,,,,,,0,0,0,0,5,0,5,0,,,,,,,,,,,,,,,,,,,,548.9228696359787,,167,U,triangle,0.0016893089923541993,545.0667782289966,546.5703439450008,546.5703439450008,546.5703439450008,1,1,f,0.8243155330128502,0,547.4213105009985,91140,2022-11-21_14h01.53.163,vts_reward_expectancy_bt_OFFLINE,2022.2.4,60.01972860357194,
,,,,,,,,,,,,,,,,,,0,0,0,0,6,0,6,0,,,,,,,,,,,,,,,,,,,,553.761501889996,,160,W,circle,0.0016100150241982192,549.9026039890014,551.4089199829905,551.4089199829905,551.4089199829905,0,0,d,0.824087685032282,0,552.259958021983,91140,2022-11-21_14h01.53.163,vts_reward_expectancy_bt_OFFLINE,2022.2.4,60.01972860357194,
,,,,,,,,,,,,,,,,,,0,0,0,0,7,0,7,0,,,,,,,,,,,,,,,,,,,,558.4505541419785,,174,F,star,0.0016625270072836429,554.7428439619835,556.2476389159856,556.2476389159856,556.2476389159856,1,1,f,0.675860999035649,0,556.9485281419766,91140,2022-11-21_14h01.53.163,vts_reward_expectancy_bt_OFFLINE,2022.2.4,60.01972860357194,
,,,,,,,,,,,,,,,,,,0,0,0,0,8,0,8,0,,,,,,,,,,,,,,,,,,,,563.1218859359797,,146,S,triangle,0.001510945992777124,559.4284178160015,560.9364298179862,560.9364298179862,560.9364298179862,1,0,d,0.6560216680227313,0,561.6238525209774,91140,2022-11-21_14h01.53.163,vts_reward_expectancy_bt_OFFLINE,2022.2.4,60.01972860357194,
,,,,,,,,,,,,,,,,,,0,0,0,0,9,0,9,0,,,,,,,,,,,,,,,,,,,,567.8936656249862,,132,Y,hexagon,0.001343439012998715,564.1010951889912,565.6079913519789,565.6079913519789,565.6079913519789,1,0,d,0.7533052890212275,0,566.392336956982,91140,2022-11-21_14h01.53.163,vts_reward_expectancy_bt_OFFLINE,2022.2.4,60.01972860357194,
